timestamp,dt,heading_rad,accel_x,accel_y,accel_z,accel_norm,gyro_x_rads,gyro_y_rads,gyro_z_rads,step_event,gyro_x_kf,gyro_y_kf,gyro_z_kf,yaw_change_raw,yaw_change_kf
0.000467,0.000467,1.905907,0.02279,0.010683,0.985023,0.985344,-0.007902,0.085109,-0.049172,0,-0.007882294245064259,0.0848967581987381,-0.04904937371611595,-2.2963324e-05,-2.290605752542615e-05
0.143286,0.142819,1.905183,0.087038,0.036904,1.022308,1.02667,-0.001327,0.072708,-0.014507,0,-0.004602433182299137,0.07879826426506042,-0.03176651895046234,-0.0020948385570000003,-0.004559768527511507
0.192319,0.049033,1.906456,0.080734,0.006313,0.971619,0.974988,-0.082085,-0.021907,0.085737,0,-0.030573610216379166,0.045043133199214935,0.0076191723346710205,0.0021091037639999993,-0.004186177650425583
0.234888,0.042568,1.909557,0.052611,0.021609,1.00135,1.002964,0.045318,-0.041284,0.002176,0,-0.011358438059687614,0.023185767233371735,0.006241003051400185,0.0022017317319999994,-0.0039205106325335805
0.273044,0.038157,1.910176,0.061581,0.066525,0.973813,0.978023,-0.040128,0.033884,0.056793,0,-0.017241209745407104,0.02537333033978939,0.01657782308757305,0.004368782232999999,-0.0032879506369810556
0.314826,0.041781,1.91136,0.040004,0.004613,1.008905,1.009708,0.03749,-0.050937,-0.078119,0,-0.007805126719176769,0.012216840870678425,0.0002513602375984192,0.0011048922939999998,-0.003277448554893956
0.359939,0.045113,1.908042,0.054793,0.011168,0.935796,0.937465,0.103158,-0.049716,-0.081785,0,0.008821907453238964,0.0029366454109549522,-0.012041204608976841,-0.002584674411,-0.0038206634184187282
0.401854,0.041915,1.906216,0.078552,0.039818,1.064224,1.067862,0.027197,-0.023573,-0.0184,0,0.011269740760326385,-0.0005948315374553204,-0.012888289988040924,-0.003355910411,-0.004360876093267464
0.447316,0.045463,1.905602,0.058914,0.048316,0.993552,0.996469,-0.038937,-0.034931,-0.018629,0,0.005217863246798515,-0.004733684007078409,-0.013580270111560822,-0.004202840637999999,-0.0049782759133493535
0.489104,0.041788,1.906555,0.085826,0.036176,0.962602,0.967098,0.005291,0.058915,0.016141,0,0.005225954111665487,0.0023074266500771046,-0.01029236614704132,-0.0035283405299999992,-0.005408373309901916
0.53436,0.045256,1.907843,0.05649,0.035933,0.989165,0.991429,-0.023659,0.014337,-0.044303,0,0.002259106608107686,0.00354301487095654,-0.013785685412585735,-0.005533317097999999,-0.006032258288933896
0.576014,0.041654,1.906921,0.041458,0.000486,1.008905,1.009756,0.00022,0.053683,-0.00908,0,0.002062747022137046,0.00837133638560772,-0.013332542963325977,-0.005911535417999999,-0.006587612033528277
0.621191,0.045177,1.907344,0.048004,0.02258,0.989165,0.990587,0.071342,0.036648,-0.024847,0,0.008369006216526031,0.010945267044007778,-0.014380665495991707,-0.007034048336999999,-0.007237287358640695
0.662907,0.041716,1.906545,0.054065,0.021609,1.007199,1.008881,0.00628,-0.002394,-0.026976,0,0.008187990635633469,0.009789401665329933,-0.015472068451344967,-0.008159379153,-0.007882720166157
0.708032,0.045124,1.905594,0.059399,0.035933,1.010611,1.012992,0.006133,-0.089154,-0.11215,0,0.008017453365027905,0.0015784073621034622,-0.023495059460401535,-0.013220035752999999,-0.00894291122924816
0.749711,0.041679,1.90268,0.058429,0.024522,0.986972,0.989004,0.008527,-0.078388,-0.062454,0,0.008058163337409496,-0.004810492508113384,-0.026607677340507507,-0.015823056018999998,-0.010051892613123172
0.79504,0.04533,1.902077,0.079765,0.029863,0.992821,0.996468,-0.015939,-0.021606,-0.020743,0,0.006203909870237112,-0.006108276546001434,-0.026154516264796257,-0.016763336208999998,-0.011237476835406386
0.837228,0.042188,1.902787,0.072006,0.031563,0.982586,0.985726,0.057589,-0.003709,-0.018723,0,0.010059290565550327,-0.005928260739892721,-0.02559693530201912,-0.017553222132999997,-0.012317360341927968
0.882523,0.045295,1.902915,0.068855,0.032777,0.999157,1.002063,0.000907,-0.028709,-0.015458,0,0.009390182793140411,-0.007593720685690641,-0.02485569566488266,-0.018253392242999995,-0.013443199077068828
0.931301,0.048778,1.902779,0.06934,0.034962,0.979905,0.982977,0.06277,-0.017737,-0.029851,0,0.013204437680542469,-0.008318508975207806,-0.025212634354829788,-0.019709464320999997,-0.014673020955628715
0.96979,0.038489,1.902406,0.06934,0.035205,0.983561,0.98663,0.057726,0.015875,-0.008863,0,0.016322165727615356,-0.006624300964176655,-0.02406771294772625,-0.020050592327999998,-0.01559936315927375
1.018595,0.048805,1.902905,0.061096,0.036419,0.998913,1.001442,0.044482,-0.01445,-0.013016,0,0.018259311094880104,-0.0071626389399170876,-0.023307453840970993,-0.020685838207999997,-0.016736883443982338
1.056785,0.03819,1.903148,0.071522,0.038361,0.985023,0.988361,0.029478,-0.001012,-0.017991,0,0.01901901513338089,-0.006746131461113691,-0.022947436198592186,-0.021372914498,-0.017613246032406573
1.105606,0.048821,1.903318,0.072491,0.040546,0.998913,1.002361,0.006817,-0.00972,-0.032299,0,0.018204117193818092,-0.006944738328456879,-0.02357196994125843,-0.022949783977,-0.01876405317690875
1.143754,0.038148,1.903234,0.071764,0.035933,0.989165,0.992416,0.01363,-0.012661,-0.050045,0,0.01790236309170723,-0.007321840152144432,-0.025318395346403122,-0.024858900637,-0.019729899322583337
1.192381,0.048627,1.902593,0.064733,0.040789,0.993552,0.996494,0.034455,-0.028748,-0.057038,0,0.018982578068971634,-0.00872009713202715,-0.027388395741581917,-0.027632487463,-0.021061714842309242
1.23066,0.038279,1.901642,0.071279,0.048316,0.982586,0.986352,0.031598,0.018208,-0.051563,0,0.01979801431298256,-0.006979518104344606,-0.028950994834303856,-0.02960626754,-0.022169929973571558
1.280842,0.050182,1.901505,0.074431,0.051229,1.012073,1.016099,-0.027251,-0.054107,-0.014002,0,0.016782449558377266,-0.01000011246651411,-0.0279928520321846,-0.030308915904000002,-0.023574667274250647
1.334774,0.053932,1.90296,0.083886,0.045888,0.979905,0.984559,-0.02024,-0.031532,-0.018989,0,0.014427176676690578,-0.011369915679097176,-0.027420049533247948,-0.031333030652,-0.025053485385677775
1.384351,0.049577,1.90377,0.082432,0.050015,0.988434,0.993126,0.004505,-0.041325,-0.000846,0,0.013800102286040783,-0.013263056054711342,-0.02574058808386326,-0.031374972794,-0.026329626521111465
1.430034,0.045683,1.904519,0.070552,0.053657,0.991846,0.995799,-0.005629,-0.034852,0.005307,0,0.012579329311847687,-0.014619536697864532,-0.023789800703525543,-0.031132533113,-0.027416415986650622
1.471983,0.04195,1.905068,0.080007,0.049287,0.994039,0.998471,-0.054779,0.008596,0.005454,0,0.00836878176778555,-0.013168340548872948,-0.02196178026497364,-0.030903737812999998,-0.028337712668766266
1.517191,0.045208,1.905541,0.081947,0.044917,0.982098,0.986534,-0.053195,0.026367,-0.011106,0,0.004537906497716904,-0.010708210058510303,-0.021286267787218094,-0.031405817860999996,-0.029300022262890822
1.55881,0.041619,1.905494,0.069097,0.036904,0.978687,0.981817,-0.099784,0.065429,0.007192,0,-0.0019276211969554424,-0.005989477038383484,-0.019521279260516167,-0.031106494012999995,-0.030112478384434243
1.604017,0.045207,1.906769,0.050671,0.038118,0.945056,0.947181,-0.122997,0.384301,-0.00808,0,-0.009404524229466915,0.018113762140274048,-0.018814697861671448,-0.03147176657299999,-0.030963034430666826
1.645694,0.041677,1.908368,0.078795,0.046616,1.01646,1.020574,-0.059772,0.319243,0.015438,0,-0.012505341321229935,0.036652445793151855,-0.016705969348549843,-0.03082835704699999,-0.03165928911520634
1.690832,0.045137,1.910456,0.077098,0.049772,1.017434,1.021565,0.005401,0.016679,0.000916,0,-0.011406006291508675,0.03542620316147804,-0.015624092891812325,-0.03078701155499999,-0.03236451379606407
1.732463,0.041631,1.912035,0.09019,0.037147,1.001594,1.006332,0.062813,-0.147325,0.02656,0,-0.006860565394163132,0.024233859032392502,-0.01304058637470007,-0.02968129219499999,-0.03290740644742921
1.777604,0.045141,1.914949,0.062551,0.045888,0.997207,1.00022,0.054766,-0.172084,0.036273,0,-0.0030944792088121176,0.012236597947776318,-0.01002696342766285,-0.02804389270199999,-0.03336003360351734
1.819576,0.041972,1.91818,0.053823,0.040546,0.974787,0.977114,-0.031302,0.007328,0.041471,0,-0.004814992658793926,0.011937199160456657,-0.006885852664709091,-0.02630327188999999,-0.033649046611560506
1.864901,0.045325,1.921642,0.061824,0.033263,0.996964,0.999433,-0.022238,0.009443,0.027414,0,-0.005875915288925171,0.011785321868956089,-0.004797264467924833,-0.02506073233999999,-0.0338664826235692
1.906914,0.042013,1.923444,0.072006,0.027193,1.001107,1.004061,-0.01388,-0.046762,-0.028708,0,-0.006362574640661478,0.008225562982261181,-0.006251070648431778,-0.02626684154399999,-0.034129108854721764
1.952257,0.045343,1.92355,0.074916,0.030349,0.997207,1.000478,0.008268,-0.037076,-0.013833,0,-0.005474185571074486,0.005474787671118975,-0.0067114559933543205,-0.02689407126299999,-0.03443342640382843
1.994143,0.041887,1.924484,0.071522,0.040546,0.97625,0.979705,0.004801,-0.012411,0.013804,0,-0.0048509868793189526,0.004389999434351921,-0.005467175971716642,-0.026315863114999987,-0.034662430003755726
2.039393,0.04525,1.926565,0.069582,0.042731,0.97893,0.98233,0.013452,0.055299,0.017859,0,-0.0037420347798615694,0.007474503479897976,-0.004053875803947449,-0.025507743364999988,-0.03484586788388435
2.081101,0.041708,1.928942,0.073946,0.047102,1.00135,1.005181,0.011149,0.042659,-0.004497,0,-0.0028406265191733837,0.009604348801076412,-0.004080699756741524,-0.02569530424099999,-0.035016065709338524
2.126199,0.045098,1.93088,0.080492,0.039818,0.936283,0.94058,0.033484,0.003804,0.005789,0,-0.0006435271352529526,0.009253513999283314,-0.0034837299026548862,-0.02543423191899999,-0.035173174960488454
2.167702,0.041503,1.933629,0.069824,0.049044,0.988434,0.992111,0.031472,0.063997,0.000773,0,0.001297609182074666,0.012562336400151253,-0.003226443426683545,-0.02540215009999999,-0.0353070820420261
2.212851,0.045149,1.936573,0.072491,0.046131,0.993308,0.997018,-0.026624,0.062896,0.026272,0,-0.0003889815416187048,0.015602716244757175,-0.0014446048298850656,-0.02421599557199999,-0.03537230450549058
2.254418,0.041567,1.940401,0.06837,0.042489,1.000376,1.003609,0.005575,0.038957,0.025405,0,-2.892929478548467e-05,0.017012640833854675,0.00017633603420108557,-0.02315998593699999,-0.03536497474555694
2.30003,0.045613,1.943368,0.068855,0.043703,0.98551,0.988879,0.007435,0.054128,0.00308,0,0.00042145661427639425,0.019252242520451546,0.00035154796205461025,-0.023019497896999988,-0.03534893958836375
2.341771,0.041741,1.945467,0.067885,0.048316,1.001838,1.005297,-0.01453,0.046088,-0.006592,0,-0.00048035013605840504,0.020870858803391457,-6.72565947752446e-05,-0.023294654568999987,-0.03535174694588626
2.387001,0.04523,1.947164,0.072249,0.042974,0.979905,0.983504,0.010653,0.058027,0.004159,0,0.0001909092825371772,0.023111101239919662,0.00018755567725747824,-0.023106542998999988,-0.03534326380260391
2.428773,0.041772,1.949286,0.06837,0.043945,1.006224,1.009501,0.011023,0.01043,0.020739,0,0.0008437852375209332,0.022346781566739082,0.0014262401964515448,-0.02224023349099999,-0.035283686897117736
2.471929,0.043155,1.951149,0.05746,0.038604,0.998913,1.001309,-0.03187,-0.033965,0.000882,0,-0.001127366442233324,0.018953746184706688,0.0013934472808614373,-0.022202170780999987,-0.03522355267971216
2.517979,0.046051,1.952746,0.050914,0.021851,0.936527,0.938164,-0.102205,0.056695,-0.005439,0,-0.007216145284473896,0.02122722752392292,0.0009818699909374118,-0.022452642169999988,-0.0351783365847595
2.568148,0.050169,1.955352,0.063763,0.027921,1.011829,1.014221,-0.186029,0.010789,0.015825,0,-0.017985090613365173,0.02059858851134777,0.00187579239718616,-0.02165871774499999,-0.03508422995598507
2.611951,0.043803,1.957308,0.078552,0.009954,0.947737,0.951039,0.048934,0.019619,-0.036395,0,-0.01395573653280735,0.020539605990052223,-0.00042858091183006763,-0.02325292792999999,-0.03510300308566596
2.655608,0.043657,1.961873,0.199048,0.202246,1.137089,1.171963,-0.039031,-0.059183,0.321877,0,-0.01546530332416296,0.01574019156396389,0.018974676728248596,-0.009200743740999988,-0.03427462562374081
2.698587,0.042979,1.974712,-0.015551,-0.105174,0.765452,0.7728,0.299999,0.279542,0.130676,0,0.0035230638459324837,0.03161890059709549,0.025698181241750717,-0.003584419936999988,-0.03317014349215161
2.753519,0.054932,1.984741,0.16656,-0.017368,1.049359,1.062637,0.097301,-0.025776,0.13002,0,0.009166929870843887,0.028164686635136604,0.0319766104221344,0.003557838703000012,-0.03141360432844292
2.815106,0.061587,1.994932,0.074916,0.000728,0.968451,0.971345,0.119598,-0.311356,0.142848,0,0.015812207013368607,0.007733762264251709,0.03864838182926178,0.012355418479000013,-0.02903336643672418
2.865347,0.050241,2.002375,0.096009,0.075994,0.952611,0.960448,0.078772,-0.071874,0.121452,0,0.01960044354200363,0.0029438305646181107,0.043630607426166534,0.018457288411000014,-0.026841321089026145
2.909319,0.043972,2.020724,0.172379,0.134993,0.975762,1.000025,-0.156411,0.191103,0.729568,0,0.00901101529598236,0.014264106750488281,0.08489885926246643,0.05053785250700001,-0.023108148449536972
2.964184,0.054866,2.052736,0.003152,0.035205,0.912401,0.913085,-0.136863,0.200266,0.613198,0,0.00023551005870103836,0.025453630834817886,0.1166803389787674,0.084181573975,-0.016706364971127922
3.006767,0.042583,2.077312,0.072491,0.042246,1.002569,1.006074,-0.133504,0.283039,0.50477,0,-0.007809395901858807,0.040948305279016495,0.1400253027677536,0.10567619488500002,-0.010743667503368672
3.048854,0.042087,2.09044,0.059884,0.040304,0.936771,0.939548,-0.32501,0.46019,0.453151,0,-0.026888854801654816,0.066165491938591,0.15885965526103973,0.12474796102200002,-0.004057741192397293
3.091799,0.042945,2.102381,0.010183,0.032291,0.971132,0.971722,-0.259647,0.239973,0.358162,0,-0.040888313204050064,0.07661930471658707,0.1708468794822693,0.14012922811200001,0.0032792780469687614
3.133611,0.041813,2.110459,0.096493,0.048559,1.022552,1.028242,-0.373574,0.498063,0.343807,0,-0.06089696288108826,0.10196611285209656,0.18124918639659882,0.15450483020300002,0.010857850277769747
3.178699,0.045088,2.116199,0.046307,0.021851,0.985754,0.987083,0.134361,0.126046,0.245457,0,-0.04915414750576019,0.10341427475214005,0.1851106435060501,0.16557199541900003,0.019204118972170534
3.226917,0.048218,2.121626,0.11395,0.042731,1.073241,1.080119,0.084881,0.07229,0.23721,0,-0.041093602776527405,0.10154253989458084,0.1882437765598297,0.17700978719900004,0.028280857390332405
3.26691,0.039993,2.125826,0.128739,0.07648,1.014266,1.02526,-0.312487,0.31908,0.253398,0,-0.05741395056247711,0.11462423950433731,0.19216185808181763,0.18714393341300004,0.03596598658059854
3.318285,0.051376,2.135044,0.138679,0.04953,0.933115,0.944664,-0.151219,0.091838,0.209722,0,-0.06305477023124695,0.11325402557849884,0.19321781396865845,0.19791861088500004,0.04589274499105234
3.369934,0.051649,2.143747,0.126557,0.034477,0.938964,0.948082,-0.077609,-0.112802,0.313569,0,-0.06392994523048401,0.09966088086366653,0.2004547417163849,0.21411413616600003,0.0562460319459619
3.425064,0.055129,2.153539,0.144498,0.034234,0.976981,0.988202,-0.179624,-0.060268,0.224382,0,-0.07088665664196014,0.09004431217908859,0.20189349353313446,0.22648409144400003,0.06737621835095008
3.464913,0.039849,2.15872,0.101585,0.019666,0.973569,0.979052,0.019352,-0.063472,0.169517,0,-0.0654606968164444,0.08081353455781937,0.19994673132896423,0.23323917437700004,0.07534389564767797
3.510422,0.045509,2.16161,0.059642,0.033748,1.065686,1.067887,-0.046736,-0.218934,0.107316,0,-0.06433482468128204,0.06279037892818451,0.19437704980373383,0.23812301822100004,0.0841898008071961
3.559933,0.049511,2.158246,0.031033,0.026464,1.135871,1.136603,-0.053528,-0.287227,-0.036552,0,-0.06368504464626312,0.04174496978521347,0.18049204349517822,0.23631329214900004,0.09312614237268586
3.599422,0.039488,2.151135,0.015032,0.015782,1.126123,1.126334,-0.021763,-0.350452,-0.011507,0,-0.06116444617509842,0.01816379651427269,0.16894793510437012,0.23585890373300003,0.09979755843408723
3.639384,0.039963,2.145483,-0.005677,0.000971,1.110039,1.110054,-0.071853,-0.044103,0.023618,0,-0.061807096004486084,0.01442000363022089,0.16020996868610382,0.23680274986700003,0.10620002941269
3.685141,0.045757,2.139198,-0.080222,-0.062719,1.048628,1.05356,0.335793,-0.241616,-0.132028,0,-0.03790166229009628,-0.0009739873930811882,0.14263935387134552,0.23076154467100005,0.11272677832778115
3.730436,0.045295,2.126917,0.003152,-0.005066,1.002569,1.002587,0.251493,-0.208018,-0.146078,0,-0.020502187311649323,-0.01342223770916462,0.12528060376644135,0.22414494166100005,0.11840136327538212
3.77021,0.039774,2.115766,0.06837,-0.012303,0.991602,0.994033,0.020576,-0.028231,-0.137484,0,-0.018032437190413475,-0.01431258674710989,0.10948237031698227,0.21867665304500006,0.12275591507236977
3.814357,0.044147,2.098233,0.01091,-0.036908,0.891687,0.892517,0.139084,-0.166897,-0.306999,0,-0.008586183190345764,-0.023486364632844925,0.08444240689277649,0.20512356819200006,0.12648379400946516
3.866429,0.052072,2.08325,0.119768,-0.081052,0.881208,0.892996,0.203836,-0.107949,0.014927,0,0.004185107536613941,-0.028564445674419403,0.08026298880577087,0.20590084693600005,0.13066324836255927
3.908215,0.041786,2.077533,0.050671,-0.032565,0.950905,0.952811,0.078914,-0.188889,0.063491,0,0.008677944540977478,-0.03820344805717468,0.0792546272277832,0.20855388186200005,0.13397498221589943
3.953338,0.045122,2.075721,0.077583,0.001457,0.929216,0.93245,-0.087529,0.001375,0.215958,0,0.0028938399627804756,-0.03582393378019333,0.08747343719005585,0.21829833873800006,0.13792195864878912
3.99507,0.041732,2.076465,0.042186,0.004127,0.91825,0.919228,0.009228,-0.038891,0.131401,0,0.0032746572978794575,-0.0360083281993866,0.09011441469192505,0.22378196527000005,0.14168261340271254
4.040268,0.045198,2.075668,0.079037,0.001214,0.926292,0.929658,-0.013486,0.076046,0.155234,0,0.002266990952193737,-0.02927151694893837,0.09402946382761002,0.23079823160200005,0.14593255710879285
4.081796,0.041528,2.076073,0.106434,0.01044,0.918981,0.925183,-0.047694,0.179893,0.211434,0,-0.0007366987410932779,-0.016696400940418243,0.10108790546655655,0.23957866275400005,0.150130535647008
4.126806,0.045011,2.079331,0.139164,0.027921,0.894855,0.906042,0.04699,0.138965,0.288708,0,0.0021326534915715456,-0.007337961345911026,0.11236771941184998,0.25257369854200007,0.1551883190654548
4.168744,0.041938,2.082201,0.134315,0.026707,0.948224,0.958062,0.072951,0.115753,0.207768,0,0.006390274502336979,6.230641156435013e-05,0.11810321360826492,0.26128707292600006,0.1601413316377582
4.213861,0.045117,2.0835,0.095524,-0.000241,1.012317,1.016814,0.345397,-0.169827,0.084068,0,0.026771411299705505,-0.010151463560760021,0.11605700850486755,0.2650799688820001,0.16537747569047231
4.25535,0.041489,2.078482,0.09116,0.031077,1.154392,1.158403,0.200928,-0.241604,0.012597,0,0.037241704761981964,-0.024066390469670296,0.10983699560165405,0.26560260581500006,0.16993450280098935
4.29332,0.03797,2.070808,0.108373,0.036176,1.07714,1.083182,-0.018126,0.039103,-0.067443,0,0.03391300514340401,-0.020268654450774193,0.09917894005775452,0.26304179510500003,0.1737003271549823
4.342043,0.048723,2.064315,0.082432,0.014082,1.102241,1.105409,0.067636,-0.133484,-0.011858,0,0.03594042360782623,-0.027075134217739105,0.09250342845916748,0.262464037771,0.1782073716997983
4.380174,0.038131,2.065171,0.091645,0.012625,1.120762,1.124573,0.237993,0.191469,0.258949,0,0.04808775708079338,-0.013936333358287811,0.10251007974147797,0.27233802209,0.1821161835504206
4.428995,0.048821,2.0735,-0.038753,0.007769,1.080308,1.081031,0.311908,-0.249576,0.160905,0,0.06394852697849274,-0.028102893382310867,0.10602075606584549,0.28019356509500004,0.18729222288231126
4.466987,0.037992,2.074121,0.016971,0.058999,0.937745,0.939753,0.039099,-0.092529,0.082225,0,0.06245458498597145,-0.031976159662008286,0.10459017008543015,0.283317457295,0.19126581262419692
4.509645,0.042658,2.073605,0.02279,0.042246,0.90314,0.904415,-0.121688,-0.022993,0.010962,0,0.051384035497903824,-0.031436096876859665,0.09896129369735718,0.28378507429100003,0.19548730349073878
4.552075,0.04243,2.071514,0.052853,0.008741,0.87341,0.875051,-0.051076,-0.052211,0.085621,0,0.04522420093417168,-0.03268507122993469,0.09815928339958191,0.28741797332100005,0.19965220188538305
4.597085,0.04501,2.071962,0.040731,0.012382,0.916788,0.917775,-0.105975,-0.081717,0.117719,0,0.036134205758571625,-0.03563283756375313,0.0993352010846138,0.29271650551100004,0.20412327928620153
4.638544,0.041459,2.071724,0.053581,0.024279,0.918493,0.920375,-0.325135,0.074718,0.057221,0,0.014414962381124496,-0.02899862453341484,0.09680332243442535,0.29508883095000005,0.20813664823101036
4.683506,0.044962,2.068414,0.080007,-0.001447,0.822233,0.826118,-0.216096,0.140692,-0.058233,0,0.0005568182095885277,-0.018796954303979874,0.08748265355825424,0.292470558804,0.21207004330029658
4.725267,0.041761,2.060986,0.093584,-0.01568,0.871216,0.876368,-0.083843,0.108316,-0.185598,0,-0.004517231602221727,-0.011155025102198124,0.0710652619600296,0.284719800726,0.21503779970500939
4.763266,0.037998,2.048249,0.115404,0.001457,0.948224,0.955222,-0.165088,0.122977,-0.21156,0,-0.014170613139867783,-0.003091118298470974,0.054074063897132874,0.276680943846,0.21709250598497265
4.811792,0.048527,2.03516,0.123647,0.013354,0.967233,0.975196,-0.20174,0.117784,-0.313574,0,-0.025447126477956772,0.0041757915169000626,0.03197137266397476,0.26146413834800003,0.21864398078623734
4.850478,0.038686,2.013822,0.107404,0.000243,0.973569,0.979475,-0.101558,0.042037,-0.495918,0,-0.030022844672203064,0.006451974157243967,0.00023512542247772217,0.24227905460000004,0.21865307684833132
4.899172,0.048694,1.991529,0.107404,-0.036425,1.063493,1.069523,0.10583,-0.223384,-0.563418,0,-0.021855495870113373,-0.00736555689945817,-0.033651191741228104,0.21484397850800005,0.21701446571768396
4.937279,0.038108,1.964663,0.107646,-0.004825,1.189241,1.194112,-0.343156,-0.031878,-0.650161,1,-0.04117178916931152,-0.008839222602546215,-0.07071519643068314,0.19006764312000005,0.21431965101210348
4.986123,0.048844,1.937664,0.070309,-0.016162,1.073972,1.076392,-0.291843,0.150466,-0.544176,0,-0.05624190717935562,0.0007380573078989983,-0.0991792157292366,0.16348791057600004,0.20947534139902466
5.031523,0.0454,1.91357,0.045337,-0.099626,1.045703,1.051416,0.238999,0.197808,-0.596099,0,-0.03849230706691742,0.01258571445941925,-0.12905356287956238,0.13642501597600004,0.20361630964429253
5.073282,0.041758,1.888833,-0.017032,-0.0,1.214098,1.214217,0.31719,-0.074638,-0.778137,0,-0.01710902899503708,0.007341908756643534,-0.168075829744339,0.10393157113000004,0.19659779914582842
5.118554,0.045273,1.85629,0.087038,-0.013991,1.092737,1.096287,-0.062158,0.190477,-0.72713,0,-0.019817329943180084,0.018351811915636063,-0.20168562233448029,0.07101221464000004,0.1874668859658795
5.160253,0.041699,1.833159,0.0674,-0.061995,0.892174,0.896862,0.103998,0.00508,-0.58266,0,-0.012373674660921097,0.017553923651576042,-0.22458942234516144,0.04671587530000004,0.1781017316435086
5.205708,0.045455,1.813838,0.078795,-0.056447,0.885838,0.891125,0.149507,-0.05448,-0.342285,0,-0.0026415688917040825,0.01322331465780735,-0.23166516423225403,0.031157310625000042,0.16757139160333148
5.247419,0.041712,1.805143,0.071037,-0.030636,0.936771,0.93996,-0.016954,0.175511,-0.237216,0,-0.003502017818391323,0.022979889065027237,-0.23199887573719025,0.021262556833000042,0.1578942544985818
5.292484,0.045064,1.798817,0.053823,-0.040043,0.901922,0.904413,-0.052869,0.136719,-0.097188,0,-0.006469910964369774,0.029817771166563034,-0.2238941788673401,0.016882876801000042,0.147804687222104
5.334113,0.041629,1.797173,0.037337,-0.04728,0.889493,0.891531,0.053985,0.208557,-0.116586,0,-0.0028354227542877197,0.040563393384218216,-0.21744291484355927,0.012029518207000042,0.13875275612008148
5.372961,0.038848,1.791838,0.02085,-0.032565,0.889006,0.889847,0.226249,0.072334,-0.158735,0,0.010936899110674858,0.042473409324884415,-0.2139134556055069,0.005862980927000042,0.13044264619671875
5.415625,0.042664,1.788511,0.080734,0.007284,0.913863,0.917451,-0.061744,0.131234,-0.0363,0,0.006567398086190224,0.04780960455536842,-0.20323552191257477,0.004314277727000042,0.12177180588984066
5.464479,0.048854,1.790204,0.130193,-0.031601,0.816141,0.827064,0.069343,-0.005713,-0.002955,0,0.01034140307456255,0.04459188133478165,-0.19119486212730408,0.004169914157000042,0.11243117209547335
5.502979,0.038501,1.788599,0.108131,-0.012785,0.845141,0.852126,0.070237,-0.068928,-0.134084,0,0.013942265883088112,0.037767183035612106,-0.18776141107082367,-0.0009924539269999585,0.10520217000783556
5.551562,0.048582,1.787458,0.173834,-0.030153,0.932628,0.949169,0.074777,-0.108104,0.065089,0,0.01759958826005459,0.02899755723774433,-0.17256030440330505,0.0021696998710000414,0.0968188452993142
5.589581,0.03802,1.791748,0.120496,-0.026294,1.099073,1.105971,0.069916,-0.148329,0.00874,0,0.020744796842336655,0.018336866050958633,-0.16166071593761444,0.0025019946710000416,0.0906725048793661
5.638378,0.048797,1.792459,0.124375,0.006555,1.167795,1.174418,-0.164888,-0.008804,0.06303,0,0.009584743529558182,0.016705185174942017,-0.14815254509449005,0.005577669581000042,0.08344310513639026
5.676602,0.038224,1.79606,0.096251,0.00437,1.156098,1.160106,-0.143498,-0.011959,0.059268,0,0.0003815656527876854,0.014981923624873161,-0.1356826275587082,0.007843129613000042,0.0782567723805862
5.725102,0.0485,1.79756,0.047762,0.013354,1.162921,1.163978,0.063232,0.083911,0.101443,0,0.004160068929195404,0.019125869497656822,-0.12142688035964966,0.012763115113000042,0.0723675686831432
5.763167,0.038065,1.804775,0.024245,0.01651,1.187778,1.188141,0.449604,-0.088047,0.285314,1,0.030939701944589615,0.012682746164500713,-0.09697403758764267,0.023623592523000045,0.06867625194236958
5.804676,0.041509,1.815874,-0.05307,0.1078,1.140257,1.146571,-0.050389,-0.056588,0.054407,0,0.026050303131341934,0.008518259972333908,-0.08787316083908081,0.025881972686000045,0.06502872490910018
5.850003,0.045328,1.818058,0.032973,0.087891,0.847334,0.852518,0.023274,0.030875,0.041041,0,0.025883395224809647,0.009862324222922325,-0.08012297004461288,0.027742279134000045,0.06139691092291797
5.891532,0.041528,1.826212,0.117344,0.088376,0.84051,0.853251,-0.011061,0.113968,0.492564,0,0.02366233617067337,0.016121050342917442,-0.04569361358880997,0.048197476926000044,0.05949934653780187
5.936597,0.045065,1.851744,0.06837,0.05997,0.866342,0.871103,-0.08803,0.027836,0.575336,0,0.016947507858276367,0.016825340688228607,-0.008357949554920197,0.07412499376600004,0.05912269554110939
5.978055,0.041459,1.873993,0.024245,0.033748,0.854401,0.855411,0.057967,0.012564,0.544487,0,0.019413556903600693,0.01656915247440338,0.024878524243831635,0.09669888029900005,0.0601541342777344
6.023616,0.04556,1.898358,0.052611,0.003156,0.85562,0.857241,0.142877,0.015313,0.475765,0,0.026836052536964417,0.01649363338947296,0.05198535695672035,0.11837473369900005,0.06252258714068258
6.065296,0.041681,1.915718,0.049459,0.024036,0.904359,0.906029,0.223206,-0.090061,0.469962,0,0.038641612976789474,0.010087678208947182,0.07711368799209595,0.13796321982100004,0.06573676276988114
6.110324,0.045027,1.936896,0.144013,0.054871,0.984292,0.996283,-0.129875,0.117328,0.51089,0,0.02851056680083275,0.01653485745191574,0.10319187492132187,0.16096706385100004,0.0703831833219635
6.151954,0.04163,1.955499,0.131163,0.054143,0.916544,0.927463,-0.293892,0.09106,0.305639,0,0.009128054603934288,0.021015232428908348,0.11536278575658798,0.17369081542100004,0.07518573609301026
6.190282,0.038327,1.967809,0.166075,0.005827,0.841973,0.858215,-0.075813,-0.014008,0.311442,0,0.00402148487046361,0.018909672275185585,0.12715086340904236,0.18562745295500005,0.08005904723488862
6.239053,0.048771,1.978638,0.16947,0.010197,0.956754,0.971701,-0.002204,0.008594,0.219507,0,0.003647215198725462,0.018289504572749138,0.13270321488380432,0.19633302885200005,0.08653111572798663
6.277194,0.038141,1.986305,0.13286,0.008983,1.107846,1.11582,0.024674,-0.219565,0.175525,0,0.004911324009299278,0.0039899349212646484,0.1352776139974594,0.20302772787700005,0.09169073920346374
6.325816,0.048622,1.992533,0.121223,0.02695,1.161703,1.168321,-0.021751,-0.16367,0.155672,0,0.0033084123861044645,-0.006089609116315842,0.1365036964416504,0.21059681186100004,0.09832782193184966
6.363993,0.038177,1.992443,0.047519,0.077451,1.18461,1.18809,-0.248993,0.025698,-0.107001,1,-0.01185968890786171,-0.004178570583462715,0.1218644455075264,0.20651183468400006,0.1029802408679905
6.413223,0.04923,1.988698,0.099403,0.034234,1.081039,1.086139,-0.130791,0.088312,0.062515,0,-0.01900971680879593,0.001381867565214634,0.11829641461372375,0.20958944813400004,0.10880397335942413
6.458487,0.045265,1.991449,0.082917,-0.012785,1.094686,1.097896,0.252222,0.084036,0.175219,0,-0.0027035437524318695,0.00635094940662384,0.12171854078769684,0.21752073616900006,0.11431356310817922
6.500453,0.041965,1.998403,0.025457,0.033263,1.152199,1.15296,0.142266,-0.020728,0.207901,0,0.006011877208948135,0.004722990561276674,0.12689974904060364,0.22624530163400006,0.11963891107666816
6.545589,0.045137,2.007365,0.030063,0.027193,1.040829,1.041618,0.065908,0.035777,0.30289,0,0.00961277075111866,0.0065899258479475975,0.13748010993003845,0.23991684756400006,0.1258443507985803
6.587226,0.041637,2.018623,-0.01012,0.036419,0.973325,0.974059,0.059188,-0.118466,0.328241,0,0.012593182735145092,-0.0009283083491027355,0.14894846081733704,0.25358381808100006,0.13204611786163176
6.632551,0.045325,2.033114,0.007273,0.039332,0.929216,0.930077,-0.01717,-0.007289,0.445833,0,0.01080385036766529,-0.0013107066042721272,0.16679686307907104,0.27379119880600006,0.13960618568069066
6.674212,0.041661,2.048959,-0.007652,0.04783,0.902166,0.903465,-0.13354,0.078232,0.460493,0,0.002126045525074005,0.0034713195636868477,0.1844535768032074,0.29297579767900006,0.1472907061438891
6.719421,0.045209,2.064287,-0.021968,0.031563,0.877065,0.877908,-0.070621,0.036388,0.345956,0,-0.0022474322468042374,0.005450236611068249,0.19416293501853943,0.3086161224830001,0.15606861827314222
6.761043,0.041622,2.076152,0.021093,0.015782,0.868292,0.868691,0.126994,-0.231782,0.502032,0,0.005522430874407291,-0.008811922743916512,0.21267171204090118,0.32951169838700006,0.1649204402717086
6.799112,0.038069,2.098231,0.109343,0.066282,0.905821,0.914801,-0.011672,0.168029,0.703312,0,0.0044887191615998745,0.0018195724114775658,0.24216850101947784,0.3562860829150001,0.1741395529370191
6.847921,0.048809,2.125046,0.107161,0.032049,0.896804,0.903753,0.079347,-0.001791,0.836786,0,0.0089891217648983,0.001602508476935327,0.2779163122177124,0.3971287707890001,0.18770437022005343
6.886099,0.038178,2.151772,0.104252,0.022337,0.940913,0.946935,0.033226,0.078538,0.637339,0,0.010446217842400074,0.006227791775017977,0.2995244264602661,0.4214610991310001,0.19913961377345346
6.93471,0.048611,2.173236,0.199291,-0.011579,0.928485,0.949703,0.082707,0.000958,0.759512,0,0.014790462329983711,0.005910977255553007,0.327178418636322,0.4583817369630001,0.2150440838817837
6.972888,0.038177,2.196988,0.17747,-0.018092,0.95846,0.97492,0.202131,-0.112663,0.640699,0,0.026053182780742645,-0.001217569224536419,0.3460269570350647,0.48284170268600013,0.22825435502051136
7.021846,0.048959,2.217432,0.240021,0.000971,1.03035,1.057938,-0.023889,0.049827,0.769897,0,0.023050710558891296,0.0018511780072003603,0.3715095818042755,0.5205350899090001,0.2464430926360669
7.06002,0.038174,2.240521,0.152498,0.007041,1.032787,1.044009,0.005127,-0.087007,0.563119,0,0.021973155438899994,-0.0034908850211650133,0.38302895426750183,0.5420315946150001,0.2610648399362745
7.108778,0.048758,2.252405,0.093584,0.018209,1.111989,1.116068,0.070795,-0.226284,0.5002,0,0.02490827441215515,-0.016884978860616684,0.39007315039634705,0.566420346215,0.28008402660329956
7.146834,0.038056,2.270977,0.104979,0.073323,1.180224,1.18715,-0.101775,0.262714,0.708505,1,0.01729220524430275,-7.577426731586456e-05,0.4092169404029846,0.593383212495,0.29565718648727557
7.195441,0.048607,2.291644,-0.026658,0.070895,1.147325,1.149822,0.110501,0.063572,0.768064,0,0.022895822301506996,0.0037506644148379564,0.4307904541492462,0.630716499343,0.316596618092108
7.233918,0.038477,2.319956,-0.021475,0.117512,1.059838,1.066549,0.244891,0.03089,0.957127,0,0.03624194487929344,0.00538225332275033,0.4624332785606384,0.667543874922,0.33438966335128567
7.282632,0.048714,2.353525,0.019881,0.172383,1.001838,1.016755,0.161814,0.213539,1.313261,0,0.043791208416223526,0.01789642497897148,0.5135841965675354,0.731518071276,0.3594084039028766
7.320716,0.038084,2.392484,-0.043443,0.142276,1.011829,1.022706,0.054301,-0.003929,1.326089,0,0.044423047453165054,0.016584303230047226,0.5624311566352844,0.782020844752,0.38082803207217475
7.36234,0.041624,2.43952,0.000242,0.084249,0.900216,0.90415,-0.064512,0.058379,1.190783,0,0.03787398338317871,0.01909695751965046,0.6002070307731628,0.831585996344,0.4058110495210769
7.407541,0.045201,2.468295,0.008486,0.051472,0.812242,0.813915,0.052163,-0.137098,0.926278,0,0.03873302415013313,0.009706676937639713,0.6198101043701172,0.873454688222,0.43382708604871056
7.449759,0.042218,2.489453,0.080007,0.040546,0.863418,0.868064,0.071711,-0.026531,0.802578,0,0.04071562737226486,0.007528104819357395,0.6307979226112366,0.907337926226,0.46045811274551174
7.492273,0.042514,2.507849,0.159287,0.034962,0.868536,0.883713,-0.082227,0.136264,0.8432,0,0.03332444280385971,0.015267575159668922,0.6435673236846924,0.943185731026,0.48781873394464276
7.537688,0.045415,2.527722,0.164621,0.001457,0.855376,0.871074,-0.032442,0.087395,0.748822,0,0.029370632022619247,0.019603801891207695,0.6498951315879822,0.977193482156,0.517333721345711
7.579463,0.041775,2.543243,0.190562,0.003156,0.890468,0.910636,-0.163167,0.131378,0.886572,0,0.017795465886592865,0.026323551312088966,0.6641238927841187,1.014230027456,0.5450774969667675
7.624732,0.045269,2.572865,0.187896,0.090076,1.002325,1.023755,-0.529991,-0.23789,1.486136,0,-0.015136893838644028,0.010439302772283554,0.7135424017906189,1.0815059180400002,0.5773788479534271
7.666335,0.041603,2.619902,0.115889,0.012625,1.106384,1.112508,-1.388562,0.907176,1.452844,0,-0.09770581126213074,0.0643502026796341,0.757988452911377,1.141948586972,0.6089134415598991
7.709451,0.043116,2.63853,-0.162171,-0.172477,0.822964,0.85634,0.060715,-0.560122,0.294643,0,-0.08818171173334122,0.026807572692632675,0.7301325798034668,1.1546524145600001,0.6403938378707054
7.753112,0.043661,2.632156,0.044368,-0.019781,1.042779,1.04391,0.816661,-1.068973,0.300752,0,-0.03378349170088768,-0.03906962648034096,0.704318642616272,1.1677835476320002,0.6711450941259745
7.79693,0.043818,2.625095,0.018668,0.104644,1.294761,1.299117,0.24031,-0.11419,-0.107306,1,-0.017305271700024605,-0.04358578473329544,0.6555246114730835,1.1630816133240003,0.699868871551502
7.841067,0.044137,2.603417,0.23396,-0.227958,1.043754,1.093674,0.021925,0.079454,0.344429,0,-0.014946787618100643,-0.0361887589097023,0.6368218660354614,1.1782836760970004,0.7279762782527092
7.895739,0.054672,2.600535,-0.069361,-0.042456,1.095661,1.098675,0.403411,-0.08945,-0.054466,0,0.010204453952610493,-0.039390768855810165,0.595262348651886,1.1753059109450004,0.7605204613782051
7.939588,0.043849,2.579237,0.039276,-0.036908,1.08372,1.085059,0.452891,-0.105638,0.12299,0,0.03681831434369087,-0.043373484164476395,0.5668697953224182,1.1806988994550003,0.7853771350332978
7.983565,0.043977,2.577324,0.132618,0.007041,1.093711,1.101745,-0.004036,0.209568,0.470573,0,0.03436219319701195,-0.02816690132021904,0.5610805153846741,1.2013932882760003,0.8100517728583696
8.031633,0.048068,2.57872,0.005819,-0.10421,0.978687,0.984236,-0.0245,0.255078,0.28884,0,0.03082345798611641,-0.011138508096337318,0.5447136759757996,1.2152772493960002,0.8362350698351744
8.075202,0.04357,2.578146,0.015517,-0.09046,0.882183,0.886944,0.424486,-0.223535,0.389022,0,0.054490044713020325,-0.02390756830573082,0.5353536605834961,1.2322269379360002,0.8595604288267973
8.118683,0.043481,2.585705,0.084129,0.004856,0.962115,0.965799,0.021315,0.280429,0.69079,0,0.05249559506773949,-0.00561116449534893,0.5446983575820923,1.2622631779260003,0.8832444581128243
8.162227,0.043544,2.601324,0.043883,0.011654,0.869998,0.871182,-0.113992,0.200711,0.596716,0,0.042486533522605896,0.006792712956666946,0.5478255748748779,1.2882465794300002,0.907098974945176
8.205718,0.043491,2.611402,0.017941,-0.020745,0.808099,0.808564,0.200604,-0.242167,0.584804,0,0.05199239403009415,-0.008174490183591843,0.5500487089157104,1.3136802901940001,0.9310211433446292
8.249328,0.043611,2.622734,0.097706,0.058513,0.89193,0.899172,0.034754,0.18941,0.649556,0,0.05095604062080383,0.003704087808728218,0.5560309886932373,1.34200807691,0.9552702107925299
8.292981,0.043653,2.634457,0.061824,-0.024605,0.89193,0.894409,0.13127,0.061433,0.586332,0,0.0557844340801239,0.007174690719693899,0.5578526854515076,1.367603227706,0.9796221540705446
8.336601,0.04362,2.64257,0.06934,-0.036908,0.914107,0.917476,0.191746,0.010121,0.483401,0,0.0639583021402359,0.007351819891482592,0.5533767342567444,1.388689179326,1.0037604472188237
8.380362,0.043761,2.649428,0.14668,-0.002653,0.929947,0.941448,0.13463,0.165891,0.465686,0,0.06820701062679291,0.016883034259080887,0.5481048822402954,1.409068064372,1.0277460649705412
8.431808,0.051446,2.659365,0.185229,-0.022675,0.954073,0.972152,0.199687,-0.020117,0.546625,0,0.07611145079135895,0.014658629894256592,0.5480158925056458,1.437189734122,1.0559392905763867
8.476456,0.044647,2.662436,0.104252,-0.002895,1.060081,1.065199,0.19083,-0.034167,0.226532,0,0.08300821483135223,0.011723282746970654,0.5286886096000671,1.4473037083259999,1.079543650929201
8.521243,0.044787,2.662359,0.124375,0.000486,1.122955,1.129822,0.069878,-0.150537,0.296171,0,0.08221884071826935,0.0019683605059981346,0.5147098898887634,1.4605683189029999,1.102595962767649
8.571654,0.050412,2.660848,0.052853,0.020152,1.201425,1.202756,0.097367,0.106027,0.293116,1,0.08312953263521194,0.008224260061979294,0.501387894153595,1.475344882695,1.12787192928772
8.614995,0.043341,2.666199,0.024245,0.038118,1.227501,1.228332,0.152651,0.264241,0.598854,0,0.0873090922832489,0.023615725338459015,0.5072474479675293,1.501299813909,1.1498565409300807
8.658322,0.043327,2.678598,-0.091082,0.06871,1.184367,1.189849,-0.014421,0.03761,0.418344,0,0.08119318634271622,0.024457046762108803,0.5019026398658752,1.519425404397,1.1716024766075495
8.702353,0.04403,2.683347,-0.056032,0.030835,0.94725,0.949406,0.052163,-0.121521,0.287313,0,0.0794479250907898,0.01568099483847618,0.48900172114372253,1.532075795787,1.1931332223895075
8.753561,0.051208,2.68492,0.011153,0.047102,0.913376,0.914657,0.178918,-0.240334,0.480041,0,0.08542796224355698,0.0002896348014473915,0.48846301436424255,1.556657735315,1.2181464364290715
8.797889,0.044329,2.703956,0.057702,0.069924,0.984048,0.988215,-0.034274,0.074262,0.738132,0,0.07823160290718079,0.004736777860671282,0.5034728646278381,1.589378388743,1.240464885045159
8.849309,0.05142,2.722394,0.000485,0.013354,0.925317,0.925413,0.101033,-0.153286,0.673991,0,0.07960239797830582,-0.0047633894719183445,0.5137242674827576,1.624035005963,1.2668805868791224
8.892744,0.043434,2.73207,-0.016785,0.023551,0.935552,0.935999,0.067129,-0.221703,0.378332,0,0.07885251194238663,-0.01780557632446289,0.5055845975875854,1.640467478051,1.2888401482907417
8.93631,0.043566,2.731588,0.076613,0.043217,0.883645,0.888012,-0.061763,0.075483,0.244552,0,0.07039885222911835,-0.012197162955999374,0.48989158868789673,1.651121630483,1.3101827652435185
8.979797,0.043488,2.727478,0.072249,0.020637,0.839536,0.842891,0.038724,-0.199101,0.197821,0,0.06849459558725357,-0.023433629423379898,0.47233259677886963,1.659724470131,1.330723565212238
9.024457,0.044659,2.718751,0.101585,0.01481,0.906796,0.912589,0.007386,0.002771,0.011924,0,0.06482081115245819,-0.021858233958482742,0.44465330243110657,1.660256984047,1.3505813370455089
9.075352,0.050895,2.705923,0.110313,-0.013509,0.932384,0.938984,0.103988,-0.184471,0.056189,0,0.0671755000948906,-0.03163434565067291,0.4212992191314697,1.663116723202,1.372023360803205
9.118887,0.043535,2.693847,0.08025,0.023065,1.039854,1.043201,0.058479,-0.277017,-0.078201,0,0.06665267795324326,-0.04638649895787239,0.3912697732448578,1.6597122426670001,1.38905729038142
9.165485,0.046598,2.677148,0.070552,0.035448,1.092737,1.095585,-0.317509,-0.033282,-0.090113,0,0.04355727136135101,-0.04559867084026337,0.36232954263687134,1.6555131570930002,1.4059411224092129
9.216166,0.050682,2.660956,-0.010367,-0.000241,0.997939,0.997992,-0.119283,0.22603,-0.142648,0,0.03376748040318489,-0.02926863171160221,0.33197081089019775,1.6482834711570002,1.42276606704675
9.259797,0.04363,2.646975,-0.060475,-0.046798,1.014266,1.017145,0.303741,0.287728,0.013734,0,0.04999801144003868,-0.010211117565631866,0.31283873319625854,1.6488826855770002,1.4364152209761027
9.303426,0.043629,2.634679,-0.17081,-0.003136,1.132459,1.145273,0.432939,0.105995,-0.326518,0,0.07302003353834152,-0.003224924672394991,0.2744012475013733,1.6346370317550003,1.4483870730033401
9.346889,0.043462,2.608733,-0.070101,0.026222,1.06398,1.06661,-0.015131,0.355228,-0.556203,0,0.06772048026323318,0.018324900418519974,0.22446617484092712,1.6104633369690002,1.4581428218942765
9.390657,0.043769,2.577776,0.000727,-0.048004,0.865368,0.866698,0.133615,0.256879,-0.501836,0,0.07168199121952057,0.03266653046011925,0.1808016300201416,1.5884984770850001,1.466056328438628
9.434912,0.044255,2.550919,-0.003456,-0.048486,0.901922,0.903231,0.316569,0.018641,-0.359505,0,0.08640434592962265,0.031823329627513885,0.14831894636154175,1.5725885833100002,1.4726201834098582
9.485428,0.050516,2.535695,0.027154,0.020637,1.020602,1.021172,0.023354,0.387909,-0.149978,0,0.08261382579803467,0.05323083698749542,0.1303856372833252,1.5650122946620002,1.4792067442628627
9.537077,0.051649,2.530427,-0.034063,-0.004825,0.990628,0.991225,0.047886,0.091601,-0.044455,0,0.08052602410316467,0.05553761124610901,0.11987439543008804,1.5627162383670001,1.4853981369124314
9.580616,0.043539,2.52648,-0.042209,0.005099,1.006468,1.007366,-0.029611,0.172497,-0.214919,0,0.07390470057725906,0.06256908923387527,0.0997469574213028,1.553358880026,1.4897410196915974
9.624918,0.044302,2.519723,-0.02962,0.002428,0.968451,0.968907,-0.007792,0.102931,-0.094191,0,0.06899318099021912,0.06499560922384262,0.08808760344982147,1.5491860303440002,1.4936434766996314
9.668982,0.044064,2.517528,0.002424,0.017481,0.954073,0.954236,0.090963,0.014652,0.030876,0,0.07031398266553879,0.061969004571437836,0.08464810252189636,1.550546550408,1.4973734106891563
9.712673,0.043691,2.5191,-0.002715,0.014568,0.999401,0.999511,0.106205,0.059159,0.024829,0,0.07247171550989151,0.061800070106983185,0.08105184137821198,1.551631354247,1.5009146466908119
9.7563,0.043627,2.520592,-0.000987,0.01481,1.028401,1.028508,0.076821,-0.007581,0.026986,0,0.07273319363594055,0.05762895196676254,0.07780145853757858,1.552808672469,1.504308890922431
9.799973,0.043672,2.522591,0.005334,0.032049,1.047165,1.047669,0.095434,-0.026707,0.05543,0,0.07409794628620148,0.05255876109004021,0.07645650953054428,1.555229411429,1.507647899606649
9.851054,0.051082,2.526225,-0.001728,0.051472,1.095174,1.096384,0.070197,0.10944,0.213751,0,0.0738634243607521,0.055978402495384216,0.0847105160355568,1.566148240011,1.5119750821867772
9.894386,0.043332,2.536801,-0.007158,0.05827,1.034493,1.036158,-0.100953,0.015108,0.116164,0,0.06335364282131195,0.05352131649851799,0.08660146594047546,1.571181858459,1.51572769690891
9.948289,0.053903,2.539067,-0.020241,0.046616,0.93214,0.933525,-0.052779,-0.233154,-0.085468,0,0.056371867656707764,0.03628668934106827,0.07625682651996613,1.566574876855,1.5198381686288156
9.999119,0.05083,2.532058,-0.022462,0.043217,0.887057,0.888393,0.074892,-0.343415,-0.096464,0,0.05748527869582176,0.013459412381052971,0.06587302684783936,1.561671611735,1.5231864945834912
10.043535,0.044416,2.528419,0.035155,0.051958,0.940182,0.942273,0.058786,0.047435,-0.076646,0,0.057563476264476776,0.015501989983022213,0.057304929941892624,1.558267302999,1.5257317503517902
10.087651,0.044116,2.525558,0.024972,0.053657,0.995258,0.997016,0.003808,0.189767,-0.070232,0,0.05433175340294838,0.02597862482070923,0.04963754117488861,1.555168948087,1.5279215601182616
10.138716,0.051065,2.525711,0.049217,0.037633,1.006955,1.00886,0.000876,0.139557,0.038783,0,0.05111804977059364,0.03280683979392052,0.04898497834801674,1.5571494019819998,1.530422978037603
10.181925,0.043209,2.530042,0.047519,0.033748,1.033275,1.034917,-0.095734,-0.020825,0.064658,0,0.042289454489946365,0.029582548886537552,0.04992722347378731,1.5599432095039998,1.532580283436682
10.225593,0.043668,2.531177,0.048974,0.046131,0.974787,0.977106,-0.010489,0.038944,-0.056589,0,0.03911646828055382,0.030145348981022835,0.043523576110601425,1.5574720810519997,1.5344808709582798
10.2694,0.043808,2.529562,0.047519,0.069196,0.979905,0.983494,-0.035169,0.042696,-0.013834,0,0.03465050086379051,0.030899880453944206,0.04007529839873314,1.5568660411799997,1.5362364896305314
10.313186,0.043786,2.528749,0.038549,0.076722,0.987216,0.990943,-0.04243,0.094189,-0.031428,0,0.030016500502824783,0.03470475599169731,0.035776592791080475,1.5554899347719997,1.5378030035224817
10.364249,0.051063,2.534053,0.071764,0.076237,0.987216,0.992752,0.001254,0.113932,0.188604,0,0.028287328779697418,0.039467815309762955,0.044964421540498734,1.5651206208239996,1.5400990217796042
10.415475,0.051226,2.543137,0.000242,0.038118,0.999888,1.000615,0.018053,0.114238,0.156839,0,0.02767205238342285,0.04396292194724083,0.05169020593166351,1.5731548554379997,1.5427469042686597
10.459469,0.043994,2.548233,-0.032335,-0.001447,1.005493,1.006014,0.012536,0.112532,-0.051711,0,0.026762088760733604,0.04808522388339043,0.04547383263707161,1.5708798817039997,1.544747480061695
10.504556,0.045087,2.547395,0.004364,0.018938,1.017678,1.017864,0.01487,-0.003679,-0.098821,0,0.026047147810459137,0.044973213225603104,0.036798976361751556,1.5664243392769996,1.5464066355089172
10.54822,0.043664,2.54462,0.07637,0.06264,0.997695,1.002572,-0.017603,0.001572,-0.01802,0,0.02342294529080391,0.0423639751970768,0.03350331634283066,1.5656375139969996,1.5478695243137106
10.591583,0.043362,2.546133,0.084856,0.0539,0.976493,0.981654,0.037016,0.008711,0.064274,0,0.024240145459771156,0.04034079238772392,0.03535321727395058,1.5684245631849996,1.5494025105211437
10.634928,0.043345,2.549984,0.020365,0.043703,1.005006,1.006162,0.056488,-0.109063,0.057235,0,0.02617885358631611,0.03135878965258598,0.03666872903704643,1.5709054142599996,1.5509919165812545
10.678399,0.043471,2.5516,-0.000247,0.019909,0.93872,0.938931,-0.026461,-0.062457,-0.03016,0,0.02301419898867607,0.025718681514263153,0.03265105560421944,1.5695943288999996,1.5524112906194254
10.72279,0.044391,2.549801,0.013335,0.023308,0.976006,0.976375,-0.026521,0.038747,-0.071679,0,0.02003619447350502,0.026501931250095367,0.02637883834540844,1.5664124264109995,1.5535822736324165
10.773434,0.050644,2.54753,0.035882,0.032534,0.992334,0.993515,-0.01748,0.031335,-0.072416,0,0.017780758440494537,0.026792490854859352,0.02043939381837845,1.5627449905069994,1.5546174062929545
10.817153,0.04372,2.545109,0.039761,0.054628,0.993308,0.995604,-0.012104,0.022426,-0.068916,0,0.01598411798477173,0.026529982686042786,0.015067439526319504,1.5597319829869993,1.5552761547490452
10.860853,0.0437,2.543998,0.034912,0.044431,0.985997,0.987615,0.055201,-0.003999,-0.02162,0,0.018341796472668648,0.024694612249732018,0.012861828319728374,1.5587871889869993,1.5558382166466174
10.904561,0.043708,2.543879,0.015759,0.049772,1.013779,1.015122,-0.007918,-0.040184,-0.02798,0,0.01676308363676071,0.020794175565242767,0.01040645968168974,1.5575642391469993,1.5562930621863846
10.948271,0.04371,2.543655,0.020608,0.036662,0.991846,0.992737,-0.000473,-0.036556,-0.028549,0,0.01572686806321144,0.017346341162919998,0.008064497262239456,1.5563163623569993,1.5566455613617172
10.992573,0.044302,2.543558,0.031276,0.039332,0.97625,0.977542,0.003454,0.032365,-0.015083,0,0.0149890361353755,0.01824924722313881,0.006672893650829792,1.5556481552909993,1.5569411838962361
11.036047,0.043474,2.544076,0.031276,0.045888,0.984535,0.9861,0.017647,0.045633,-0.014561,0,0.015148830600082874,0.019895531237125397,0.005396333523094654,1.5550151303769992,1.5571757840998193
11.086522,0.050475,2.543922,0.024972,0.048559,0.999401,1.000891,-0.014298,-0.00442,-0.022178,0,0.01337851770222187,0.0184337068349123,0.0037385928444564342,1.5538956958269992,1.5573644895736432
11.130364,0.043842,2.543166,0.024972,0.041275,0.997451,0.998617,-0.002349,-0.022555,-0.125336,0,0.01243299525231123,0.01596950739622116,-0.004021240398287773,1.5484007149149992,1.5571881903521014
11.173953,0.043589,2.540688,0.029578,0.044674,0.995258,0.996699,0.001941,-0.013978,-0.036221,0,0.01180222723633051,0.014169094152748585,-0.005957057233899832,1.5468218777459992,1.556928528184333
11.217697,0.043744,2.540103,0.031276,0.046373,0.98551,0.987096,-0.008855,0.001343,-0.032825,0,0.010560335591435432,0.013398002833127975,-0.00757233053445816,1.5453859809459993,1.5565972841574336
11.261871,0.044173,2.539463,0.032245,0.036419,0.989165,0.990361,0.000747,0.018311,-0.018601,0,0.009970367886126041,0.013693367131054401,-0.00823536328971386,1.5445643189729994,1.5562335034548371
11.313016,0.051145,2.53959,0.022305,0.040546,0.999888,1.000958,0.005268,-0.028386,-0.026977,0,0.009687666781246662,0.011163598857820034,-0.009362091310322285,1.5431845803079993,1.5557546792947707
11.357106,0.04409,2.539492,0.030548,0.045402,0.997939,0.999438,-0.010989,-0.025347,-0.010931,0,0.008444606326520443,0.008968619629740715,-0.009456412866711617,1.5427026325179993,1.5553377460514775
11.400944,0.043838,2.540435,0.034427,0.043703,0.980149,0.981726,-0.000737,0.034845,0.008353,0,0.007892617955803871,0.010524281300604343,-0.008385729044675827,1.5430688113319992,1.554970132461617
11.451597,0.050653,2.54147,0.021093,0.030592,1.012073,1.012755,-0.000455,-0.002489,-0.015202,0,0.007390767801553011,0.00974193587899208,-0.008795516565442085,1.5422987844259992,1.5545246131610275
11.506063,0.054466,2.541735,0.036367,0.039575,0.99209,0.993545,-0.009453,-0.011114,-0.003678,0,0.00637813750654459,0.008488098159432411,-0.008487856946885586,1.5420984584779993,1.5540623135445584
11.550717,0.044654,2.54283,0.035155,0.041518,0.993308,0.994797,-0.001517,-0.009972,-0.002755,0,0.005903489887714386,0.007378295995295048,-0.00814320333302021,1.5419754367079994,1.5536986869429257
11.598607,0.04789,2.543455,0.027154,0.04346,0.994039,0.995359,-0.005576,-0.018377,-0.012788,0,0.005213354714214802,0.005829914007335901,-0.008422443643212318,1.5413630193879995,1.5532953361168522
11.642312,0.043705,2.543538,0.030306,0.042246,0.979174,0.980553,0.003529,0.014714,-0.012575,0,0.005112092941999435,0.006364016328006983,-0.00867209117859602,1.5408134290129996,1.5529163223718916
11.686227,0.043916,2.543982,0.028366,0.044917,0.993308,0.994728,-0.008652,0.011892,-0.010145,0,0.004284609574824572,0.006696353200823069,-0.00876064132899046,1.5403679011929996,1.5525315900472876
11.730187,0.04396,2.544795,0.035882,0.051958,0.971132,0.973183,0.006876,0.021908,0.008235,0,0.004440401215106249,0.007610861677676439,-0.007738880813121796,1.5407299117929996,1.5521913888467427
11.784571,0.054384,2.546001,0.030306,0.045888,0.998426,0.999939,-0.002179,0.014221,-0.0044,0,0.004042449407279491,0.008008256554603577,-0.007538150530308485,1.5404906221929995,1.5517814340683025
11.828376,0.043805,2.546128,0.030791,0.043217,0.997207,0.998618,-0.00162,-0.015742,-0.008355,0,0.0037020286545157433,0.006580415181815624,-0.007587258704006672,1.5401246314179995,1.5514490742007734
11.871696,0.04332,2.546241,0.041943,0.043703,0.985754,0.987613,0.002785,-0.009582,-0.000824,0,0.0036468978505581617,0.005608747247606516,-0.007180658634752035,1.5400889357379994,1.5511380080687158
11.9153,0.043604,2.546547,0.036852,0.047587,0.997451,0.999265,0.008258,0.001734,-0.004367,0,0.003924112766981125,0.005375801585614681,-0.007011504378169775,1.5398985170699995,1.55083227843181
11.959097,0.043797,2.546391,0.025214,0.045159,0.996233,0.997574,-0.002215,-0.004858,-0.00281,0,0.0035550356842577457,0.004760555922985077,-0.006758914329111576,1.5397754474999994,1.5505362582609379
12.003223,0.044126,2.546182,0.032488,0.04783,0.988922,0.990611,-0.010674,0.004591,0.014712,0,0.0026996005326509476,0.0047503625974059105,-0.005468104965984821,1.5404246292119994,1.5502949726612087
12.054186,0.050963,2.547416,0.041701,0.043217,1.047165,1.048886,0.004521,0.019529,0.042693,0,0.0028091012500226498,0.005638839211314917,-0.0025727085303515196,1.5426003925709995,1.5501638597163765
12.097697,0.043512,2.54895,0.016001,0.033991,1.006468,1.007169,-0.013953,-0.080479,-0.018689,0,0.0018013807712122798,0.00046152248978614807,-0.0035416034515947104,1.5417871968029995,1.5500097574669907
12.141195,0.043498,2.548306,0.048004,0.032049,0.978687,0.980387,-0.004183,-0.036368,-0.006477,0,0.0014416058547794819,-0.0017526308074593544,-0.0037180765066295862,1.5415054602569995,1.5498480285751053
12.184668,0.043472,2.548377,0.049701,0.053172,0.98088,0.983576,-0.011678,0.023354,0.004834,0,0.0006528685335069895,-0.00024324585683643818,-0.0032039345242083073,1.5417156039049995,1.549708747133469
12.228402,0.043735,2.548663,0.041216,0.046373,0.997695,0.999622,-0.001084,0.001572,0.007242,0,0.0005484497523866594,-0.00013411513646133244,-0.0025759355630725622,1.5420323327749994,1.549596088591618
12.272058,0.043656,2.548796,0.039034,0.039575,0.990871,0.992429,-0.012431,-0.012776,0.003709,0,-0.0002318614860996604,-0.0008941323030740023,-0.002198091708123684,1.5421942528789994,1.549500128700008
12.315636,0.043578,2.5488,0.036367,0.042003,0.985266,0.986832,-0.000295,-0.003544,-0.014036,0,-0.0002356573095312342,-0.001053439686074853,-0.002909774659201503,1.5415825920709993,1.5493733265399094
12.359301,0.043665,2.54827,0.039761,0.045159,0.99209,0.993913,-0.011142,-0.093993,-0.000874,0,-0.0008913354831747711,-0.006640871055424213,-0.002787386067211628,1.5415444288609994,1.5492516153272846
12.403226,0.043925,2.5488,0.043883,0.050501,0.996233,0.998477,-0.003937,-0.003406,0.015045,0,-0.0010744377505034208,-0.006446394138038158,-0.0017153212102130055,1.5422052804859994,1.549176269843126
12.454477,0.051251,2.550002,0.028609,0.035933,0.982829,0.983902,-0.02357,0.034183,0.036774,0,-0.002426847815513611,-0.004003796726465225,0.0005986172473058105,1.5440899847599994,1.5492069495756675
12.498665,0.044188,2.551136,0.003637,0.029135,0.998426,0.998858,-0.041461,0.067911,0.007432,0,-0.0047735413536429405,0.0003196471370756626,0.0010094331810250878,1.5444183899759993,1.5492515544090706
12.547748,0.049083,2.550931,0.052126,0.044917,0.989653,0.992042,-0.025831,0.029008,0.016463,0,-0.0060394941829144955,0.002044361550360918,0.001938485773280263,1.5452264434049994,1.5493467011062805
12.592264,0.044516,2.551552,0.082674,0.050501,0.99014,0.994868,-0.012163,0.020588,-0.039975,0,-0.0064076329581439495,0.003159186104312539,-0.0005813098978251219,1.5434469163049993,1.549320823514869
12.635749,0.043485,2.550987,0.036367,0.030106,1.021333,1.022424,-0.025533,-0.079116,0.006655,0,-0.007557430304586887,-0.0017871141899377108,-0.00014627032214775681,1.5437363089799994,1.5493144629499105
12.678974,0.043225,2.550451,0.029578,0.020637,0.985023,0.985683,0.000412,-0.04321,-0.002297,0,-0.0070783160626888275,-0.004277415573596954,-0.000275569997029379,1.5436370211549995,1.5493025514367889
12.72352,0.044546,2.550488,0.043155,0.03739,0.996233,0.997868,-0.037457,0.026959,0.108772,0,-0.008904651738703251,-0.0023995141964405775,0.006280258297920227,1.5484823786669994,1.549582311822928
12.77437,0.05085,2.55404,0.046307,0.038847,0.998913,1.00074,-0.041427,-0.007622,0.085861,0,-0.010859861969947815,-0.002713484689593315,0.011064570397138596,1.5528484105169995,1.5501449452276224
12.826664,0.052295,2.557166,0.048489,0.035205,0.984048,0.985871,-0.014382,0.069884,0.076415,0,-0.01107160933315754,0.0016510020941495895,0.014993371441960335,1.5568445329419995,1.5509290235871798
12.870214,0.043549,2.559185,0.04267,0.027436,0.993065,0.99436,-0.008725,0.089941,0.044055,0,-0.010930533520877361,0.006958906538784504,0.016740527004003525,1.5587630841369995,1.5516580567976772
12.913639,0.043425,2.559791,0.047519,0.026222,0.986485,0.987977,-0.000571,0.070888,0.036185,0,-0.010307729244232178,0.010802257806062698,0.01790950819849968,1.5603344177619995,1.552435777191197
12.957025,0.043386,2.560092,0.025942,0.02258,1.015241,1.015823,0.023734,-0.01702,-0.008081,0,-0.008261175826191902,0.009129611775279045,0.01634698547422886,1.5599838154959995,1.5531450075029818
13.011566,0.054541,2.558122,0.03273,0.021366,0.989409,0.990181,0.027767,0.021322,-0.026236,0,-0.006095198914408684,0.009862605482339859,0.013786939904093742,1.5585528778199995,1.553896960992291
13.055417,0.043851,2.55657,0.02279,0.026222,0.998426,0.99903,0.025624,0.00569,-0.02441,0,-0.004188273102045059,0.009611752815544605,0.011490578763186932,1.5574824749099996,1.5544008343616356
13.099432,0.044015,2.554954,0.054308,0.038604,0.991359,0.993595,0.032996,0.012299,-0.003812,0,-0.001952792750671506,0.009773307479918003,0.010570603422820568,1.5573146897299996,1.554866099471291
13.150074,0.050642,2.554364,0.03564,0.030106,0.993308,0.994403,0.011948,0.053794,0.008979,0,-0.0011170913930982351,0.012419786304235458,0.010474917478859425,1.5577694042479997,1.5553965702422554
13.200401,0.050327,2.552996,0.018426,0.025979,1.000376,1.000882,0.00309,0.025084,-0.036225,0,-0.0008641653694212437,0.01318114623427391,0.007667366415262222,1.5559463086729997,1.5557824457918363
13.25453,0.054129,2.551448,0.047035,0.02695,1.059838,1.061223,0.036071,-0.010773,0.009129,0,0.001356339082121849,0.011741047725081444,0.007755238097161055,1.5564404523139996,1.5562022290747977
13.304923,0.050393,2.550836,0.025457,0.029378,1.013048,1.013793,-0.020007,-0.092332,-0.04272,0,7.199705578386784e-05,0.0054842825047671795,0.0047207185998559,1.5542876633539997,1.5564401202472002
13.359035,0.054113,2.546422,0.030063,0.021609,0.975518,0.976221,0.082411,-0.010611,-0.055977,0,0.0050221337005496025,0.004516650456935167,0.0010716337710618973,1.5512585799529996,1.5564981095654538
13.409653,0.050617,2.543751,0.027154,0.04346,1.014266,1.01556,0.042923,-0.089295,0.023988,0,0.007300694938749075,-0.0011232104152441025,0.0024493420496582985,1.5524727805489997,1.5566220879119814
13.453318,0.043665,2.542292,0.040488,0.031563,0.991115,0.992444,0.089302,-0.098803,-0.044588,0,0.012230529449880123,-0.006995619274675846,-0.0003784948494285345,1.5505258455289996,1.5566055609343812
13.497028,0.04371,2.539595,0.033215,0.046131,1.006955,1.008559,-0.026521,-0.081279,-0.053156,0,0.009900826960802078,-0.011461460962891579,-0.0035514244809746742,1.5482023967689997,1.5564503281703177
13.540636,0.043608,2.536687,0.041216,0.028407,0.985266,0.986537,-0.010747,-0.031236,-0.034454,0,0.008659500628709793,-0.012650285847485065,-0.005409255623817444,1.5466999267369996,1.5562144413510743
13.58528,0.044645,2.534566,0.047762,0.040304,0.937502,0.939582,-0.041497,-0.055636,-0.019161,0,0.005644143093377352,-0.01523454301059246,-0.006235996261239052,1.5458444838919996,1.5559360352979914
13.63603,0.05075,2.533171,0.047035,0.035691,1.006468,1.008198,-0.071589,-0.070742,-0.025852,0,0.001000965479761362,-0.01857159473001957,-0.007415290456265211,1.5445324948919996,1.555559709307336
13.679379,0.043349,2.531443,0.072491,0.023794,0.996964,0.999879,0.026698,-0.01159,-0.003831,0,0.0025458449963480234,-0.018151868134737015,-0.007199806626886129,1.5443664248729996,1.555247604889867
13.722959,0.04358,2.531269,0.056975,0.032049,0.998913,1.00105,-0.053378,-0.066795,-0.041056,0,-0.0008162392769008875,-0.021076243370771408,-0.009235206060111523,1.5425772043929995,1.5548451346097671
13.767587,0.044628,2.529761,0.048247,0.023794,0.993065,0.994521,-0.024969,-0.083761,-0.019942,0,-0.002268278505653143,-0.024844788014888763,-0.009878887794911861,1.5416872328169995,1.5544042596052559
13.818369,0.050782,2.526762,0.071764,0.015053,0.995502,0.998198,0.018589,-0.120563,-0.029548,0,-0.0010143602266907692,-0.03059927001595497,-0.01106137502938509,1.5401867262809994,1.5538425408585137
13.862346,0.043978,2.524671,0.085826,0.029378,0.987703,0.99186,0.0025,-0.005545,-0.008394,0,-0.0008030805038288236,-0.029093032702803612,-0.010901015251874924,1.5398175749489993,1.5533631360097668
13.906138,0.043792,2.521858,0.051883,0.026222,0.98746,0.989169,0.00581,0.060581,-0.052439,0,-0.00040550887933932245,-0.023701921105384827,-0.013398236595094204,1.5375211662609993,1.5527764004327944
13.949695,0.043557,2.518448,0.062309,0.026222,0.999401,1.001685,-0.031131,-0.014525,-0.022074,0,-0.002252693986520171,-0.023150213062763214,-0.013919814489781857,1.5365596890429993,1.552170095073063
13.993906,0.04421,2.515577,0.071037,0.033748,0.993065,0.996174,-0.001287,-1.5e-05,-0.024408,0,-0.002194637432694435,-0.02175934799015522,-0.014550353400409222,1.5354806113629993,1.551526823949231
14.038416,0.04451,2.512919,0.068127,0.022823,1.003056,1.005626,0.027481,-0.059908,-0.039921,0,-0.0004105684347450733,-0.024052806198596954,-0.016075611114501953,1.5337037276529992,1.5508112984985245
14.082014,0.043598,2.50924,0.069824,0.021366,0.999157,1.001822,0.085273,-0.061481,-0.070165,0,0.004740640055388212,-0.026302950456738472,-0.01932740956544876,1.5306446739829993,1.54996866209629
