timestamp,dt,heading_rad,accel_x,accel_y,accel_z,accel_norm,gyro_x_rads,gyro_y_rads,gyro_z_rads,step_event,gyro_x_kf,gyro_y_kf,gyro_z_kf,yaw_change_raw,yaw_change_kf
0.00044,0.00044,2.218683,0.063763,0.082792,0.994771,1.000244,-0.164133,1.047115,-0.039104,0,-0.1637236773967743,1.0445036888122559,-0.03900648280978203,-1.720576e-05,-1.7162852436304093e-05
0.143872,0.143432,2.220382,0.071279,0.09736,0.967476,0.974972,-0.15894,1.044977,-0.032385,0,-0.1613302379846573,1.0447404384613037,-0.035693515092134476,-0.00466225108,-0.005136755109131337
0.19251,0.048638,2.220909,0.069582,0.099545,0.971619,0.979181,-0.163827,1.048947,-0.029636,0,-0.16216711699962616,1.0461504459381104,-0.033663131296634674,-0.006103686848,-0.006774062489137054
0.238776,0.046266,2.222368,0.070309,0.093475,0.969182,0.976215,-0.15894,1.053529,-0.029025,0,-0.1613500565290451,1.0480185747146606,-0.03248881548643112,-0.007446557498,-0.008277190026432277
0.288785,0.050009,2.224289,0.075886,0.093475,0.986241,0.993563,-0.164438,1.052918,-0.026582,0,-0.16198144853115082,1.0490204095840454,-0.031281035393476486,-0.008775896736,-0.009841523325424642
0.334043,0.045258,2.225904,0.077098,0.092261,0.988678,0.995962,-0.165965,1.044366,-0.024749,0,-0.16266821324825287,1.048218011856079,-0.030154915526509285,-0.009895986978000001,-0.0112062744923234
0.375436,0.041393,2.226647,0.072006,0.091533,0.978443,0.985349,-0.163217,1.039479,-0.023527,0,-0.16275043785572052,1.0469086170196533,-0.029161835089325905,-0.010869840089,-0.012413370332175867
0.413359,0.037924,2.22695,0.066673,0.084735,0.976981,0.982912,-0.163217,1.041312,-0.027498,0,-0.16281259059906006,1.0461630821228027,-0.02894020639359951,-0.011912674241000001,-0.013510898719446735
0.461694,0.048335,2.226489,0.061096,0.079636,0.977955,0.983093,-0.165355,1.049864,-0.031163,0,-0.16311901807785034,1.0466091632843018,-0.0292081106454134,-0.013418937846000002,-0.014922672747492791
0.499746,0.038052,2.225801,0.059399,0.084492,0.981855,0.987272,-0.164744,1.04742,-0.031163,0,-0.16329875588417053,1.046698808670044,-0.029424341395497322,-0.014604752322000002,-0.016042327786274256
0.541113,0.041367,2.224968,0.059884,0.084249,0.967964,0.973467,-0.161689,1.044671,-0.031469,0,-0.163133442401886,1.0464905500411987,-0.029634321108460426,-0.015906530445,-0.017268210747567937
0.586134,0.045021,2.224263,0.072976,0.092747,0.984048,0.991099,-0.168103,1.055362,-0.026582,0,-0.16361190378665924,1.04734468460083,-0.02934044599533081,-0.017103278667,-0.018589146966723726
0.627519,0.041385,2.223377,0.069097,0.087163,0.962115,0.968523,-0.169936,1.0575,-0.024138,0,-0.1641874462366104,1.0482689142227173,-0.028866983950138092,-0.018102229796999998,-0.019783807097500192
0.665656,0.038137,2.222466,0.044852,0.079393,0.972594,0.976859,-0.163217,1.041617,-0.029636,0,-0.16410337388515472,1.0476926565170288,-0.028933605179190636,-0.019232457928999996,-0.020887247998218984
0.714319,0.048663,2.221767,0.052853,0.081093,0.977468,0.982249,-0.1623,1.045282,-0.028109,0,-0.1639537513256073,1.0474926233291626,-0.028865192085504532,-0.020600326195999996,-0.022291914840675893
0.752196,0.037877,2.22117,0.052126,0.081093,0.984292,0.989001,-0.164133,1.055667,-0.032385,0,-0.1639680713415146,1.0481455326080322,-0.02914632484316826,-0.021826972840999995,-0.02339589018676058
0.79364,0.041444,2.220461,0.056005,0.08959,0.993065,0.998669,-0.166576,1.052613,-0.03269,0,-0.1641695201396942,1.0484906435012817,-0.02942005731165409,-0.023181777200999995,-0.02461517504198477
0.846722,0.053082,2.22026,0.057702,0.076722,0.982829,0.987507,-0.159857,1.031843,-0.031774,0,-0.16384606063365936,1.0472420454025269,-0.029596611857414246,-0.024868404668999994,-0.02618622239260003
0.888731,0.042009,2.220265,0.060854,0.083763,0.976493,0.981967,-0.165049,1.04009,-0.02872,0,-0.16393397748470306,1.0467193126678467,-0.029532548040151596,-0.026074903148999993,-0.027426855203218758
0.933905,0.045173,2.220279,0.044125,0.082064,0.966989,0.971468,-0.157108,1.042533,-0.027498,0,-0.16344641149044037,1.0464203357696533,-0.029387224465608597,-0.027317070302999992,-0.028754364294003694
0.97551,0.041606,2.220051,0.039519,0.09299,0.988678,0.993828,-0.162911,1.044977,-0.031469,0,-0.16340893507003784,1.0463192462921143,-0.02953294664621353,-0.02862636951699999,-0.029983112072166054
1.021474,0.045963,2.219009,0.047519,0.077451,0.96967,0.973918,-0.15894,1.044366,-0.031774,0,-0.16310164332389832,1.0461848974227905,-0.029687045142054558,-0.03008679787899999,-0.031347617728030304
1.063268,0.041795,2.218096,0.051156,0.077208,0.984048,0.988397,-0.161995,1.041617,-0.028109,0,-0.16302673518657684,1.0458756685256958,-0.02958023175597191,-0.03126161353399999,-0.03258392351427115
1.108549,0.04528,2.217913,0.047035,0.082064,0.982342,0.986885,-0.162911,1.041922,-0.027192,0,-0.16301901638507843,1.0456117391586304,-0.02942080982029438,-0.03249286729399999,-0.03391609778293408
1.150163,0.041615,2.217111,0.047762,0.081821,0.982829,0.987385,-0.159551,1.043755,-0.029941,0,-0.16279034316539764,1.0454893112182617,-0.029455110430717468,-0.03373886200899999,-0.03514187220350839
1.196223,0.04606,2.217096,0.049701,0.08959,0.987703,0.993003,-0.161689,1.035508,-0.028109,0,-0.1627185046672821,1.044838309288025,-0.02936730720102787,-0.03503356254899999,-0.036494530373187735
1.244886,0.048663,2.216774,0.049701,0.082064,0.973325,0.978042,-0.160773,1.039174,-0.02872,0,-0.162592813372612,1.044472336769104,-0.029325488954782486,-0.03643116390899999,-0.037921596642194313
1.285953,0.041067,2.217575,0.050186,0.080607,0.976981,0.981584,-0.161995,1.036425,-0.027498,0,-0.1625545173883438,1.0439568758010864,-0.02920841984450817,-0.03756042427499999,-0.03912109881994873
1.324104,0.03815,2.218026,0.04558,0.083035,0.981855,0.986413,-0.162606,1.040701,-0.025971,0,-0.16255779564380646,1.0437498092651367,-0.02900257520377636,-0.03855121792499999,-0.040227547063972795
1.369106,0.045002,2.218256,0.047277,0.08692,0.992577,0.997497,-0.16566,1.04009,-0.023222,0,-0.16275374591350555,1.0435186624526978,-0.02863745018839836,-0.039596254368999995,-0.0415162895973511
1.410838,0.041732,2.217563,0.040731,0.083278,0.974787,0.979186,-0.1623,1.035203,-0.027192,0,-0.16272525489330292,1.0429964065551758,-0.028546681627631187,-0.040731030912999996,-0.042707599715035405
1.455833,0.044995,2.216931,0.043398,0.07915,0.969913,0.974105,-0.158635,1.030927,-0.028414,0,-0.16246971487998962,1.042242407798767,-0.02853839285671711,-0.042009518843,-0.043991684701623394
1.49766,0.041827,2.216447,0.04558,0.085706,0.978199,0.983004,-0.160468,1.041312,-0.024749,0,-0.16234523057937622,1.042184591293335,-0.02830273099243641,-0.043044695266,-0.045175503030844034
1.542664,0.045004,2.216313,0.036367,0.082064,0.976006,0.980125,-0.163522,1.045588,-0.025054,0,-0.16241812705993652,1.0423953533172607,-0.02810150571167469,-0.044172225482,-0.046440183193892245
1.584488,0.041823,2.216177,0.037579,0.078908,0.981124,0.985009,-0.15833,1.037036,-0.026582,0,-0.1621658056974411,1.0420645475387573,-0.02800772152841091,-0.045283964467999996,-0.047611550131374976
1.62955,0.045062,2.215852,0.036367,0.085463,0.991602,0.995943,-0.157413,1.037646,-0.029636,0,-0.16187338531017303,1.0417927503585815,-0.0281079038977623,-0.0466194219,-0.04887814849681594
1.671063,0.041513,2.215261,0.035155,0.077451,0.989409,0.993058,-0.160468,1.031843,-0.031163,0,-0.16178715229034424,1.041182279586792,-0.028295351192355156,-0.047913091519,-0.05005277341086418
1.716157,0.045094,2.214726,0.036609,0.07915,0.983317,0.987176,-0.162911,1.031232,-0.031469,0,-0.16185593605041504,1.040573239326477,-0.028489595279097557,-0.049332154605,-0.0513374832203798
1.757577,0.04142,2.214487,0.040004,0.084006,0.976006,0.980431,-0.160162,1.035814,-0.031469,0,-0.16175247728824615,1.0402826070785522,-0.02867155708372593,-0.050635600584999996,-0.05252505911478773
1.795635,0.038058,2.214601,0.039034,0.087163,0.977955,0.982608,-0.160162,1.032454,-0.031774,0,-0.16165553033351898,1.0398054122924805,-0.0288606695830822,-0.051844855477,-0.05362343847778067
1.844138,0.048503,2.214841,0.048247,0.09566,0.981855,0.987683,-0.1623,1.038868,-0.028414,0,-0.1616947501897812,1.0397483110427856,-0.028833488002419472,-0.053223019718999995,-0.05502194914636202
1.882256,0.038117,2.214698,0.038791,0.083763,0.980149,0.984486,-0.156192,1.032454,-0.025971,0,-0.16136039793491364,1.0393050909042358,-0.028659556061029434,-0.054212956326,-0.05611436544474028
1.923712,0.041457,2.21417,0.036609,0.08522,0.984779,0.989137,-0.163217,1.03337,-0.027803,0,-0.16147306561470032,1.038944959640503,-0.028607578948140144,-0.055365585296999996,-0.057300349845193325
1.968668,0.044956,2.214221,0.033942,0.077451,0.97235,0.976021,-0.159551,1.029705,-0.027192,0,-0.16135656833648682,1.0383849143981934,-0.02852177806198597,-0.056588028848999994,-0.05858257489974797
2.010762,0.042094,2.213904,0.034427,0.082792,0.984535,0.98861,-0.15894,1.03276,-0.031163,0,-0.16121025383472443,1.0380443334579468,-0.02868170104920864,-0.05789980417099999,-0.059789902423713355
2.055849,0.045087,2.214138,0.037337,0.08692,0.991359,0.995862,-0.164133,1.026956,-0.029025,0,-0.16138705611228943,1.0373735427856445,-0.028702467679977417,-0.05920845434599999,-0.061084010584000495
2.097316,0.041467,2.2139,0.044368,0.089348,0.974544,0.979636,-0.1623,1.028789,-0.023833,0,-0.16144223511219025,1.03685462474823,-0.02840813249349594,-0.06019673735699999,-0.06226201061410829
2.142289,0.044973,2.213392,0.039761,0.084735,0.976006,0.980484,-0.162911,1.032454,-0.024138,0,-0.16153095662593842,1.0365887880325317,-0.028150206431746483,-0.06128229563099999,-0.06352800984796322
2.183709,0.04142,2.213006,0.042186,0.080607,0.976737,0.980965,-0.164744,1.03673,-0.027803,0,-0.16172491014003754,1.0365973711013794,-0.028129247948527336,-0.06243389589099999,-0.06469312329799122
2.221614,0.037905,2.212429,0.03176,0.071867,0.966258,0.969447,-0.156192,1.04009,-0.030858,0,-0.16139110922813416,1.0368081331253052,-0.028293875977396965,-0.063603568381,-0.06576560266691445
2.270077,0.048463,2.212633,0.033942,0.082064,0.98746,0.991445,-0.155886,1.036119,-0.030552,0,-0.16105914115905762,1.036766529083252,-0.028430044651031494,-0.065084209957,-0.06714340792083738
2.309762,0.039685,2.212601,0.04267,0.092261,0.987947,0.993163,-0.165049,1.037646,-0.025971,0,-0.16129963099956512,1.036819577217102,-0.02828182466328144,-0.066114869092,-0.06826577213259971
2.35135,0.041588,2.213953,0.04267,0.084249,0.983804,0.988327,-0.158024,1.035203,-0.022,0,-0.1611022651195526,1.036722183227539,-0.027903331443667412,-0.067029805092,-0.06942621588067895
2.393148,0.041798,2.215469,0.039276,0.086191,0.987947,0.992477,-0.163827,1.037036,-0.023833,0,-0.16126638650894165,1.0367411375045776,-0.027658168226480484,-0.068025976826,-0.07058227199620938
2.438108,0.04496,2.216161,0.029336,0.075266,0.98746,0.990758,-0.163217,1.033676,-0.026887,0,-0.16138383746147156,1.036556601524353,-0.027611732482910156,-0.06923481634600001,-0.07182369548864102
2.479502,0.041394,2.216827,0.032973,0.07915,0.979174,0.982921,-0.161079,1.027873,-0.029941,0,-0.16136549413204193,1.0360338687896729,-0.027751950547099113,-0.07047419410000001,-0.07297245972958764
2.517765,0.038263,2.217146,0.033942,0.077936,0.980149,0.983828,-0.160773,1.033981,-0.031163,0,-0.16132983565330505,1.0359103679656982,-0.027957240119576454,-0.07166658396900001,-0.074042187608283
2.566442,0.048677,2.218107,0.03564,0.084977,0.985266,0.989566,-0.159857,1.028789,-0.030247,0,-0.16124121844768524,1.0354818105697632,-0.02809501811861992,-0.07313891718800002,-0.07540976880524307
2.604475,0.038033,2.219101,0.039519,0.085463,0.980149,0.984661,-0.1623,1.032454,-0.028109,0,-0.16130492091178894,1.0352996587753296,-0.02809586003422737,-0.07420798678500001,-0.07647833864992484
2.64671,0.042235,2.220149,0.042186,0.08692,0.977224,0.981989,-0.160468,1.031538,-0.029025,0,-0.16125458478927612,1.0350733995437622,-0.028151748701930046,-0.07543385766000002,-0.07766732775635087
2.688896,0.042186,2.220675,0.042186,0.086677,0.975762,0.980512,-0.159246,1.03276,-0.023527,0,-0.1611337810754776,1.0349342823028564,-0.027873605489730835,-0.07642636768200002,-0.07884320367754065
2.734031,0.045135,2.22121,0.038306,0.087405,0.979418,0.984056,-0.160773,1.03673,-0.023222,0,-0.16111208498477936,1.0350422859191895,-0.027593880891799927,-0.07747449265200002,-0.08008865349159204
2.775821,0.04179,2.221398,0.027881,0.079393,0.981611,0.985211,-0.160468,1.031538,-0.029941,0,-0.16107335686683655,1.0348315238952637,-0.027735009789466858,-0.07872572704200001,-0.08124769955069386
2.821009,0.045188,2.221862,0.0337,0.087163,0.985754,0.990173,-0.164744,1.036425,-0.02872,0,-0.16129404306411743,1.0349273681640625,-0.027794228866696358,-0.08002352640200001,-0.08250366516472213
2.862558,0.041549,2.222053,0.035155,0.074295,0.977224,0.980675,-0.160162,1.034287,-0.028414,0,-0.16122598946094513,1.0348888635635376,-0.027831487357616425,-0.08120409968800002,-0.08366003563294373
2.907909,0.045351,2.222162,0.037579,0.082792,0.991602,0.995762,-0.1623,1.033676,-0.030858,0,-0.16129055619239807,1.0348159074783325,-0.02801341935992241,-0.08260354084600002,-0.08493047221433557
2.949467,0.041558,2.22236,0.037094,0.082792,0.995989,1.000112,-0.165049,1.03337,-0.031163,0,-0.161516472697258,1.03472900390625,-0.028202736750245094,-0.08389861280000002,-0.08610252154820225
2.994802,0.045335,2.22226,0.038791,0.080364,0.976737,0.980805,-0.163827,1.028483,-0.02933,0,-0.16165535151958466,1.0343536138534546,-0.02827049046754837,-0.08522828835000003,-0.08738416423354856
3.036411,0.041609,2.222689,0.03467,0.080364,0.96967,0.973612,-0.156192,1.032454,-0.029636,0,-0.16132698953151703,1.034239411354065,-0.028352560475468636,-0.08646141267400002,-0.08856388592237233
3.081717,0.045306,2.22302,0.03564,0.092504,0.994039,0.99897,-0.165049,1.032149,-0.026887,0,-0.16155068576335907,1.0341137647628784,-0.02826448157429695,-0.08767955509600002,-0.08984443652457742
3.123344,0.041627,2.222918,0.030306,0.08085,0.97893,0.982731,-0.158635,1.0294,-0.029025,0,-0.16137546300888062,1.0338305234909058,-0.02831018529832363,-0.08888777877100001,-0.09102290460799074
3.168482,0.045138,2.222854,0.038791,0.08522,0.980149,0.984611,-0.160468,1.03337,-0.02872,0,-0.16132092475891113,1.03380286693573,-0.028334813192486763,-0.09018414213100001,-0.09230188140587321
3.210022,0.041541,2.222984,0.042428,0.081336,0.975518,0.979822,-0.157108,1.033676,-0.024138,0,-0.16106775403022766,1.0337952375411987,-0.02808261662721634,-0.09118685878900001,-0.0934684613831844
3.25515,0.045127,2.223576,0.032245,0.08085,0.986972,0.990803,-0.158635,1.033065,-0.026582,0,-0.16092157363891602,1.033751368522644,-0.02799244411289692,-0.09238642470300001,-0.0947316764086671
3.296591,0.041441,2.223866,0.029578,0.073566,0.981124,0.984322,-0.159857,1.031538,-0.030552,0,-0.16085760295391083,1.0336183309555054,-0.028146246448159218,-0.09365253013500001,-0.09589808500772527
3.335118,0.038527,2.224173,0.037822,0.086434,0.991115,0.995595,-0.161689,1.030011,-0.02933,0,-0.1609075665473938,1.033401608467102,-0.0282173752784729,-0.09478252704500001,-0.096985215825079
3.377214,0.042096,2.224336,0.034912,0.078665,0.979174,0.982949,-0.158635,1.027873,-0.02933,0,-0.16077101230621338,1.033069372177124,-0.028284229338169098,-0.09601720272500001,-0.09817586874329857
3.41889,0.041677,2.224419,0.036609,0.080364,0.98551,0.989459,-0.162606,1.032149,-0.027498,0,-0.16088126599788666,1.0330140590667725,-0.028236988931894302,-0.09716323687100001,-0.09935270173101314
3.463878,0.044987,2.223881,0.024002,0.074052,0.97235,0.975461,-0.159551,1.027567,-0.032996,0,-0.16080133616924286,1.0326868295669556,-0.028522932901978493,-0.09864762792300001,-0.10063586291347444
3.505817,0.04194,2.223173,0.027154,0.07915,0.992334,0.995855,-0.161384,1.026651,-0.036355,0,-0.1608363389968872,1.032324194908142,-0.02899351343512535,-0.10017235662300002,-0.1018518508669436
3.550894,0.045077,2.222001,0.04558,0.081578,0.987947,0.992357,-0.164438,1.026651,-0.030247,0,-0.16105273365974426,1.0319833755493164,-0.029068827629089355,-0.10153580064200002,-0.10316218640998005
3.592606,0.041712,2.221486,0.044125,0.087891,0.984292,0.989192,-0.165355,1.028483,-0.026276,0,-0.16131122410297394,1.0317730903625488,-0.028901027515530586,-0.10263182515400002,-0.10436770606970787
3.637655,0.045048,2.220595,0.040004,0.080364,0.971863,0.976,-0.156802,1.028178,-0.02536,0,-0.1610403060913086,1.0315570831298828,-0.028688276186585426,-0.10377424243400002,-0.10566005553536117
3.679287,0.041633,2.219647,0.036852,0.082307,0.98551,0.989627,-0.1623,1.032454,-0.023833,0,-0.16111598908901215,1.0316109657287598,-0.028396563604474068,-0.10476648172300002,-0.10684228966790624
3.724732,0.045445,2.218685,0.023275,0.078179,0.986241,0.989609,-0.160162,1.026956,-0.02933,0,-0.1610586792230606,1.0313313007354736,-0.028452645987272263,-0.10609938357300001,-0.10813532016479782
3.766305,0.041573,2.21872,0.0337,0.082549,0.980149,0.984196,-0.158635,1.027567,-0.032079,0,-0.16091306507587433,1.0311051607131958,-0.028670519590377808,-0.10743300384000001,-0.1093272396757286
3.80477,0.038465,2.219053,0.044368,0.082064,0.97893,0.983365,-0.159246,1.032454,-0.027192,0,-0.16081291437149048,1.0311862230300903,-0.028581690043210983,-0.10847894412000002,-0.11042663438324071
3.847629,0.042859,2.218923,0.032003,0.076965,0.968451,0.972032,-0.15894,1.026651,-0.028414,0,-0.16070039570331573,1.0309137105941772,-0.028571614995598793,-0.10969673974600001,-0.11165118523033708
3.8979,0.050271,2.218107,0.032973,0.082307,0.986972,0.990947,-0.160162,1.030621,-0.02872,0,-0.1606680452823639,1.0308961868286133,-0.028580529615283012,-0.11114052286600001,-0.11308795703462697
3.948693,0.050792,2.217208,0.032488,0.075751,0.982342,0.985794,-0.157719,1.026345,-0.027803,0,-0.16049087047576904,1.0306227207183838,-0.02853381633758545,-0.11255269284200001,-0.11453724663404562
3.992568,0.043875,2.216622,0.036124,0.07915,0.994283,0.998083,-0.163827,1.026956,-0.029941,0,-0.1606913059949875,1.030402421951294,-0.028618358075618744,-0.113866354217,-0.11579287709461339
4.036547,0.04398,2.215927,0.040488,0.077208,0.979661,0.983533,-0.161079,1.025735,-0.02872,0,-0.16071459650993347,1.0301220417022705,-0.028624463826417923,-0.115129459817,-0.11705178101369924
4.0803,0.043753,2.214696,0.042913,0.07915,0.97893,0.983062,-0.159857,1.025124,-0.025054,0,-0.16066306829452515,1.029821753501892,-0.02840995416045189,-0.116225647479,-0.11829480173808149
4.134682,0.054382,2.213416,0.033458,0.078422,0.989165,0.992833,-0.163522,1.024207,-0.03269,0,-0.16083483397960663,1.0294843912124634,-0.028667094185948372,-0.118003395059,-0.11985377565410174
4.178449,0.043767,2.213326,0.036609,0.082064,0.977955,0.982075,-0.163217,1.024818,-0.028109,0,-0.16097794473171234,1.02920401096344,-0.028633564710617065,-0.119233641662,-0.12110698088079132
4.222297,0.043848,2.213286,0.033215,0.08085,0.979418,0.98331,-0.160468,1.027567,-0.02872,0,-0.1609473079442978,1.0291056632995605,-0.02863875776529312,-0.120492956222,-0.12236273313128389
4.266067,0.04377,2.212801,0.028366,0.080607,0.984048,0.987751,-0.161995,1.025124,-0.032079,0,-0.1610102504491806,1.0288664102554321,-0.028845442458987236,-0.121897054052,-0.12362529814771375
4.316974,0.050907,2.211075,0.03467,0.07648,0.985023,0.988595,-0.1623,1.023902,-0.032079,0,-0.1610877364873886,1.028568148612976,-0.029039708897471428,-0.12353009970500001,-0.12510362260855734
4.36098,0.044007,2.209734,0.039761,0.075994,0.986729,0.990449,-0.161995,1.025124,-0.030858,0,-0.1611422449350357,1.028361201286316,-0.029148949310183525,-0.124888067711,-0.1263863804208506
4.405709,0.044728,2.208877,0.038064,0.083278,0.987947,0.992181,-0.161689,1.022986,-0.025665,0,-0.16117508709430695,1.0280382633209229,-0.028939640149474144,-0.126036011831,-0.1276807926454563
4.45619,0.050481,2.207551,0.044125,0.078665,0.978687,0.982834,-0.155886,1.023597,-0.023833,0,-0.16085733473300934,1.0277714729309082,-0.028632842004299164,-0.127239125504,-0.1291262071426753
4.506866,0.050676,2.207149,0.043883,0.076237,0.984292,0.988214,-0.157719,1.02604,-0.025054,0,-0.16066879034042358,1.0276674032211304,-0.028417831286787987,-0.128508762008,-0.13056630916096457
4.550609,0.043744,2.206866,0.037337,0.075508,0.984779,0.988375,-0.157413,1.024513,-0.02933,0,-0.16047318279743195,1.0274778604507446,-0.02847263216972351,-0.12979177352799998,-0.13181181598259695
4.59456,0.043951,2.206618,0.037094,0.078908,0.992577,0.9964,-0.161995,1.024513,-0.022611,0,-0.1605646163225174,1.0272997617721558,-0.028120476752519608,-0.130785549589,-0.13304773905634693
4.638412,0.043852,2.206366,0.037822,0.077208,0.984535,0.988282,-0.161384,1.029094,-0.022611,0,-0.16061384975910187,1.0274075269699097,-0.02778947912156582,-0.13177708716099998,-0.13426636329478583
4.689451,0.051039,2.206205,0.036609,0.071867,0.975762,0.97909,-0.15894,1.025429,-0.026276,0,-0.1605132818222046,1.0272886753082275,-0.02769855223596096,-0.13311818792499996,-0.13568006970235705
4.733477,0.044026,2.205798,0.034912,0.07478,0.985023,0.988474,-0.159246,1.027873,-0.02872,0,-0.16043715178966522,1.027323842048645,-0.027759918943047523,-0.13438261464499995,-0.13690222789374365
4.777283,0.043807,2.20425,0.038549,0.071867,0.977712,0.981107,-0.160468,1.025124,-0.028414,0,-0.16043899953365326,1.0271916389465332,-0.02779921516776085,-0.13562734674299995,-0.13812002811259774
4.828242,0.050959,2.20275,0.063036,0.072352,0.983804,0.988473,-0.160773,1.033981,-0.021084,0,-0.16045907139778137,1.027599573135376,-0.02739577926695347,-0.13670176629899994,-0.13951608962826242
4.879592,0.05135,2.202926,0.027881,0.124067,0.993308,1.001415,-0.159857,1.015961,-0.025971,0,-0.1604229062795639,1.0269004106521606,-0.02731018140912056,-0.13803537714899994,-0.14091846744362077
4.923217,0.043624,2.202589,0.025214,0.062883,0.991846,0.994157,-0.161995,1.024207,-0.031163,0,-0.1605173498392105,1.0267386436462402,-0.02754165045917034,-0.13939483186099993,-0.14211994440325162
4.966364,0.043147,2.202802,0.017456,0.075508,0.987216,0.990253,-0.167493,1.025735,-0.030858,0,-0.16093643009662628,1.0266783237457275,-0.02774089016020298,-0.14072626198699995,-0.1433168805909939
5.010001,0.043637,2.203055,0.024729,0.079393,0.96504,0.968616,-0.159857,1.027873,-0.031774,0,-0.16087158024311066,1.026750087738037,-0.02798319049179554,-0.14211278402499994,-0.14453798307448437
5.053788,0.043787,2.203559,0.033458,0.081578,0.960166,0.964206,-0.155275,1.031538,-0.026887,0,-0.16053535044193268,1.0270377397537231,-0.02791733294725418,-0.14329008509399993,-0.1457603993322458
5.097482,0.043694,2.203773,0.040004,0.084735,0.977468,0.981949,-0.157413,1.030621,-0.02536,0,-0.16034775972366333,1.0272530317306519,-0.027763694524765015,-0.14439816493399993,-0.14697350620081087
5.141211,0.043729,2.202793,0.044368,0.077694,1.001594,1.005582,-0.158635,1.024207,-0.02536,0,-0.1602448672056198,1.0270700454711914,-0.027619285508990288,-0.14550713237399993,-0.1481812699368335
5.192098,0.050887,2.20309,0.036852,0.075751,0.999157,1.002702,-0.1623,1.024207,-0.024749,0,-0.16036833822727203,1.0268980264663696,-0.027446845546364784,-0.14676653473699994,-0.14957795756615136
5.236308,0.04421,2.20367,0.03273,0.068953,0.99209,0.995022,-0.157719,1.018404,-0.025971,0,-0.16020917892456055,1.0263876914978027,-0.027358179911971092,-0.14791471264699993,-0.1507874627000596
5.280059,0.043751,2.204791,0.034185,0.074295,0.994283,0.997641,-0.161079,1.013212,-0.026276,0,-0.16026143729686737,1.0255961418151855,-0.027293164283037186,-0.14906431392299993,-0.15198156593060677
5.323786,0.043728,2.205391,0.0337,0.070653,0.985997,0.9891,-0.15833,1.008936,-0.026887,0,-0.16014540195465088,1.0245952606201172,-0.02726876363158226,-0.15024002865899994,-0.1531739744266886
5.377968,0.054182,2.205193,0.032973,0.068468,0.986485,0.989408,-0.15833,1.011074,-0.02933,0,-0.1600363403558731,1.0237829685211182,-0.027392597869038582,-0.15182918671899995,-0.15465816016442885
5.422506,0.044538,2.205343,0.030791,0.077208,0.988922,0.992409,-0.164133,1.014739,-0.029941,0,-0.1602824628353119,1.0232396125793457,-0.02754569984972477,-0.15316269897699994,-0.15588499054433588
5.473689,0.051183,2.20435,0.03176,0.071624,0.97625,0.979389,-0.160468,1.015044,-0.028414,0,-0.1602936089038849,1.022747278213501,-0.027597865089774132,-0.15461701273899994,-0.1572975320732258
5.517635,0.043946,2.203994,0.034912,0.075023,0.977712,0.981207,-0.162606,1.016877,-0.030858,0,-0.16043253242969513,1.0223946571350098,-0.027793727815151215,-0.15597309840699994,-0.15851895523579043
5.561065,0.04343,2.203795,0.032488,0.072595,0.983317,0.986528,-0.156497,1.019626,-0.030247,0,-0.16019609570503235,1.0222283601760864,-0.027941115200519562,-0.15728672561699994,-0.159732437868949
5.604468,0.043403,2.203049,0.032245,0.072838,0.999401,1.00257,-0.161689,1.011379,-0.029636,0,-0.16028578579425812,1.0215765237808228,-0.02804294042289257,-0.15857301692499995,-0.1609495856121238
5.648276,0.043809,2.202084,0.031518,0.071138,0.971376,0.974487,-0.156497,1.010768,-0.033607,0,-0.1600581705570221,1.0209271907806396,-0.028377216309309006,-0.16004530598799996,-0.16219276308141833
5.69962,0.051344,2.200214,0.039519,0.073809,0.969913,0.97352,-0.156192,1.014434,-0.029941,0,-0.1598259061574936,1.0205371379852295,-0.028471164405345917,-0.16158259669199995,-0.1636545865466464
5.742996,0.043376,2.199323,0.044125,0.077936,0.986729,0.990785,-0.155275,1.01871,-0.024749,0,-0.15955249965190887,1.0204273462295532,-0.028247544541954994,-0.16265610931599994,-0.16487985203869826
5.793283,0.050287,2.198975,0.033942,0.07648,0.986241,0.989784,-0.157413,1.008325,-0.025665,0,-0.15942396223545074,1.019700288772583,-0.028092391788959503,-0.16394672517099995,-0.16629253414458967
5.844707,0.051424,2.19962,0.035882,0.071381,0.986241,0.989472,-0.160162,1.01199,-0.030858,0,-0.15946830809116364,1.0192370414733887,-0.028258543461561203,-0.16553356696299995,-0.167745701483557
5.888669,0.043961,2.199746,0.035397,0.068468,0.985997,0.989005,-0.153443,1.006798,-0.031774,0,-0.1591063141822815,1.0184897184371948,-0.028469745069742203,-0.16693038377699995,-0.16899725994656795
5.932148,0.04348,2.199576,0.042913,0.074052,0.987703,0.991405,-0.161689,1.01199,-0.020778,0,-0.15926147997379303,1.0180991888046265,-0.028007641434669495,-0.16783381121699995,-0.17021503219614736
5.986057,0.053908,2.199606,0.023275,0.074537,0.978443,0.981554,-0.159551,1.010157,-0.028109,0,-0.15927886962890625,1.0176219940185547,-0.02801373042166233,-0.16934911118899995,-0.17172519637571834
6.030224,0.044167,2.199917,0.031033,0.072595,0.98551,0.988667,-0.152526,1.009241,-0.030552,0,-0.15887317061424255,1.0171184539794922,-0.02816622331738472,-0.17069850137299994,-0.17296921396097728
6.074211,0.043987,2.200234,0.032488,0.070895,0.990384,0.99345,-0.161689,1.015044,-0.032385,0,-0.1590423434972763,1.0169938802719116,-0.028419679030776024,-0.17212302036799995,-0.17421931038250402
6.117804,0.043594,2.199969,0.033458,0.063854,0.981611,0.984254,-0.152526,1.004049,-0.034217,0,-0.15865086019039154,1.0162161588668823,-0.028767969459295273,-0.17361467626599994,-0.17547342124311255
6.161489,0.043684,2.200091,0.038549,0.078422,0.986729,0.99059,-0.160162,1.014739,-0.029636,0,-0.15874165296554565,1.0161274671554565,-0.028820117935538292,-0.17490929528999993,-0.1767323992750086
6.212464,0.050975,2.198683,0.03564,0.07041,0.977955,0.981134,-0.152221,1.003133,-0.032079,0,-0.1583499014377594,1.0153467655181885,-0.029015904292464256,-0.17654452231499992,-0.17821148499631698
6.262878,0.050414,2.198294,0.042186,0.078179,0.99209,0.996059,-0.15894,1.011379,-0.023527,0,-0.15838535130023956,1.015108346939087,-0.028686143457889557,-0.17773061249299993,-0.179657668232603
6.317177,0.054299,2.198027,0.021335,0.076965,0.981367,0.984612,-0.1623,1.010768,-0.031469,0,-0.15862053632736206,1.0148476362228394,-0.02885333076119423,-0.17943934772399994,-0.1812243752396051
6.361307,0.04413,2.198665,0.034427,0.075994,0.988191,0.991706,-0.158635,1.013212,-0.028414,0,-0.1586214005947113,1.0147494077682495,-0.028826937079429626,-0.18069325754399995,-0.18249650797292033
6.412609,0.051302,2.198512,0.033458,0.072595,0.986241,0.989475,-0.15894,1.007409,-0.02872,0,-0.1586405485868454,1.0143084526062012,-0.02882051281630993,-0.18216665098399995,-0.18397505792142266
6.456698,0.044089,2.199188,0.035155,0.065554,0.971863,0.974706,-0.151916,1.006492,-0.027803,0,-0.1582365483045578,1.0138388872146606,-0.028759382665157318,-0.18339245745099994,-0.18524303034374678
6.500297,0.043599,2.199567,0.029336,0.075023,0.989653,0.992926,-0.155275,1.007409,-0.029025,0,-0.15805862843990326,1.0134526491165161,-0.02877533994615078,-0.18465791842599993,-0.18649760639005902
6.543659,0.043363,2.199819,0.034185,0.077936,0.994771,0.998404,-0.158635,1.01535,-0.027803,0,-0.15809325873851776,1.0135666131973267,-0.0287169236689806,-0.18586353991499993,-0.18774285835111704
6.587123,0.043463,2.199557,0.031518,0.06871,0.981855,0.98476,-0.155275,1.007103,-0.030858,0,-0.15792393684387207,1.0131783485412598,-0.02884555421769619,-0.18720472116899994,-0.18899657267408076
6.630739,0.043616,2.199211,0.043883,0.078179,0.988678,0.992735,-0.160773,1.015655,-0.02933,0,-0.1580951064825058,1.0133271217346191,-0.028874658048152924,-0.18848397844899994,-0.190255969759509
6.681582,0.050843,2.198927,0.039519,0.075751,0.985266,0.988964,-0.155886,1.01199,-0.026276,0,-0.1579623818397522,1.013246774673462,-0.028718536719679832,-0.18981992911699994,-0.1917161063219477
6.73175,0.050168,2.199714,0.030548,0.072352,0.984048,0.987177,-0.157413,1.011685,-0.027803,0,-0.15792937576770782,1.0131529569625854,-0.028663532808423042,-0.19121475002099994,-0.19315409843588066
6.774805,0.043055,2.200203,0.030548,0.072838,0.984779,0.987941,-0.160773,1.008019,-0.027498,0,-0.1581002175807953,1.0128445625305176,-0.028593510389328003,-0.19239867641099995,-0.19438519202569318
6.818119,0.043314,2.200971,0.030791,0.072838,0.982829,0.986006,-0.155886,1.012906,-0.027192,0,-0.1579671949148178,1.0128482580184937,-0.028509311378002167,-0.19357647069899994,-0.19562004433871996
6.861652,0.043533,2.202237,0.028124,0.077208,0.991115,0.994515,-0.158635,1.012601,-0.029636,0,-0.15800730884075165,1.0128333568572998,-0.02857699990272522,-0.19486661468699995,-0.1968640868754853
6.905378,0.043725,2.203335,0.030791,0.073809,0.982586,0.985835,-0.15497,1.010768,-0.029025,0,-0.1578248292207718,1.0127092599868774,-0.028603915125131607,-0.19613573281199995,-0.19811479306433166
6.948843,0.043465,2.204276,0.033215,0.076722,0.985023,0.988564,-0.160773,1.010157,-0.030247,0,-0.15800194442272186,1.0125559568405151,-0.02870262786746025,-0.19745041866699994,-0.19936235278459083
6.992364,0.043521,2.205112,0.033942,0.074052,0.981855,0.985228,-0.156802,1.011379,-0.027498,0,-0.15792985260486603,1.0124852657318115,-0.02863025665283203,-0.19864715912499994,-0.20060837018437874
7.036472,0.044109,2.205256,0.034185,0.079879,0.991115,0.994916,-0.160162,1.009852,-0.022916,0,-0.15806394815444946,1.0123270750045776,-0.028286956250667572,-0.19965796096899993,-0.20185607953763943
7.090704,0.054232,2.204975,0.026669,0.074295,0.993796,0.996926,-0.154359,1.006187,-0.030247,0,-0.15784136950969696,1.0119582414627075,-0.028404710814356804,-0.20129831627299993,-0.20339652381452364
7.142628,0.051924,2.203973,0.024487,0.072595,0.936771,0.939898,-0.162606,1.00466,-0.033912,0,-0.15812762081623077,1.0115197896957397,-0.028735576197504997,-0.20305916296099993,-0.2048885898730029
7.19331,0.050682,2.204032,0.037822,0.067254,0.959678,0.962775,-0.156802,1.007103,-0.032079,0,-0.15804797410964966,1.0112544298171997,-0.028936441987752914,-0.20468499083899994,-0.20635514662582619
7.236966,0.043656,2.204238,0.041701,0.076237,0.984535,0.988363,-0.159246,1.011685,-0.029941,0,-0.15811994671821594,1.0112802982330322,-0.028996793553233147,-0.20599209513499994,-0.20762103064518614
7.280679,0.043712,2.204409,0.038306,0.075751,0.989653,0.993287,-0.158024,1.004965,-0.028109,0,-0.15811417996883392,1.010900855064392,-0.028943456709384918,-0.20722079574299995,-0.20888620702486677
7.324367,0.043689,2.204798,0.036609,0.076965,0.986972,0.990645,-0.15833,1.00863,-0.022611,0,-0.15812714397907257,1.010764479637146,-0.028563017025589943,-0.20820864772199996,-0.21013409667569777
7.367924,0.043557,2.205353,0.027881,0.071381,0.98088,0.983869,-0.157413,1.004965,-0.02536,0,-0.15808424353599548,1.010416030883789,-0.028370587155222893,-0.20931325324199995,-0.2113698343404178
7.411519,0.043594,2.205739,0.028851,0.072595,0.991115,0.994189,-0.157413,1.008019,-0.029941,0,-0.15804392099380493,1.0102720260620117,-0.02846493385732174,-0.21061850119599995,-0.2126107346669939
7.456288,0.044769,2.205239,0.034185,0.072595,0.985997,0.989257,-0.159551,1.008019,-0.029636,0,-0.15813446044921875,1.0101367235183716,-0.02853528968989849,-0.21194527527999996,-0.21388823105112095
7.508119,0.051831,2.204243,0.034912,0.078179,0.985997,0.989708,-0.154664,1.007103,-0.026276,0,-0.15792596340179443,1.0099544525146484,-0.028399556875228882,-0.21330718663599996,-0.21536020848352094
7.55796,0.049841,2.204462,0.031276,0.078908,0.98551,0.989159,-0.160162,1.005576,-0.028414,0,-0.15806029736995697,1.0096913576126099,-0.028400424867868423,-0.21472336880999995,-0.21677571405936039
7.600909,0.042949,2.204329,0.03273,0.07478,0.97893,0.982328,-0.153443,1.011685,-0.026887,0,-0.1577828973531723,1.0098111629486084,-0.028309501707553864,-0.21587813857299995,-0.21799157884819811
7.64408,0.043171,2.204141,0.022063,0.073809,0.992821,0.995805,-0.15894,1.006492,-0.030552,0,-0.1578524112701416,1.00961172580719,-0.02844422683119774,-0.21719709896499995,-0.21921954456472775
7.687655,0.043575,2.203788,0.032245,0.071867,0.986241,0.989382,-0.157413,1.005576,-0.029941,0,-0.1578260064125061,1.0093692541122437,-0.02853414975106716,-0.21850177803999996,-0.2204629201401305
7.732008,0.044353,2.203806,0.037337,0.078179,0.991115,0.994894,-0.159246,1.008019,-0.02536,0,-0.15791131556034088,1.0092880725860596,-0.028343454003334045,-0.21962657011999995,-0.22172003735554038
7.775399,0.043391,2.203257,0.030791,0.077451,0.982829,0.986357,-0.156497,1.004965,-0.023527,0,-0.15782634913921356,1.0090283155441284,-0.028054092079401016,-0.22064743017699995,-0.22293733246495767
7.829491,0.054092,2.202162,0.032488,0.074537,0.980392,0.983758,-0.158024,1.007103,-0.024138,0,-0.15783822536468506,1.0089126825332642,-0.027818821370601654,-0.22195310287299994,-0.22444210815053625
7.880519,0.051028,2.201486,0.029094,0.065797,0.989653,0.992264,-0.156192,1.005576,-0.025054,0,-0.1577393263578415,1.0087121725082397,-0.027652716264128685,-0.22323155838499995,-0.22585317095606222
7.923815,0.043296,2.200993,0.033215,0.067011,0.991115,0.993933,-0.158635,1.004965,-0.026887,0,-0.15779313445091248,1.0084871053695679,-0.027606714516878128,-0.22439565793699995,-0.22704843126778498
7.967076,0.043261,2.200621,0.028366,0.07041,0.994527,0.99742,-0.160162,1.005881,-0.029941,0,-0.15793545544147491,1.0083305835723877,-0.027746953070163727,-0.22569093553799996,-0.22824879220455332
8.010756,0.04368,2.200446,0.030063,0.06871,0.978687,0.981556,-0.155581,1.000078,-0.029636,0,-0.15779399871826172,1.007834792137146,-0.02786044217646122,-0.22698543601799995,-0.22946573631882114
8.05374,0.042984,2.200305,0.025942,0.081578,0.999157,1.002817,-0.157719,1.003133,-0.025971,0,-0.15778949856758118,1.0075522661209106,-0.027746928855776787,-0.22810177348199995,-0.23065841030875786
8.107396,0.053657,2.199372,0.027639,0.06871,0.980149,0.982943,-0.154359,0.997329,-0.027192,0,-0.15758340060710907,1.006938099861145,-0.027713589370250702,-0.22956081462599995,-0.2321454383735974
8.157784,0.050388,2.200163,0.037094,0.074537,0.986485,0.989992,-0.159246,0.999773,-0.027498,0,-0.15768328309059143,1.0065076351165771,-0.02770063653588295,-0.23094638384999994,-0.2335412180473675
8.201054,0.04327,2.200657,0.039034,0.06871,0.97893,0.982115,-0.157719,1.006798,-0.026276,0,-0.15768542885780334,1.0065250396728516,-0.027615047991275787,-0.23208334636999994,-0.23473612117394999
8.244452,0.043398,2.200872,0.03273,0.066768,0.985754,0.988554,-0.15894,1.005881,-0.02872,0,-0.15776079893112183,1.0064862966537476,-0.02768143080174923,-0.23332973692999995,-0.2359374399078843
8.288574,0.044122,2.199501,0.021093,0.069196,0.99209,0.994724,-0.158024,0.997635,-0.033912,0,-0.1577766090631485,1.0059545040130615,-0.028055749833583832,-0.23482600219399996,-0.23717531570204167
8.34231,0.053736,2.197981,0.031276,0.077208,0.985997,0.98951,-0.156802,1.000689,-0.031774,0,-0.15771806240081787,1.0056381225585938,-0.02827913500368595,-0.23653340985799995,-0.23869492330059974
8.392285,0.049975,2.197931,0.033215,0.077451,0.976737,0.980366,-0.155275,1.004354,-0.030552,0,-0.15757128596305847,1.0055609941482544,-0.028415683656930923,-0.23806024605799994,-0.24011499709135486
8.435542,0.043257,2.197854,0.039761,0.081336,0.991359,0.995484,-0.161689,1.005271,-0.024444,0,-0.15781867504119873,1.00554358959198,-0.02817707322537899,-0.23911762016599994,-0.2413338527478651
8.481245,0.045703,2.197688,0.035397,0.078179,0.995989,0.999679,-0.159246,1.002522,-0.023833,0,-0.15790443122386932,1.0053620338439941,-0.027916090562939644,-0.24020685976499995,-0.24260970183486313
8.532506,0.051261,2.198381,0.026184,0.071867,0.992577,0.99552,-0.157719,0.997329,-0.02933,0,-0.15789328515529633,1.0048794746398926,-0.028001034632325172,-0.24171034489499996,-0.24404506287115074
8.575974,0.043468,2.198934,0.030548,0.070653,0.981611,0.984624,-0.154664,0.999467,-0.024749,0,-0.15769927203655243,1.004554271697998,-0.027805659919977188,-0.24278613442699995,-0.24525371929655232
8.619357,0.043383,2.199516,0.025699,0.072595,0.987703,0.990701,-0.156497,0.999773,-0.031163,0,-0.15762704610824585,1.0042669773101807,-0.02800736203789711,-0.24413807885599995,-0.2464687626838424
8.663242,0.043885,2.199784,0.037579,0.075994,0.991602,0.99522,-0.160468,1.005576,-0.026887,0,-0.15779772400856018,1.0043456554412842,-0.0279400534927845,-0.24531801485099994,-0.24769491193137325
8.705154,0.041913,2.200178,0.031518,0.070653,0.98088,0.983926,-0.155275,1.001911,-0.025665,0,-0.15764616429805756,1.0041993856430054,-0.027803372591733932,-0.24639371199599994,-0.2488602346868106
8.748981,0.043827,2.200196,0.031276,0.071138,0.984048,0.987111,-0.152526,0.998856,-0.027192,0,-0.15733855962753296,1.0038783550262451,-0.027766643092036247,-0.24758545577999994,-0.25007716335360525
8.792129,0.043147,2.200523,0.029336,0.071867,0.994039,0.997066,-0.155275,0.998551,-0.02536,0,-0.15721458196640015,1.0035582780838013,-0.027622057124972343,-0.24867966369999994,-0.25126897225237643
8.835813,0.043684,2.200864,0.032003,0.067496,0.990871,0.993683,-0.159246,1.000078,-0.027192,0,-0.15733662247657776,1.0033491849899292,-0.02759622037410736,-0.24986751902799995,-0.25247448554319896
8.879933,0.044119,2.200154,0.031518,0.068225,0.974787,0.97768,-0.154664,1.004049,-0.027498,0,-0.15717606246471405,1.0033912658691406,-0.027590319514274597,-0.25108070328999993,-0.25369174284984924
8.934204,0.054271,2.199719,0.032973,0.073566,0.985266,0.988559,-0.157413,1.006187,-0.02536,0,-0.15719029307365417,1.0035592317581177,-0.02745632641017437,-0.2524570158499999,-0.25518182514045584
8.977838,0.043633,2.199917,0.028609,0.070895,0.993308,0.996246,-0.157413,1.004965,-0.029025,0,-0.15720367431640625,1.0036436319351196,-0.02755056880414486,-0.2537234636749999,-0.2563839391090871
9.021802,0.043964,2.200016,0.026427,0.07041,0.997939,1.000768,-0.159857,1.003133,-0.02872,0,-0.15736308693885803,1.003612995147705,-0.027620825916528702,-0.2549861097549999,-0.25759826109968137
9.065633,0.043831,2.200484,0.029578,0.074052,0.991602,0.994804,-0.160468,0.996108,-0.028109,0,-0.15754961967468262,1.003162145614624,-0.027650155127048492,-0.2562181553339999,-0.25881019504905506
9.116527,0.050894,2.200296,0.032488,0.071381,0.981611,0.984739,-0.157108,1.000689,-0.029025,0,-0.15752308070659637,1.0030136108398438,-0.02773275226354599,-0.2576953536839999,-0.260221625742756
9.160247,0.04372,2.200996,0.030548,0.071381,0.980392,0.983462,-0.15894,1.004049,-0.029025,0,-0.15760821104049683,1.0030758380889893,-0.027810387313365936,-0.2589643266839999,-0.2614374958760963
9.203959,0.043713,2.201882,0.031276,0.069681,0.994527,0.997455,-0.157719,1.00466,-0.031163,0,-0.15761487185955048,1.0031709671020508,-0.028011804446578026,-0.2603265549029999,-0.2626619758838696
9.255884,0.051924,2.202111,0.033458,0.071624,0.988678,0.991834,-0.157108,1.002216,-0.029941,0,-0.15758441388607025,1.0031136274337769,-0.028127705678343773,-0.2618812113869999,-0.2641224788735119
9.299001,0.043118,2.20177,0.032245,0.067254,0.978199,0.981038,-0.153137,1.010463,-0.028109,0,-0.15731722116470337,1.003555178642273,-0.028126582503318787,-0.26309321524899987,-0.26533524085789
9.349655,0.050653,2.201414,0.029821,0.075023,0.984292,0.987597,-0.159246,1.01199,-0.025665,0,-0.15743309259414673,1.0040619373321533,-0.027978695929050446,-0.2643932244939999,-0.2667524457427842
9.39327,0.043615,2.201521,0.034912,0.071381,0.98551,0.988708,-0.157108,1.014434,-0.025971,0,-0.1574135571718216,1.0046850442886353,-0.027858078479766846,-0.2655259496589999,-0.26796747583567926
9.437005,0.043735,2.201838,0.03176,0.06871,0.99867,1.001534,-0.157413,1.009547,-0.029941,0,-0.1574135273694992,1.0049771070480347,-0.02798321656882763,-0.2668354192939999,-0.2691913218123169
9.481482,0.044478,2.201806,0.031033,0.066768,0.987947,0.990687,-0.159857,1.009852,-0.029636,0,-0.1575603187084198,1.005270004272461,-0.028082512319087982,-0.2681535693019999,-0.2704403757952453
9.525613,0.04413,2.20235,0.032245,0.06604,0.984779,0.987517,-0.154359,1.011074,-0.027803,0,-0.1573679894208908,1.005618691444397,-0.028065720573067665,-0.2693805156919999,-0.2716789160441348
9.569354,0.043741,2.202776,0.028366,0.072838,0.991846,0.994921,-0.160773,1.014434,-0.027803,0,-0.15757255256175995,1.006148338317871,-0.028049936518073082,-0.2705966467149999,-0.27290584831737186
9.612757,0.043403,2.202893,0.029094,0.065311,0.982098,0.984697,-0.154359,1.013212,-0.03269,0,-0.15737949311733246,1.0065727233886719,-0.028328701853752136,-0.27201549078499987,-0.27413539896393024
9.65637,0.043613,2.203024,0.033215,0.072352,0.997207,1.00038,-0.158635,1.011379,-0.03269,0,-0.15745492279529572,1.0068614482879639,-0.028590718284249306,-0.27344119975499986,-0.2753823259604612
9.700435,0.044065,2.20275,0.0337,0.072838,0.986241,0.989501,-0.157108,1.005271,-0.029025,0,-0.15743407607078552,1.0067658424377441,-0.028616808354854584,-0.27472018637999984,-0.2766433256206179
9.750937,0.050501,2.201719,0.029094,0.073809,0.980636,0.98384,-0.156192,1.011685,-0.02933,0,-0.15735945105552673,1.0070613622665405,-0.028659654781222343,-0.27620138070999983,-0.2780906668467244
9.801411,0.050475,2.201377,0.032488,0.073809,0.998913,1.002163,-0.159857,1.012295,-0.031163,0,-0.15750950574874878,1.0073758363723755,-0.0288100503385067,-0.27777433313499983,-0.27954485413756053
9.853607,0.052196,2.200711,0.028609,0.066525,0.980636,0.983306,-0.157719,1.014128,-0.031469,0,-0.15752209722995758,1.0077815055847168,-0.028969794511795044,-0.2794168890589998,-0.2810569615318982
9.898185,0.044578,2.199865,0.029578,0.068953,0.989653,0.992493,-0.156497,1.009241,-0.032996,0,-0.1574605107307434,1.0078692436218262,-0.029211679473519325,-0.2808877847469998,-0.28235915977946874
9.942047,0.043861,2.199179,0.036852,0.081093,0.999157,1.00312,-0.162911,1.009547,-0.028414,0,-0.1577879637479782,1.0079700946807861,-0.02916375733911991,-0.2821340512009998,-0.28363831134011985
9.992643,0.050596,2.198828,0.031276,0.06871,0.973325,0.976249,-0.155581,1.007409,-0.027192,0,-0.15765537321567535,1.0079363584518433,-0.02904529869556427,-0.28350985763299985,-0.28510788727292063
10.043758,0.051115,2.199723,0.036124,0.075994,0.998426,1.001965,-0.160162,1.009852,-0.025665,0,-0.15780596435070038,1.0080513954162598,-0.028842218220233917,-0.28482172410799983,-0.2865821572572479
