timestamp,dt,accel_raw_x_g,accel_raw_y_g,accel_raw_z_g,accel_raw_x_mps2,accel_raw_y_mps2,accel_raw_z_mps2,accel_filt_x_mps2,accel_filt_y_mps2,accel_filt_z_mps2,gyro_x,gyro_y,gyro_z,step_state,step_count,velocity_x,velocity_y,velocity_z,pos_x,pos_y,pos_z
1769097439.2355738,0.05874276161193848,-0.015303810127079487,-0.09263074398040771,0.9986696839332581,-0.15013037734664977,-0.9087075984477997,9.796949599385263,-0.1468300026614523,-0.8887311246177308,9.581579432325011,0.04369953274726868,-0.06984332203865051,0.0025404945481568575,INITIALIZING,0,-0.008625199843821985,-0.05220652059052935,0.5628484364589209,-0.0005066680582809639,-0.003066755193638223,0.03306327152655869
1769097439.2703416,0.03454923629760742,0.019395673647522926,-0.11627087742090225,0.9945268034934998,0.19027155848219993,-1.140617307499051,9.756307942271233,0.023592669681145956,-1.0160729152258083,9.669913937506331,-0.009426161646842957,-0.0031756204552948475,0.0003991455305367708,INITIALIZING,0,-0.007810091124116674,-0.08731106383426462,0.8969365780633546,-0.0007765007420339172,-0.006083285769443717,0.06405174530603694
1769097439.305849,0.03702974319458008,0.019880564883351326,-0.11723578721284866,0.9935520887374878,0.19502834150567652,-1.1500830725580455,9.746745990514755,0.08442449287906982,-1.0636247584962364,9.697176839181344,-0.009081697091460228,-0.002504505217075348,-0.0013957658084109426,INITIALIZING,0,-0.004683873833472064,-0.12669681549677753,1.2560205461306695,-0.0009499433872432011,-0.010774836310860483,0.11056186357637185
1769097439.3503413,0.042992353439331055,0.019395673647522926,-0.11723578721284866,0.9937956929206848,0.19027155848219993,-1.1500830725580455,9.749135747551918,0.11462771981017737,-1.0882954478990097,9.712003199191107,-0.00964961014688015,-0.00152517668902874,-0.0013643846614286304,INITIALIZING,0,0.00024424161055169175,-0.17348519803926685,1.6735624202742074,-0.0009394428655977714,-0.018233373261456985,0.18251225065158289
1769097439.3884242,0.038103580474853516,0.019395673647522926,-0.11699455976486206,0.9945268034934998,0.19027155848219993,-1.147716631293297,9.756307942271233,0.1333876059778265,-1.1030320696251639,9.722990900918855,-0.008747570216655731,-0.0029606963507831097,0.00016239983960986137,INITIALIZING,0,0.005326786989275856,-0.2155146692705735,2.0440431865236377,-0.0007364732088794961,-0.026445253805519722,0.2603976147033623
1769097439.4308066,0.04237008094787598,0.019153228029608727,-0.11723578721284866,0.9925772547721863,0.18789316697046163,-1.1500830725580455,9.737182869315149,0.14572079985585903,-1.1136784904812949,9.726202175044921,-0.008120376616716385,0.00043623149394989014,-0.00012312410399317741,INITIALIZING,0,0.011500989074957838,-0.2627013170621743,2.4561431599956984,-0.0002491753707928953,-0.037575929874557684,0.36446459921195196
1769097439.4696813,0.0388641357421875,0.019638117402791977,-0.11675333231687546,0.9945268034934998,0.1926499317213893,-1.1453501900285483,9.756307942271233,0.15571875288364911,-1.120425944606188,9.732616017249732,-0.006338125094771385,-0.002235579304397106,0.00167772825807333,INITIALIZING,0,0.01755286382463213,-0.30624570306241783,2.8343928700166803,0.0004330015115517402,-0.04947790444883714,0.47462082845896864
1769097439.5096383,0.039942264556884766,0.019638117402791977,-0.11675333231687546,0.9937956929206848,0.1926499317213893,-1.1453501900285483,9.749135747551918,0.16328092272326739,-1.125529528703417,9.735998660592873,-0.008478794246912003,-0.0033774031326174736,0.07432452589273453,INITIALIZING,0,0.024074673637137133,-0.35120190126447554,3.2232707042435567,0.0013945984950869308,-0.06350570370202374,0.603365559666321
1769097439.547526,0.0382080078125,0.020365456119179726,-0.11554720252752304,0.9945268034934998,0.19978512452915312,-1.1335180567950012,9.756307942271233,0.17056325465922653,-1.127123183964036,9.740050219680487,-0.007575402036309242,-0.002083822153508663,-0.002876843325793743,INITIALIZING,0,0.030591555803682287,-0.3942670326830233,3.595418619131251,0.0025634408982305535,-0.07856986156698789,0.7407393423552958
1769097439.593666,0.04584789276123047,0.018668334931135178,-0.11651210486888885,0.9959890246391296,0.1831363656744361,-1.1429837487637997,9.770652331709861,0.17302885480927166,-1.130233457221211,9.746051325685203,-0.007333001121878624,-0.004426855128258467,-0.0015898521523922682,INITIALIZING,0,0.03852456418357629,-0.44608585502485615,4.042254535156714,0.004329710985592299,-0.0990219580104693,0.9260681947967584
1769097439.6307333,0.0370478630065918,0.019395673647522926,-0.11771823465824127,0.9972074627876282,0.19027155848219993,-1.1548158819973469,9.782605209946633,0.17637226669096923,-1.1350000630062718,9.75313923331733,-0.0071390550583601,-0.002502742689102888,-0.0012264675460755825,INITIALIZING,0,0.04505877975810539,-0.48813518187158556,4.403587501356871,0.005999042485314779,-0.11710632335714558,1.0892117012845677
1769097439.6623647,0.03163909912109375,0.019638117402791977,-0.11675333231687546,0.9959890246391296,0.1926499317213893,-1.1453501900285483,9.770652331709861,0.17950526447070433,-1.1369921745849392,9.756510017657563,-0.0059850625693798065,-0.0027044820599257946,3.074994310736656e-05,INITIALIZING,0,0.05073816461345215,-0.5241085899831863,4.712274688881482,0.007604352304742164,-0.1336886469858403,1.23830382725191
1769097439.7025073,0.04012608528137207,0.019395673647522926,-0.11747701466083527,1.060325026512146,0.19027155848219993,-1.152449513822794,10.401788510084153,0.18156741970515095,-1.1399528435937851,9.880105418211599,-0.0059850625693798065,-0.003315347246825695,-0.0005801152437925339,INITIALIZING,0,0.058023754380859716,-0.5698504350019732,5.1087246414815874,0.009932618421373926,-0.15655451413835644,1.443296947895047
1769097439.7425032,0.04002547264099121,0.01769855059683323,-0.11699455976486206,0.9989133477210999,0.17362278135493397,-1.147716631293297,9.79933994114399,0.18005057319056705,-1.1414351608237006,9.864685102397555,-0.006350845098495483,-0.004110788460820913,-0.0008560316637158394,INITIALIZING,0,0.06523036367209355,-0.6155369168029876,5.503563325159594,0.012543494557893213,-0.1811916701613745,1.663579671194185
1769097439.7821906,0.04058265686035156,0.021335240453481674,-0.11699455976486206,0.9989133477210999,0.20929870884865523,-1.147716631293297,9.79933994114399,0.18562313001309888,-1.1426319499637017,9.852235090936318,-0.0055436138063669205,-0.0009909668006002903,-0.001998414285480976,STATIONARY,0,0.0,0.0,0.0,0.015496428415919975,-0.20805365365936848,1.9031550517886984
1769097439.8429184,0.06029629707336426,0.019395673647522926,-0.11892437189817429,0.9991570711135864,0.19027155848219993,-1.16664808832109,9.801730867624283,0.1865075614763958,-1.1472013713351084,9.842625924220416,-0.005929155275225639,-0.001268330030143261,-0.0013362534809857607,STATIONARY,0,0.0,0.0,0.0,0.016174503408453663,-0.21222446880029316,1.9389393301699387
1769097439.9020262,0.05941367149353027,0.019153228029608727,-0.11675333231687546,0.999400794506073,0.18789316697046163,-1.1453501900285483,9.804121794104576,0.18677095483393585,-1.146849475458657,9.835306573832586,-0.003919638693332672,-0.0015011196956038475,-0.0015718260547146201,STATIONARY,0,0.0,0.0,0.0,0.016833801957983438,-0.21627282951232765,1.973657808554728
1769097439.990199,0.08785533905029297,0.019153228029608727,-0.11675333231687546,0.999400794506073,0.18789316697046163,-1.1453501900285483,9.804121794104576,0.18698415242347272,-1.1465646415762534,9.829382096942831,-0.006446264684200287,-0.0011406922712922096,-0.0027862442657351494,STATIONARY,0,0.0,0.0,0.0,0.018277050469636697,-0.2251226581797407,2.049526489927017
1769097440.0404766,0.050275325775146484,0.020123012363910675,-0.11675333231687546,0.9996444582939148,0.19740675128996374,-1.1453501900285483,9.806512135863304,0.18896346343943962,-1.1463340102953683,9.82503896079423,-0.0038643404841423035,-0.0013878298923373222,-0.0020675421692430973,STATIONARY,0,0.0,0.0,0.0,0.018754676103679636,-0.22802014163250237,2.0743603407558036
1769097440.100976,0.0604705810546875,0.019153228029608727,-0.11771823465824127,0.9996444582939148,0.18789316697046163,-1.1548158819973469,9.806512135863304,0.1887602600452585,-1.1479443539420187,9.821521511359908,-0.00429576076567173,-0.001341572031378746,-0.0013980306684970856,STATIONARY,0,0.0,0.0,0.0,0.019444914080417593,-0.2322178196187624,2.110274611772722
1769097440.1513407,0.05038118362426758,0.020123012363910675,-0.11820068955421448,0.999400794506073,0.19740675128996374,-1.159548764526844,9.804121794104576,0.190401582078852,-1.150147163641433,9.818218606343152,-0.0032264459878206253,-0.0009915092960000038,-0.002837788313627243,STATIONARY,0,0.0,0.0,0.0,0.019928203497658822,-0.23513719637177552,2.135195839300345
1769097440.2021816,0.05084729194641113,0.020123012363910675,-0.11868314445018768,1.0015939474105835,0.19740675128996374,-1.1642816470563413,9.825636624097825,0.19173119313739262,-1.1528299490087601,9.819626577819903,-0.006677074357867241,-0.0021647061221301556,-0.0030485480092465878,STATIONARY,0,0.0,0.0,0.0,0.02042391435460634,-0.2381177772182546,2.160583964342198
1769097440.258169,0.05597066879272461,0.019638117402791977,-0.11723578721284866,1.000862956047058,0.1926499317213893,-1.1500830725580455,9.818465598821641,0.19190556102038253,-1.1523086178707314,9.81940623500025,-0.0025657713413238525,-0.0011967029422521591,-0.0032421895302832127,STATIONARY,0,0.0,0.0,0.0,0.021025099931026185,-0.24172763259172447,2.1913453730585526
1769097440.303104,0.04631662368774414,0.018668334931135178,-0.11723578721284866,1.0006192922592163,0.1831363656744361,-1.1500830725580455,9.816075257062913,0.19024132990406636,-1.151886250525265,9.818774076984333,-0.003625931218266487,-0.0020627607591450214,-0.00043143052607774734,STATIONARY,0,0.0,0.0,0.0,0.021433211268755054,-0.2441986931065475,2.212408898137127
1769097440.3528757,0.04972529411315918,0.022062579169869423,-0.11795946210622787,1.0025688409805298,0.21643390165641904,-1.1571823232620955,9.835200330018997,0.1952120405365758,-1.1528913158282221,9.821891378766827,-0.003169447183609009,-0.0014236904680728912,-0.0021633286960422993,STATIONARY,0,0.0,0.0,0.0,0.021915893511774247,-0.24704933779399468,2.236694554638452
1769097440.4031184,0.04886937141418457,0.019153228029608727,-0.11795946210622787,1.0042747259140015,0.18789316697046163,-1.1571823232620955,9.851935061216356,0.19382312547887406,-1.1537056275913342,9.827592819373228,-0.005150759592652321,-0.002007117960602045,-0.003302514087408781,STATIONARY,0,0.0,0.0,0.0,0.022378784897016984,-0.24980463541288642,2.2601649637680223
1769097440.4862082,0.08315491676330566,0.018183445557951927,-0.11675333231687546,1.002325177192688,0.1783796009235084,-1.1453501900285483,9.83280998826027,0.19089242103271437,-1.1521200233513773,9.828582877050723,-0.0031722374260425568,-0.0001636585220694542,-0.0022965874522924423,STATIONARY,0,0.0,0.0,0.0,0.023698756391154412,-0.25777124603273993,2.32812706071922
1769097440.5516148,0.06521773338317871,0.018425889313220978,-0.11723578721284866,1.0040310621261597,0.1807579741626978,-1.1500830725580455,9.849544719457628,0.18896923269937477,-1.1517334763546279,9.832560752832137,-0.0033213794231414795,-0.0025605978444218636,-0.0022099455818533897,STATIONARY,0,0.0,0.0,0.0,0.024502509196275606,-0.26266997477894116,2.3699484100136097
1769097440.596806,0.045189619064331055,0.020607901737093925,-0.11795946210622787,1.002325177192688,0.20216351604089142,-1.1571823232620955,9.83280998826027,0.19147306394216554,-1.1527674842481201,9.832608049334388,-0.0035059265792369843,-0.0021900925785303116,-0.0024416325613856316,STATIONARY,0,0.0,0.0,0.0,0.024893516660137734,-0.26502404318500544,2.390027595343207
1769097440.6419218,0.04525279998779297,0.020607901737093925,-0.11771823465824127,1.0020813941955566,0.20216351604089142,-1.1548158819973469,9.83041847705841,0.19350174450131383,-1.1531561997722986,9.832192543734802,-0.0036792755126953125,-3.5188160836696625e-05,-0.0017899341182783246,STATIONARY,0,0.0,0.0,0.0,0.025289772610508535,-0.2673854947938495,2.4101621156323505
1769097440.6944182,0.052442073822021484,0.019880564883351326,-0.11747701466083527,1.0032999515533447,0.19502834150567652,-1.152449513822794,9.842372524738312,0.1937914394458446,-1.153022095390882,9.83412434959038,-0.0035112183541059494,-0.0003090794198215008,-0.0038121805991977453,STATIONARY,0,0.0,0.0,0.0,0.02582273222800883,-0.2705565028460428,2.437207640278823
1769097440.7417316,0.04717874526977539,0.020607901737093925,-0.11771823465824127,1.004762053489685,0.20216351604089142,-1.1548158819973469,9.85671574473381,0.19538016540322461,-1.1533624930582156,9.838411402565868,-0.003119122236967087,-0.0008741412311792374,-0.0013079578056931496,STATIONARY,0,0.0,0.0,0.0,0.02625761604411086,-0.27312369630344907,2.4591063109361
1769097440.7892601,0.0481410026550293,0.020365456119179726,-0.11723578721284866,1.004762053489685,0.19978512452915312,-1.1500830725580455,9.85671574473381,0.19621607096269378,-1.1527401749504735,9.841884919786617,-0.00332050584256649,0.0012369006872177124,-0.0015697086928412318,STATIONARY,0,0.0,0.0,0.0,0.026712357803476177,-0.27579523636984726,2.4819154317279732
1769097440.842734,0.05303668975830078,0.019880564883351326,-0.11771823465824127,1.0052495002746582,0.19502834150567652,-1.1548158819973469,9.861497597694397,0.19599068204847886,-1.1531340705087245,9.845606710260336,-0.00533716008067131,-0.00027554063126444817,-0.002423333702608943,STATIONARY,0,0.0,0.0,0.0,0.027263658123360807,-0.2790388761964798,2.509610044921279
1769097440.8903623,0.047504425048828125,0.019153228029608727,-0.11699455976486206,1.0025688409805298,0.18789316697046163,-1.147716631293297,9.835200330018997,0.1944540616727949,-1.152106033215524,9.843631949390874,-0.004323981702327728,-0.0026435148902237415,-0.0017671982059255242,STATIONARY,0,0.0,0.0,0.0,0.027702476848345852,-0.2816387997783998,2.531823877762283
1769097440.944687,0.05450272560119629,0.020123012363910675,-0.11675333231687546,1.0035436153411865,0.19740675128996374,-1.1453501900285483,9.84476286649704,0.19501437697978455,-1.1508240148390332,9.843846557171467,-0.004790551960468292,0.0019188029691576958,-0.0011026500724256039,STATIONARY,0,0.0,0.0,0.0,0.02828177623994349,-0.2850573767159417,2.5610654875854455
1769097440.9992812,0.05441474914550781,0.020123012363910675,-0.11723578721284866,1.0045183897018433,0.19740675128996374,-1.1500830725580455,9.854325402975084,0.19546836431058923,-1.150683410416475,9.8458350684241,-0.0034296829253435135,8.333288133144379e-05,0.00014034658670425415,STATIONARY,0,0.0,0.0,0.0,0.028860551210529932,-0.28846450993346784,2.590218659876136
1769097441.046746,0.047461509704589844,0.020123012363910675,-0.11747701466083527,1.0059806108474731,0.19740675128996374,-1.152449513822794,9.868669792413712,0.19583620098713597,-1.151018553818866,9.850168284170788,-0.00031742267310619354,0.000996595248579979,-0.0004548358265310526,STATIONARY,0,0.0,0.0,0.0,0.029301690838782386,-0.2910572884615638,2.6124070987510746
1769097441.0920982,0.04561567306518555,0.018668334931135178,-0.11699455976486206,1.004762053489685,0.1831363656744361,-1.147716631293297,9.85671574473381,0.19342622565133247,-1.1503919668079778,9.851410758429745,-0.0005617197602987289,0.0010138479992747307,0.0008574154926463962,STATIONARY,0,0.0,0.0,0.0,0.02970417012313102,-0.2934510121356012,2.632905812090105
1769097441.1401322,0.047980546951293945,0.020365456119179726,-0.11868314445018768,1.0064680576324463,0.19978512452915312,-1.1642816470563413,9.873451645374299,0.19463291756615586,-1.1530277320838878,9.855593331636609,-0.0001972746104001999,-0.000501253642141819,-6.196682807058096e-05,STATIONARY,0,0.0,0.0,0.0,0.030152240963308628,-0.2961054351958079,2.655594697607398
1769097441.196618,0.05701589584350586,0.019395673647522926,-0.11747701466083527,1.0050058364868164,0.19027155848219993,-1.152449513822794,9.859107255935669,0.19380528739780303,-1.152918006911628,9.856260148952778,-0.003453614190220833,-0.0007999874651432037,-0.0003702947869896889,STATIONARY,0,0.0,0.0,0.0,0.030782265590665568,-0.2998533553244609,2.687635550108656
1769097441.25114,0.05396437644958496,0.020123012363910675,-0.11723578721284866,1.0071990489959717,0.19740675128996374,-1.1500830725580455,9.880622670650483,0.19448871658520384,-1.152380037647013,9.86088328523998,-0.0024477001279592514,-0.00046292925253510475,-0.0009484569891355932,STATIONARY,0,0.0,0.0,0.0,0.03134864667015262,-0.3032092633748691,2.7163519600775774
1769097441.3056626,0.05446267127990723,0.019638117402791977,-0.11747701466083527,1.0052495002746582,0.1926499317213893,-1.152449513822794,9.861497597694397,0.19413978091271178,-1.152393221742986,9.860999859796156,-0.001470264047384262,0.0001530987210571766,0.001144874724559486,STATIONARY,0,0.0,0.0,0.0,0.03192450070306953,-0.30662747205485713,2.7456014859148903
1769097441.364267,0.05859780311584473,0.018910780549049377,-0.11795946210622787,1.0059806108474731,0.1855147571861744,-1.1571823232620955,9.868669792413712,0.19250305957467997,-1.1533020221005097,9.86245533896635,-0.0025972221046686172,-0.0004576491191983223,-0.0009650978608988225,STATIONARY,0,0.0,0.0,0.0,0.032585498945764485,-0.3105875681260016,2.7794662237643437
1769097441.4186292,0.054259300231933594,0.019153228029608727,-0.11820068955421448,1.0059806108474731,0.18789316697046163,-1.159548764526844,9.868669792413712,0.1916282666722446,-1.1544874306136925,9.863634620185026,-0.002826094627380371,-0.00042725400999188423,0.0014745112275704741,STATIONARY,0,0.0,0.0,0.0,0.03314966629524709,-0.313986461854213,2.8085054709305903
1769097441.4600348,0.0415189266204834,0.020123012363910675,-0.11699455976486206,1.006711721420288,0.19740675128996374,-1.147716631293297,9.875841987133027,0.19272481657948007,-1.153202574832659,9.865951142245736,-3.425218164920807e-05,0.0004828372038900852,0.0011503002606332302,STATIONARY,0,0.0,0.0,0.0,0.033481889432883674,-0.3159743769786956,2.825512607335851
1769097441.5097845,0.049669742584228516,0.020123012363910675,-0.11820068955421448,1.0069553852081299,0.19740675128996374,-1.159548764526844,9.878232328891755,0.19361328049291815,-1.154406854874944,9.868281672640522,-0.0014942307025194168,0.00018663238734006882,0.000511361169628799,STATIONARY,0,0.0,0.0,0.0,0.033959549529341396,-0.31882239488452924,2.8498584805302154
1769097441.5610952,0.05132269859313965,0.019638117402791977,-0.11651210486888885,1.0069553852081299,0.1926499317213893,-1.1429837487637997,9.878232328891755,0.19343047131875957,-1.1522391575090254,9.870169951637065,-0.003251267597079277,-0.0016163368709385395,0.0018115963321179152,STATIONARY,0,0.0,0.0,0.0,0.034469049141582504,-0.3218574151683418,2.875856699574131
1769097441.6176133,0.05649828910827637,0.019153228029608727,-0.11747701466083527,1.0069553852081299,0.18789316697046163,-1.152449513822794,9.878232328891755,0.19237968881547826,-1.1522790756208103,9.871699902750676,0.0001351572573184967,-0.0003663124516606331,0.001455961843021214,STATIONARY,0,0.0,0.0,0.0,0.03508313601085447,-0.3255355552798703,2.9073677251142906
1769097441.6767874,0.05924391746520996,0.018910780549049377,-0.11795946210622787,1.004762053489685,0.1855147571861744,-1.1571823232620955,9.85671574473381,0.191076970094871,-1.1532095368167834,9.868856444983699,-0.004058396443724632,-0.0018404582515358925,0.0011020868550986052,STATIONARY,0,0.0,0.0,0.0,0.03575378593922276,-0.3295831382663276,2.9420058495550285
1769097441.7336159,0.0567317008972168,0.019153228029608727,-0.11771823465824127,1.0069553852081299,0.18789316697046163,-1.1548158819973469,9.878232328891755,0.19047279802811637,-1.153514363732814,9.870635652722692,-0.0009907912462949753,-0.000883263535797596,0.0013454643776640296,STATIONARY,0,0.0,0.0,0.0,0.036366819951474845,-0.33329570796609737,2.973774351095988
1769097441.7836525,0.05010366439819336,0.019880564883351326,-0.11723578721284866,1.0071990489959717,0.19502834150567652,-1.1500830725580455,9.880622670650483,0.19133727739743697,-1.1528632272777828,9.872530831860404,0.00023838132619857788,0.0009277844801545143,0.0010003193747252226,STATIONARY,0,0.0,0.0,0.0,0.036847148687508983,-0.33618982951058,2.998558127265624
1769097441.837323,0.05382680892944336,0.018425889313220978,-0.11771823465824127,1.0074427127838135,0.1807579741626978,-1.1548158819973469,9.883013012409211,0.18932970367300825,-1.1532337713694774,9.874519975169521,-0.0009051486849784851,-0.0006096828728914261,0.002778867492452264,STATIONARY,0,0.0,0.0,0.0,0.037395698439272484,-0.3395311229618315,3.0271678244028366
1769097441.8873832,0.0498201847076416,0.019880564883351326,-0.11844190955162048,1.006711721420288,0.19502834150567652,-1.161915132701397,9.875841987133027,0.19041110150444068,-1.1548811835395227,9.874770845800791,-0.0038830190896987915,-0.0005843141116201878,0.001225125277414918,STATIONARY,0,0.0,0.0,0.0,0.0378683084669099,-0.3423975967323108,3.0516775073229696
1769097441.9555268,0.06819558143615723,0.019880564883351326,-0.11675333231687546,1.0071990489959717,0.19502834150567652,-1.1453501900285483,9.880622670650483,0.19128728866892478,-1.1530725415419523,9.875881313054116,-0.001712065190076828,1.55717134475708e-05,0.00029348675161600113,STATIONARY,0,0.0,0.0,0.0,0.038757916271853717,-0.34776011893522374,3.097606649598585
1769097442.0066998,0.051133155822753906,0.019153228029608727,-0.11627087742090225,1.006711721420288,0.18789316697046163,-1.140617307499051,9.875841987133027,0.1906432056526869,-1.1507089831834134,9.875873850399525,-0.0001837853342294693,0.0011960621923208237,0.0020855003967881203,STATIONARY,0,0.0,0.0,0.0,0.039256371925746505,-0.35076876221044195,3.1234281056584026
1769097442.060093,0.053365230560302734,0.019395673647522926,-0.11651210486888885,1.0079301595687866,0.19027155848219993,-1.1429837487637997,9.887794865369797,0.1905726802997977,-1.149243009736391,9.878136033067227,-0.004056315869092941,0.00086599076166749,-0.0003864058817271143,STATIONARY,0,0.0,0.0,0.0,0.03979909392032046,-0.3540416314250277,3.1515595339518248
1769097442.1128266,0.05302166938781738,0.019638117402791977,-0.11723578721284866,1.0086612701416016,0.1926499317213893,-1.1500830725580455,9.894967060089112,0.19096686839317425,-1.1494024236419695,9.881329960572758,-8.788146078586578e-05,-0.002420742530375719,0.0017083804123103619,STATIONARY,0,0.0,0.0,0.0,0.04033595858563168,-0.357272943498523,3.1793388914223075
1769097442.1591783,0.0465848445892334,0.019638117402791977,-0.11771823465824127,1.006711721420288,0.1926499317213893,-1.1548158819973469,9.875841987133027,0.19128625367194813,-1.1504297045986502,9.880288539315716,-0.0006855502724647522,-0.0008436078205704689,0.00045528821647167206,STATIONARY,0,0.0,0.0,0.0,0.04075107801776445,-0.3597695459282024,3.200780577319835
1769097442.210171,0.05051469802856445,0.019638117402791977,-0.11723578721284866,1.0076864957809448,0.1926499317213893,-1.1500830725580455,9.885404523611069,0.19154503103740533,-1.150363926223551,9.881259370325436,-0.0006626993417739868,-0.0005252840928733349,0.0013410109095275402,STATIONARY,0,0.0,0.0,0.0,0.041239850123315554,-0.3627049694958361,3.2259949299019564
1769097442.2559915,0.046041011810302734,0.020850349217653275,-0.11723578721284866,1.0084174871444702,0.20454192582517863,-1.1500830725580455,9.892575548887253,0.19401137724988207,-1.1503106302335864,9.883406776655285,-0.0015465561300516129,-0.0008080750703811646,0.00043074513087049127,STATIONARY,0,0.0,0.0,0.0,0.041651110545614975,-0.3651433689457615,3.2469455262140947
1769097442.3123612,0.05685281753540039,0.020123012363910675,-0.11699455976486206,1.0089049339294434,0.19740675128996374,-1.147716631293297,9.89735740184784,0.19465569791573298,-1.1498183819261263,9.88605410681891,-0.0012048017233610153,-0.00018558930605649948,0.0013071917928755283,STATIONARY,0,0.0,0.0,0.0,0.04228028503569497,-0.36885986120300923,3.278899654031374
1769097442.373317,0.06032991409301758,0.020850349217653275,-0.11771823465824127,1.008173942565918,0.20454192582517863,-1.1548158819973469,9.890186376571656,0.1965317507081941,-1.150766728863888,9.886838263959516,-0.002065543085336685,-0.0007951436564326286,0.0009734166669659317,STATIONARY,0,0.0,0.0,0.0,0.04299560136072458,-0.373048305179573,3.314884764771258
1769097442.4225006,0.04913926124572754,0.019153228029608727,-0.11651210486888885,1.0079301595687866,0.18789316697046163,-1.1429837487637997,9.887794865369797,0.19489245619743734,-1.1492897973502563,9.887019792724933,-0.002337370067834854,0.0012981253676116467,0.002152262954041362,STATIONARY,0,0.0,0.0,0.0,0.043466201742430224,-0.3758234573218166,3.3387586251513337
1769097442.4818285,0.059430837631225586,0.020607901737093925,-0.11771823465824127,1.0091487169265747,0.20216351604089142,-1.1548158819973469,9.899748913049699,0.19627224353881337,-1.1503384507525924,9.88943532491269,-0.0016689598560333252,-0.0008320966735482216,0.002125949366018176,STATIONARY,0,0.0,0.0,0.0,0.044159440107732435,-0.37988648086893523,3.373688352629833
1769097442.533648,0.05185389518737793,0.019395673647522926,-0.11844190955162048,1.0076864957809448,0.19027155848219993,-1.161915132701397,9.885404523611069,0.19513352793765584,-1.15253529131669,9.888670422858338,-0.002534417435526848,-0.0023008110001683235,0.0008690333343110979,STATIONARY,0,0.0,0.0,0.0,0.044684120298172696,-0.38298544824029523,3.4002772711796165
1769097442.5866714,0.05293011665344238,0.019880564883351326,-0.11675333231687546,1.0079301595687866,0.19502834150567652,-1.1453501900285483,9.887794865369797,0.19511356731149485,-1.151171815837556,9.888504273333325,-0.0012638885527849197,0.0007536350749433041,0.0033232145942747593,STATIONARY,0,0.0,0.0,0.0,0.04523074993158482,-0.38621056803261106,3.427980877547988
1769097442.6428175,0.056208133697509766,0.019153228029608727,-0.11675333231687546,1.008173942565918,0.18789316697046163,-1.1453501900285483,9.890186376571656,0.19374339333346427,-1.150067079283268,9.888823476421335,-0.0012116674333810806,0.0016546482220292091,0.0005501314299181104,STATIONARY,0,0.0,0.0,0.0,0.04584285395319997,-0.3898440373976534,3.459223174458426
1769097442.6969175,0.05408167839050293,0.018910780549049377,-0.11723578721284866,1.008173942565918,0.1855147571861744,-1.1500830725580455,9.890186376571656,0.19218189222671514,-1.1500701142353327,9.88908210616933,-0.0017668325453996658,0.00101908715441823,0.0013973636087030172,STATIONARY,0,0.0,0.0,0.0,0.04640495292067278,-0.39320779459789157,3.4881470380791155
1769097442.7425177,0.04546952247619629,0.019880564883351326,-0.11723578721284866,1.008173942565918,0.19502834150567652,-1.1500830725580455,9.890186376571656,0.19272204658763759,-1.1500725732619437,9.889291657232777,-0.0020435694605112076,0.0004148031584918499,0.0028472375124692917,STATIONARY,0,0.0,0.0,0.0,0.04680340141077701,-0.3955855437368212,3.50859292581637
1769097442.7981434,0.0558171272277832,0.019395673647522926,-0.11699455976486206,1.010123372077942,0.19027155848219993,-1.147716631293297,9.909310280084611,0.1922570315085621,-1.1496254996612123,9.893090476524236,0.0007070489227771759,-0.0016960701905190945,0.00305768265388906,STATIONARY,0,0.0,0.0,0.0,0.047402388130585206,-0.399167261407414,3.5394153605892433
1769097442.8576865,0.059429168701171875,0.020123012363910675,-0.11675333231687546,1.0089049339294434,0.19740675128996374,-1.1453501900285483,9.89735740184784,0.19323426430804028,-1.1488141986626506,9.893900186480534,-0.0004874337464570999,0.0007426673546433449,0.001835322706028819,STATIONARY,0,0.0,0.0,0.0,0.04808485794723577,-0.4032246733696994,3.574358895424568
1769097442.9216347,0.0638892650604248,0.019395673647522926,-0.11723578721284866,1.010123372077942,0.19027155848219993,-1.1500830725580455,9.909310280084611,0.19267204860871767,-1.1490549855873022,9.89682447159743,-0.00019107572734355927,0.0004277080297470093,0.0014435681514441967,STATIONARY,0,0.0,0.0,0.0,0.0488713140733849,-0.407914929892235,3.614756131512077
1769097442.9687073,0.04722142219543457,0.020365456119179726,-0.11723578721284866,1.0091487169265747,0.19978512452915312,-1.1500830725580455,9.899748913049699,0.19402185624674326,-1.1492500797576986,9.89737942608595,-0.0005001481622457504,0.00010810606181621552,0.002561320550739765,STATIONARY,0,0.0,0.0,0.0,0.049303956176361526,-0.4104775997943315,3.636825928862195
1769097443.0204234,0.05162453651428223,0.021092794835567474,-0.11747701466083527,1.008173942565918,0.20692031733691693,-1.152449513822794,9.890186376571656,0.19646952326071013,-1.1498572180178173,9.896014442317508,0.0001322627067565918,-0.0013969941064715385,0.0018198330653831363,STATIONARY,0,0.0,0.0,0.0,0.04982756568239077,-0.4135420759529647,3.663199725407343
1769097443.0748641,0.054377079010009766,0.018425889313220978,-0.11723578721284866,1.0079301595687866,0.1807579741626978,-1.1500830725580455,9.887794865369797,0.1934880326629812,-1.1499000771390882,9.894454660323127,-0.004000630229711533,0.0013270280323922634,0.0005680731264874339,STATIONARY,0,0.0,0.0,0.0,0.05039968400721157,-0.4169421772242925,3.6924563091214346
1769097443.1220756,0.04734539985656738,0.018425889313220978,-0.11675333231687546,1.0098797082901,0.1807579741626978,-1.1453501900285483,9.906919938325883,0.1910723224430427,-1.1490366711467077,9.896820124666041,-0.0015052687376737595,0.0003869454376399517,0.00233579333871603,STATIONARY,0,0.0,0.0,0.0,0.05082798921977902,-0.4195178427596815,3.7146408913416065
1769097443.1776085,0.05537009239196777,0.019395673647522926,-0.11892437189817429,1.0084174871444702,0.19027155848219993,-1.16664808832109,9.892575548887253,0.19092036605698814,-1.1523786888173106,9.896014655854732,-0.000253899022936821,-0.0017078584060072899,0.00017098506214097142,STATIONARY,0,0.0,0.0,0.0,0.05141332187639882,-0.4230508596571881,3.744980559487492
1769097443.235955,0.058518171310424805,0.019638117402791977,-0.11747701466083527,1.0091487169265747,0.1926499317213893,-1.152449513822794,9.899748913049699,0.1912485758174897,-1.15239212887256,9.896723284434055,5.486421287059784e-05,0.001341965515166521,0.001891376101411879,STATIONARY,0,0.0,0.0,0.0,0.05206822898089686,-0.42699708403632536,3.7788706648779358
1769097443.289658,0.05396723747253418,0.017940998077392578,-0.11675333231687546,1.0089049339294434,0.1760011911392212,-1.1453501900285483,9.89735740184784,0.18835516704063243,-1.1510558205096972,9.896843617260261,7.322430610656738e-05,-0.0013650814071297646,-0.0014244872145354748,STATIONARY,0,0.0,0.0,0.0,0.052616806383100595,-0.43034949120267874,3.807694852963002
1769097443.3577302,0.06787943840026855,0.020365456119179726,-0.11771823465824127,1.0091487169265747,0.19978512452915312,-1.1548158819973469,9.899748913049699,0.19052416454507176,-1.1517693458217066,9.897394938586109,-0.0005045793950557709,-0.0007290774956345558,0.0007351816166192293,STATIONARY,0,0.0,0.0,0.0,0.05349466898310782,-0.43565640455378,3.853298269594335
1769097443.4107583,0.05290484428405762,0.019638117402791977,-0.11723578721284866,1.0089049339294434,0.1926499317213893,-1.1500830725580455,9.89735740184784,0.19092755919505908,-1.1514493514118975,9.897387815454486,0.0025253258645534515,0.0013771308586001396,0.0019169216975569725,STATIONARY,0,0.0,0.0,0.0,0.054029060433711015,-0.43887922210715624,3.881000291524441
1769097443.4725723,0.06223154067993164,0.020607901737093925,-0.11771823465824127,1.0089049339294434,0.20216351604089142,-1.1548158819973469,9.89735740184784,0.1930597423097447,-1.1520881986207163,9.897382044038714,-0.00020602159202098846,-0.001967016141861677,-0.0014149342896416783,STATIONARY,0,0.0,0.0,0.0,0.05477673538010844,-0.4433409885626757,3.9193305228855646
1769097443.5296507,0.05810952186584473,0.019638117402791977,-0.11699455976486206,1.0093923807144165,0.1926499317213893,-1.147716631293297,9.902139254808427,0.19298197490384417,-1.151258631351268,9.898284792653305,-0.00016887113451957703,0.0007507698610424995,-0.0010876620654016733,STATIONARY,0,0.0,0.0,0.0,0.055428380805043344,-0.4472284626151652,3.952754224778185
1769097443.5971634,0.0691983699798584,0.018668334931135178,-0.11844190955162048,1.0093923807144165,0.1831363656744361,-1.161915132701397,9.902139254808427,0.19111363008543883,-1.153280854518563,9.89901623183878,-0.001329110935330391,-0.0004350747913122177,0.001936442800797522,STATIONARY,0,0.0,0.0,0.0,0.05634351206488468,-0.45275084927526177,4.000154816726455
1769097443.669224,0.06906938552856445,0.020850349217653275,-0.11651210486888885,1.008173942565918,0.20454192582517863,-1.1429837487637997,9.890186376571656,0.19366184078330193,-1.151326831792979,9.897340640826462,0.001092350110411644,0.0007503414526581764,0.00011047988664358854,STATIONARY,0,0.0,0.0,0.0,0.05726739137263777,-0.45824334605238715,4.047370872211928
1769097443.7298245,0.0604701042175293,0.021092794835567474,-0.11747701466083527,1.0089049339294434,0.20692031733691693,-1.152449513822794,9.89735740184784,0.19617782586779065,-1.1515398767254201,9.897343821469397,0.0004502963274717331,-0.002583007328212261,-0.0016949983546510339,STATIONARY,0,0.0,0.0,0.0,0.05798474178346328,-0.4624541053469042,4.083561831230901
1769097443.7878616,0.058062076568603516,0.019153228029608727,-0.11820068955421448,1.0089049339294434,0.18789316697046163,-1.159548764526844,9.89735740184784,0.19460569364494687,-1.1530596774483948,9.897346398539957,-0.0019671060144901276,-0.00012984778732061386,-0.001979178050532937,STATIONARY,0,0.0,0.0,0.0,0.05864079741942629,-0.4663413055917843,4.116927812278131
1769097443.8536098,0.06571221351623535,0.019153228029608727,-0.11747701466083527,1.0086612701416016,0.18789316697046163,-1.152449513822794,9.894967060089112,0.1933318959409691,-1.1529438901952438,9.896894885122931,-0.001921728253364563,-0.0004258197732269764,-0.0001416966551914811,STATIONARY,0,0.0,0.0,0.0,0.05947562291363547,-0.4713198268453161,4.159663544648603
1769097443.9181824,0.06462764739990234,0.018668334931135178,-0.11820068955421448,1.008173942565918,0.1831363656744361,-1.159548764526844,9.890186376571656,0.19139714861345233,-1.154197259331285,9.895621849915159,0.001109987497329712,-0.00013656262308359146,0.0010490822605788708,STATIONARY,0,0.0,0.0,0.0,0.06027503766369231,-0.47614060040578365,4.2009949130891195
1769097443.976661,0.058945417404174805,0.021092794835567474,-0.11820068955421448,1.0098797082901,0.20692031733691693,-1.159548764526844,9.906919938325883,0.19434289134749141,-1.1552127837919681,9.897765823380713,0.0001821853220462799,0.0013846270740032196,0.000458940165117383,STATIONARY,0,0.0,0.0,0.0,0.060950294134211075,-0.480154459115371,4.235385316409645
1769097444.029766,0.052550554275512695,0.019153228029608727,-0.11771823465824127,1.0098797082901,0.18789316697046163,-1.1548158819973469,9.906919938325883,0.19311896412885138,-1.1551374660138483,9.899502947293147,-0.0007449742406606674,0.0010835998691618443,-0.00043706654105335474,STATIONARY,0,0.0,0.0,0.0,0.0614836038865306,-0.48334444140775645,4.262723395239567
1769097444.10779,0.07796692848205566,0.019638117402791977,-0.11723578721284866,1.0089049339294434,0.1926499317213893,-1.1500830725580455,9.89735740184784,0.19302995853785876,-1.1541783227446716,9.899095799434443,0.001101842150092125,0.00015667825937271118,-0.00012219941709190607,STATIONARY,0,0.0,0.0,0.0,0.06265700249357362,-0.49036050899874767,4.322898433922816
1769097444.154478,0.04666876792907715,0.019638117402791977,-0.11795946210622787,1.010610818862915,0.1926499317213893,-1.1571823232620955,9.914092133045196,0.1929578430275981,-1.1547483747008727,9.901941567689498,0.0001591704785823822,0.0010725422762334347,0.0019940631464123726,STATIONARY,0,0.0,0.0,0.0,0.06307725963949151,-0.49287552081993447,4.344464604216748
1769097444.2069545,0.052712202072143555,0.021092794835567474,-0.11820068955421448,1.0096360445022583,0.20692031733691693,-1.159548764526844,9.904529596567155,0.19560742173015463,-1.1556593171574239,9.902432683092394,0.0004541650414466858,0.00017122458666563034,0.00104184215888381,STATIONARY,0,0.0,0.0,0.0,0.06362076977530544,-0.49608660834855267,4.3719792684604215
1769097444.2595742,0.05243229866027832,0.019880564883351326,-0.11747701466083527,1.008173942565918,0.19502834150567652,-1.152449513822794,9.890186376571656,0.19549753299583303,-1.1550502111804728,9.900108771712254,-0.0001615714281797409,0.0010714628733694553,0.0010222576092928648,STATIONARY,0,0.0,0.0,0.0,0.06415822102496846,-0.49926200995035047,4.399196112323459
1769097444.3221684,0.06264352798461914,0.020607901737093925,-0.11771823465824127,1.0089049339294434,0.20216351604089142,-1.1548158819973469,9.89735740184784,0.19676249838208992,-1.1550057438748045,9.899586660026738,0.0010652001947164536,-0.00042032310739159584,0.0001226161839440465,STATIONARY,0,0.0,0.0,0.0,0.0649303587032417,-0.5037944968866361,4.438044185113704
1769097444.370649,0.04840350151062012,0.019880564883351326,-0.11651210486888885,1.0086612701416016,0.19502834150567652,-1.1429837487637997,9.894967060089112,0.19643341737360634,-1.152724398784909,9.898710025030827,-0.00043142586946487427,0.0013803415931761265,-0.0001918642083182931,STATIONARY,0,0.0,0.0,0.0,0.06539058235221867,-0.5064952136799737,4.461235862521729
1769097444.4203248,0.04974818229675293,0.019880564883351326,-0.11820068955421448,1.0093923807144165,0.19502834150567652,-1.159548764526844,9.902139254808427,0.19616678418147518,-1.1540194195475413,9.899360770305885,0.0019903965294361115,0.0013494747690856457,-0.001376572297886014,STATIONARY,0,0.0,0.0,0.0,0.06587607192512643,-0.5093512751557284,4.485735608758021
1769097444.47894,0.0587000846862793,0.019153228029608727,-0.11795946210622787,1.0103671550750732,0.18789316697046163,-1.1571823232620955,9.911701791286468,0.19459674727614132,-1.1546196256524668,9.90170265510607,-0.001644207164645195,0.0016401233151555061,0.0001556656789034605,STATIONARY,0,0.0,0.0,0.0,0.06654659392596354,-0.5133297479330748,4.519853905024167
1769097444.530873,0.052036285400390625,0.021092794835567474,-0.11771823465824127,1.0110981464385986,0.20692031733691693,-1.1548158819973469,9.918872816562653,0.1969353205153201,-1.1546568680938933,9.904960938208832,0.0016684625297784805,-0.001097048632800579,-0.0010456729214638472,STATIONARY,0,0.0,0.0,0.0,0.06707985046313139,-0.5164562989320812,4.546674310611499
1769097444.5776043,0.046494483947753906,0.020607901737093925,-0.11795946210622787,1.0096360445022583,0.20216351604089142,-1.1571823232620955,9.904529596567155,0.1979274452068663,-1.155136109242682,9.904879084978381,-0.00019399262964725494,0.002242809161543846,0.0007556467317044735,STATIONARY,0,0.0,0.0,0.0,0.06750771755218628,-0.5189533994428632,4.568086054582128
1769097444.6298225,0.052308082580566406,0.019153228029608727,-0.11723578721284866,1.0096360445022583,0.18789316697046163,-1.1500830725580455,9.904529596567155,0.19602329775264613,-1.154177223440191,9.904812764566206,-0.0008184071630239487,0.0007170280441641808,0.0013310587964951992,STATIONARY,0,0.0,0.0,0.0,0.06804406385663249,-0.5221113847209666,4.595186964440354
1769097444.697667,0.0680532455444336,0.020607901737093925,-0.11916559189558029,1.0089049339294434,0.20216351604089142,-1.1690144564956426,9.89735740184784,0.19718849177522166,-1.1569928000949932,9.903398003124874,-0.0016617439687252045,-0.0013887779787182808,-0.00019966193940490484,STATIONARY,0,0.0,0.0,0.0,0.06895729192121752,-0.5274697009495527,4.641052019291114
1769097444.7576437,0.05982089042663574,0.020123012363910675,-0.11771823465824127,1.0098797082901,0.19740675128996374,-1.1548158819973469,9.906919938325883,0.19722990963204845,-1.1565796988279144,9.90406634057665,0.0007909908890724182,-0.0010674246586859226,0.00040254462510347366,STATIONARY,0,0.0,0.0,0.0,0.06966308683127932,-0.5316085664291164,4.676494106270388
1769097444.8176024,0.06024003028869629,0.020123012363910675,-0.11771823465824127,1.0103671550750732,0.19740675128996374,-1.1548158819973469,9.911701791286468,0.19726346785963456,-1.156244989419972,9.905515276283673,0.0010750200599431992,0.0007598549127578735,-0.0014379036147147417,STATIONARY,0,0.0,0.0,0.0,0.07037892858567461,-0.5358044190657846,4.712439846809684
1769097444.877317,0.05936884880065918,0.019880564883351326,-0.11795946210622787,1.010610818862915,0.19502834150567652,-1.1571823232620955,9.914092133045196,0.1968393207454646,-1.1564228618894397,9.907142857220029,-0.0007272791117429733,-0.0007316390983760357,-0.0001635444350540638,STATIONARY,0,0.0,0.0,0.0,0.07107272030685928,-0.53988041671061,4.747359159012662
1769097444.9314904,0.05486750602722168,0.019638117402791977,-0.11747701466083527,1.010123372077942,0.1926499317213893,-1.152449513822794,9.909310280084611,0.19604432440821043,-1.15566886240611,9.907554156631166,-0.001338966190814972,-0.0003968593664467335,-0.00016818742733448744,STATIONARY,0,0.0,0.0,0.0,0.0716629006136322,-0.5433594921992866,4.777185288226964
1769097444.9831276,0.051010847091674805,0.020365456119179726,-0.11795946210622787,1.0091487169265747,0.19978512452915312,-1.1571823232620955,9.899748913049699,0.1967541946010856,-1.1559560631960513,9.906073000304316,-0.00041362643241882324,-0.0012643416412174702,0.0010335685219615698,STATIONARY,0,0.0,0.0,0.0,0.0721748759864398,-0.5463674130093303,4.80296194537866
1769097445.0411274,0.05838942527770996,0.019880564883351326,-0.11771823465824127,1.010123372077942,0.19502834150567652,-1.1548158819973469,9.909310280084611,0.19642668935351745,-1.155739697546653,9.906687320328837,-0.001886194571852684,0.0011499123647809029,-0.00047209556214511395,STATIONARY,0,0.0,0.0,0.0,0.07284455840602848,-0.5503077052354787,4.836737061971121
1769097445.1071212,0.06554675102233887,0.01721366122364998,-0.11602965742349625,1.0086612701416016,0.1688660166040063,-1.1382509393244982,9.894967060089112,0.19119665849168826,-1.1524209561622083,9.904463233735612,-0.0006322246044874191,0.001141867134720087,-0.000756659428589046,STATIONARY,0,0.0,0.0,0.0,0.07366601124975501,-0.5552589396298321,4.879290365742854
1769097445.1636868,0.05655646324157715,0.020123012363910675,-0.11723578721284866,1.0093923807144165,0.19740675128996374,-1.1500830725580455,9.902139254808427,0.19237511219944037,-1.1519773093937762,9.904022225578014,-0.0021025538444519043,-4.691909998655319e-05,-0.00165757245849818,STATIONARY,0,0.0,0.0,0.0,0.07428134873481931,-0.5589436928825221,4.910969703358989
1769097445.2306733,0.06712651252746582,0.019153228029608727,-0.11771823465824127,1.0086612701416016,0.18789316697046163,-1.1548158819973469,9.894967060089112,0.1915245991484118,-1.1525159690431666,9.902303878736616,-0.0011669062077999115,-0.0006459546275436878,-0.07759319245815277,STATIONARY,0,0.0,0.0,0.0,0.07514435258081686,-0.5641368937469559,4.955589174537018
1769097445.279519,0.05086207389831543,0.021092794835567474,-0.11795946210622787,1.0079301595687866,0.20692031733691693,-1.1571823232620955,9.887794865369797,0.1944461563251079,-1.1534014763309979,9.899550586450436,-0.00024730153381824493,0.0011975602246820927,0.07591743767261505,STATIONARY,0,0.0,0.0,0.0,0.07564737517405262,-0.5671206863434827,4.981198822482638
1769097445.3313975,0.04992556571960449,0.019880564883351326,-0.11844190955162048,1.0091487169265747,0.19502834150567652,-1.161915132701397,9.899748913049699,0.19455663426914602,-1.1550170640914594,9.899588221752168,0.0009974688291549683,0.00027188751846551895,-0.00043107231613248587,STATIONARY,0,0.0,0.0,0.0,0.07613231966935234,-0.5699996381166386,5.005874161012762
1769097445.39334,0.061830997467041016,0.019638117402791977,-0.11844190955162048,1.0079301595687866,0.1926499317213893,-1.161915132701397,9.887794865369797,0.19419481025781912,-1.1563260710248127,9.897350264123016,0.00037371739745140076,0.0017794622108340263,-0.00041165726725012064,STATIONARY,0,0.0,0.0,0.0,0.07687474045910982,-0.5744203562281456,5.0437124461339815
1769097445.4456587,0.052285194396972656,0.020123012363910675,-0.11747701466083527,1.010123372077942,0.19740675128996374,-1.152449513822794,9.909310280084611,0.194804321893372,-1.1555904389889595,9.899619847785056,0.0012571122497320175,-0.00035670865327119827,0.0005635261768475175,STATIONARY,0,0.0,0.0,0.0,0.07740728512859889,-0.5775794418296085,5.070775448272054
1769097445.498862,0.053058624267578125,0.019395673647522926,-0.11699455976486206,1.0091487169265747,0.19027155848219993,-1.147716631293297,9.899748913049699,0.19394416536725018,-1.1540962716432386,9.899644339760394,-0.0002711452543735504,0.00025073252618312836,0.0013901236234232783,STATIONARY,0,0.0,0.0,0.0,0.07795328015813617,-0.5808284739762137,5.098645101341848
1769097445.5482986,0.04956793785095215,0.019638117402791977,-0.11675333231687546,1.0098797082901,0.1926499317213893,-1.1453501900285483,9.906919938325883,0.19369856606814054,-1.152436577876666,9.901024988389027,0.0009340438991785049,-0.0006686169654130936,0.0013538835337385535,STATIONARY,0,0.0,0.0,0.0,0.07842919375063716,-0.5836599881326681,5.122971726299974
1769097445.601353,0.05313754081726074,0.019395673647522926,-0.11675333231687546,1.0089049339294434,0.19027155848219993,-1.1453501900285483,9.89735740184784,0.19304824248565433,-1.1510918346811212,9.900329011517448,-0.00028314441442489624,-7.096771150827408e-05,0.0007132057216949761,STATIONARY,0,0.0,0.0,0.0,0.0789742844291474,-0.5869102090158785,5.1509262779129665
1769097445.6488416,0.051601409912109375,0.020123012363910675,-0.11747701466083527,1.0093923807144165,0.19740675128996374,-1.152449513822794,9.902139254808427,0.1938753317140367,-1.1513494736682368,9.900672531008619,-0.002070454880595207,-0.00039413711056113243,0.002460947260260582,STATIONARY,0,0.0,0.0,0.0,0.07949051734217008,-0.5899759135974989,5.177288853163669
1769097445.7063751,0.05334162712097168,0.021820131689310074,-0.11747701466083527,1.0091487169265747,0.21405549187213183,-1.152449513822794,9.899748913049699,0.19770480501400778,-1.1515582219818166,9.900497261323673,-0.0020014438778162003,-0.00010088877752423286,-0.0008890414610505104,STATIONARY,0,0.0,0.0,0.0,0.08005305259367622,-0.5932524758134785,5.205459026956563
1769097445.7503376,0.043942928314208984,0.019638117402791977,-0.1196480467915535,1.0093923807144165,0.1926499317213893,-1.1737473390251398,9.902139254808427,0.19674557068894946,-1.1557689235125104,9.900808853013697,-0.00045342743396759033,0.0005182130262255669,-0.0003092806728091091,STATIONARY,0,0.0,0.0,0.0,0.08043296454244282,-0.5954842435860283,5.224577300229717
1769097445.7941399,0.04374051094055176,0.019153228029608727,-0.11723578721284866,1.0086612701416016,0.18789316697046163,-1.1500830725580455,9.894967060089112,0.19506570078628593,-1.15468995217397,9.899700289461505,0.0004575364291667938,-8.956342935562134e-05,0.0017778878100216389,STATIONARY,0,0.0,0.0,0.0,0.08080617054129051,-0.5976934336959421,5.2435177265575055
1769097445.850313,0.056166648864746094,0.019880564883351326,-0.11723578721284866,1.0084174871444702,0.19502834150567652,-1.1500830725580455,9.892575548887253,0.19505861132978614,-1.1538157310405819,9.898348268288998,-0.0022301264107227325,0.00017839111387729645,-3.7743302527815104e-05,STATIONARY,0,0.0,0.0,0.0,0.08142152046872542,-0.6013333674652268,5.274743971054443
1769097445.8941746,0.04377865791320801,0.018910780549049377,-0.11747701466083527,1.0110981464385986,0.1855147571861744,-1.152449513822794,9.918872816562653,0.1932475288440449,-1.1535564718317108,9.902243094147275,0.000506523996591568,-0.0028305482119321823,0.0035469182766973972,STATIONARY,0,0.0,0.0,0.0,0.08179189305681758,-0.6035442402175898,5.293722321901335
1769097445.939613,0.04540228843688965,0.018910780549049377,-0.11602965742349625,1.0093923807144165,0.1855147571861744,-1.1382509393244982,9.902139254808427,0.19178012509865344,-1.1506520286747175,9.902223389151255,-0.0009815748780965805,0.0008371062576770782,0.0010666779708117247,STATIONARY,0,0.0,0.0,0.0,0.0821872224304758,-0.605916157253104,5.314134446297662
1769097445.9945488,0.05518054962158203,0.020123012363910675,-0.11723578721284866,1.010123372077942,0.19740675128996374,-1.1500830725580455,9.909310280084611,0.1928478576934266,-1.1505440611342925,9.903568227814402,0.0008024685084819794,0.00024898257106542587,0.00043557287426665425,STATIONARY,0,0.0,0.0,0.0,0.0827744235333351,-0.609419440876095,5.344289752429503
1769097446.049327,0.0547177791595459,0.018910780549049377,-0.11675333231687546,1.0098797082901,0.1855147571861744,-1.1453501900285483,9.906919938325883,0.1914562972509659,-1.1495584499911145,9.904204262702747,0.0005511268973350525,0.0002507776953279972,0.0019074101001024246,STATIONARY,0,0.0,0.0,0.0,0.0833476504564626,-0.6128612595193327,5.373943290166595
1769097446.098224,0.04939842224121094,0.019638117402791977,-0.11675333231687546,1.010123372077942,0.1926499317213893,-1.1453501900285483,9.909310280084611,0.1916828064212897,-1.1487598726240502,9.905173202348411,-0.00066339410841465,-3.264471888542175e-05,0.0015889584319666028,STATIONARY,0,0.0,0.0,0.0,0.08381539563040984,-0.6156644680933098,5.398113934623496
1769097446.151007,0.053022146224975586,0.020365456119179726,-0.11699455976486206,1.0086612701416016,0.19978512452915312,-1.147716631293297,9.894967060089112,0.1932203368778797,-1.148561902697635,9.903236441243866,-0.0003409832715988159,-0.00033185631036758423,0.0016167496796697378,STATIONARY,0,0.0,0.0,0.0,0.08435860523617707,-0.618893475290197,5.425955378490079
1769097446.2176402,0.06594467163085938,0.019880564883351326,-0.11723578721284866,1.012073040008545,0.19502834150567652,-1.1500830725580455,9.928436522483826,0.1935634315507728,-1.1488505663811504,9.908018516188243,-0.0012305136770009995,-0.0012469282373785973,0.0027741531375795603,STATIONARY,0,0.0,0.0,0.0,0.08520035447608704,-0.6238894814225218,5.469042375802522
1769097446.273393,0.058731794357299805,0.018910780549049377,-0.11699455976486206,1.010123372077942,0.1855147571861744,-1.147716631293297,9.909310280084611,0.19203608075980164,-1.1486353860203993,9.90826364681715,0.0005567781627178192,-0.0003246571868658066,0.0017807899275794625,STATIONARY,0,0.0,0.0,0.0,0.08586276827825208,-0.6278516115094547,5.50322017493888
1769097446.324191,0.04787182807922363,0.020123012363910675,-0.11675333231687546,1.0091487169265747,0.19740675128996374,-1.1453501900285483,9.899748913049699,0.19305524211615724,-1.148011973211115,9.906647854605227,-0.001263575628399849,0.0005567790940403938,0.0013555234763771296,STATIONARY,0,0.0,0.0,0.0,0.08630519527853218,-0.6304825242369518,5.525923357950648
1769097446.3804,0.056075334548950195,0.019153228029608727,-0.11771823465824127,1.0096360445022583,0.18789316697046163,-1.1548158819973469,9.904529596567155,0.19207566471003068,-1.1493031119745436,9.906245884921354,0.0032729338854551315,-0.000632693525403738,0.0013204367132857442,STATIONARY,0,0.0,0.0,0.0,0.08690916628570806,-0.6340964425286707,5.557072984913962
1769097446.4463484,0.06596970558166504,0.021577686071395874,-0.11747701466083527,1.0096360445022583,0.21167710036039353,-1.152449513822794,9.904529596567155,0.19579531677800768,-1.1499001866149061,9.90592019471989,-0.00038927793502807617,-0.0006216992624104023,-0.00023011828307062387,STATIONARY,0,0.0,0.0,0.0,0.08776126790659361,-0.639100810503325,5.600183569953408
1769097446.5009122,0.054696083068847656,0.020850349217653275,-0.11868314445018768,1.0108546018600464,0.20454192582517863,-1.1642816470563413,9.916483644247055,0.19745511063241822,-1.1526292739136992,9.90792475997621,-0.001567404717206955,-0.0006363070569932461,0.0009636078029870987,STATIONARY,0,0.0,0.0,0.0,0.08835198675965789,-0.6425490871294091,5.629824727033186
1769097446.5672455,0.06683063507080078,0.019638117402791977,-0.11747701466083527,1.0096360445022583,0.1926499317213893,-1.152449513822794,9.904529596567155,0.19654325937865164,-1.152595161871816,9.907280479280608,-0.0006697811186313629,0.001196791883558035,0.0006513787666335702,STATIONARY,0,0.0,0.0,0.0,0.08922981455903166,-0.6476969618401135,5.674073948545029
1769097446.6229944,0.055078744888305664,0.019880564883351326,-0.11820068955421448,1.0103671550750732,0.19502834150567652,-1.159548764526844,9.911701791286468,0.19625578209894928,-1.1539147071825282,9.908119486312497,-0.0024542976170778275,0.0012023253366351128,0.0018359117675572634,STATIONARY,0,0.0,0.0,0.0,0.08982518947217596,-0.6511975561218063,5.70413189494282
1769097446.6695414,0.04651474952697754,0.020850349217653275,-0.11771823465824127,1.008173942565918,0.20454192582517863,-1.1548158819973469,9.890186376571656,0.19782819608926092,-1.1540857179606845,9.904716422887827,-0.0023624002933502197,0.0008669979870319366,0.0009141975315287709,STATIONARY,0,0.0,0.0,0.0,0.09025321489433251,-0.6536945612828505,5.725561956541999
1769097446.7243264,0.054865360260009766,0.020365456119179726,-0.11723578721284866,1.010610818862915,0.19978512452915312,-1.1500830725580455,9.914092133045196,0.1981995511801924,-1.1533261588898656,9.90649559765327,0.001859966665506363,-0.0003227205015718937,0.0005733331199735403,STATIONARY,0,0.0,0.0,0.0,0.09084983672062215,-0.6571663126320698,5.7553825664293985
1769097446.773687,0.04929995536804199,0.018183445557951927,-0.11723578721284866,1.0089049339294434,0.1783796009235084,-1.1500830725580455,9.89735740184784,0.1944384328481221,-1.15271073698935,9.904761494624719,-0.0005589984357357025,0.0008942801505327225,0.0005289880791679025,STATIONARY,0,0.0,0.0,0.0,0.0913224165316082,-0.6599679594784704,5.779455946606495
1769097446.82203,0.051326751708984375,0.020123012363910675,-0.11747701466083527,1.0110981464385986,0.19740675128996374,-1.152449513822794,9.918872816562653,0.19500171362140598,-1.1526611661666297,9.907439319288411,-0.0005605556070804596,0.0009048492647707462,-9.428930934518576e-05,STATIONARY,0,0.0,0.0,0.0,0.09183613595702733,-0.6630045709060792,5.805556455878743
1769097446.8735588,0.04866814613342285,0.021577686071395874,-0.11699455976486206,1.0110981464385986,0.21167710036039353,-1.147716631293297,9.918872816562653,0.1981661061625637,-1.151722870130827,9.909608988517693,-0.0014528632164001465,-0.0015125633217394352,0.00019905867520719767,STATIONARY,0,0.0,0.0,0.0,0.09230550990688184,-0.6657325283916424,5.829028241253779
1769097446.915867,0.042292118072509766,0.018910780549049377,-0.11723578721284866,1.0089049339294434,0.1855147571861744,-1.1500830725580455,9.89735740184784,0.19576533219773148,-1.1514116951464302,9.907284075153928,-0.0008341223001480103,0.0006449935026466846,-0.0004233159124851227,STATIONARY,0,0.0,0.0,0.0,0.09265566033180202,-0.6677919701211227,5.846748639905447
1769097446.9646077,0.04876279830932617,0.020123012363910675,-0.11820068955421448,1.0084174871444702,0.19740675128996374,-1.159548764526844,9.892575548887253,0.19607681488857845,-1.1529558201527823,9.904492922448554,0.0013159643858671188,0.0009439829736948013,-0.0007145527633838356,STATIONARY,0,0.0,0.0,0.0,0.09312189384084593,-0.6705334805751144,5.8702996471632805
1769097447.011648,0.0468287467956543,0.018425889313220978,-0.11747701466083527,1.0089049339294434,0.1807579741626978,-1.152449513822794,9.89735740184784,0.1931698463072247,-1.152859741303204,9.903138855612228,-0.001710701733827591,0.0009428015910089016,0.0005104612791910768,STATIONARY,0,0.0,0.0,0.0,0.09354550208677284,-0.6730616230473949,5.892016552570579
1769097447.0587075,0.04727339744567871,0.019880564883351326,-0.11578842997550964,1.0098797082901,0.19502834150567652,-1.1358844980597496,9.906919938325883,0.19352252228624764,-1.1496384467122764,9.903856370001781,-0.0001875162124633789,-0.00028982013463974,0.0004984941333532333,STATIONARY,0,0.0,0.0,0.0,0.09397798120851701,-0.6756308052794352,5.914149434336368
1769097447.1018858,0.04610180854797363,0.020365456119179726,-0.11747701466083527,1.0089049339294434,0.19978512452915312,-1.152449513822794,9.89735740184784,0.19471094041026957,-1.1501718868019397,9.902623098073912,0.0031321216374635696,0.001837075687944889,0.0007720839930698276,STATIONARY,0,0.0,0.0,0.0,0.09439181531450706,-0.6780753538677511,5.935196239246832
1769097447.1514285,0.046472787857055664,0.021092794835567474,-0.11795946210622787,1.0091487169265747,0.20692031733691693,-1.1571823232620955,9.899748913049699,0.19702784387305616,-1.1515022171380218,9.902077680459623,0.002126827836036682,-0.0005912207998335361,0.0013318071141839027,STATIONARY,0,0.0,0.0,0.0,0.09481734029168465,-0.6805622762490532,5.956581954565846
1769097447.205729,0.05445504188537598,0.019395673647522926,-0.11844190955162048,1.010123372077942,0.19027155848219993,-1.161915132701397,9.909310280084611,0.19574574232834221,-1.1534782164270465,9.90345016942583,-0.0012372583150863647,-0.0017626178450882435,0.0001165017019957304,STATIONARY,0,0.0,0.0,0.0,0.09539779523929522,-0.6839827447084029,5.985949166239934
1769097447.2648616,0.0638425350189209,0.019880564883351326,-0.11675333231687546,1.0093923807144165,0.19502834150567652,-1.1453501900285483,9.902139254808427,0.19560960528709712,-1.1519358074555288,9.903201404674382,0.0008757933974266052,-0.0008382992818951607,0.001328956917859614,STATIONARY,0,0.0,0.0,0.0,0.0961950744198966,-0.6886778844758268,6.026313320595548
1769097447.3267035,0.05713367462158203,0.021335240453481674,-0.11699455976486206,1.0093923807144165,0.20929870884865523,-1.147716631293297,9.902139254808427,0.19820730799009062,-1.151135158583837,9.902999846583645,0.00026619061827659607,-0.0004999651573598385,-0.0005120872519910336,STATIONARY,0,0.0,0.0,0.0,0.09684207396800935,-0.6924354852170552,6.058639254945157
1769097447.375015,0.048316001892089844,0.019638117402791977,-0.11892437189817429,1.0086612701416016,0.1926499317213893,-1.16664808832109,9.894967060089112,0.19715271655611988,-1.1540789583241629,9.90147551074269,-0.0018447767943143845,-0.00016786018386483192,-0.00023004889953881502,STATIONARY,0,0.0,0.0,0.0,0.09730231437469246,-0.69512960872903,6.081753616215091
1769097447.428988,0.05405831336975098,0.021092794835567474,-0.11820068955421448,1.0086612701416016,0.20692031733691693,-1.159548764526844,9.894967060089112,0.19900625815845618,-1.1551169320887458,9.900240439375228,0.0017950665205717087,0.0001430814154446125,6.782403215765953e-05,STATIONARY,0,0.0,0.0,0.0,0.09788387061054876,-0.6985052083770799,6.110685101170761
1769097447.4735148,0.04441380500793457,0.020365456119179726,-0.11771823465824127,1.0091487169265747,0.19978512452915312,-1.1548158819973469,9.899748913049699,0.19915405916436807,-1.1550598035388266,9.900147165242362,0.0008747149258852005,-0.00015693996101617813,-0.00023473589681088924,STATIONARY,0,0.0,0.0,0.0,0.09827671913449244,-0.7007836632616594,6.130213993612169
1769097447.523503,0.05015134811401367,0.018910780549049377,-0.11820068955421448,1.0091487169265747,0.1855147571861744,-1.159548764526844,9.899748913049699,0.19656580702233623,-1.1559116479302265,9.900071591206947,0.0008758418262004852,-0.0016532056033611298,0.002765987068414688,STATIONARY,0,0.0,0.0,0.0,0.09877111314105136,-0.7036909633638762,6.15511423508011
1769097447.5777562,0.054032325744628906,0.019638117402791977,-0.11747701466083527,1.0079301595687866,0.1926499317213893,-1.152449513822794,9.887794865369797,0.1958227138162609,-1.1552546585891377,9.897741907327527,-0.0015254616737365723,0.000789150595664978,0.0012278149370104074,STATIONARY,0,0.0,0.0,0.0,0.09934281603158951,-0.7070637203579538,6.184010615627308
1769097447.629675,0.05186939239501953,0.019638117402791977,-0.11820068955421448,1.0086612701416016,0.1926499317213893,-1.159548764526844,9.894967060089112,0.19522063314773544,-1.1560695264547476,9.897215340475343,0.0008520707488059998,-0.0010086661204695702,3.111688420176506e-05,STATIONARY,0,0.0,0.0,0.0,0.09986804423463101,-0.7101740489650298,6.210638418972556
1769097447.6796527,0.05025124549865723,0.020850349217653275,-0.11747701466083527,1.0076864957809448,0.20454192582517863,-1.152449513822794,9.885404523611069,0.19698948141999087,-1.155382577411181,9.89497406947064,0.0008589997887611389,0.0019976641051471233,0.0006205843528732657,STATIONARY,0,0.0,0.0,0.0,0.10036547964505318,-0.713091606808455,6.235625085528978
1769097447.7343264,0.05457639694213867,0.018183445557951927,-0.11578842997550964,1.0086612701416016,0.1783796009235084,-1.1358844980597496,9.894967060089112,0.19345799108896175,-1.1516825386755087,9.894972739340492,-0.0012212544679641724,0.0004396778531372547,0.001200498198159039,STATIONARY,0,0.0,0.0,0.0,0.10094171034848705,-0.716521988958388,6.265098084136863
1769097447.786795,0.05237317085266113,0.020365456119179726,-0.11699455976486206,1.0079301595687866,0.19978512452915312,-1.147716631293297,9.887794865369797,0.1946586549283341,-1.1509299511682067,9.893610635347956,-0.0005849972367286682,0.0007455102168023586,0.0002545395400375128,STATIONARY,0,0.0,0.0,0.0,0.10147564911626207,-0.7196789311459747,6.292235753784423
1769097447.838634,0.051944732666015625,0.019638117402791977,-0.11675333231687546,1.0076864957809448,0.1926499317213893,-1.1453501900285483,9.885404523611069,0.1942774710413994,-1.1498711118856073,9.892053408569437,-0.00027529336512088776,-0.0004754881374537945,0.000546354684047401,STATIONARY,0,0.0,0.0,0.0,0.10199985932279504,-0.7227815769124486,6.318927038844626
1769097447.8979986,0.059262752532958984,0.020365456119179726,-0.11771823465824127,1.0089049339294434,0.19978512452915312,-1.1548158819973469,9.89735740184784,0.19532262686829133,-1.1508094525612538,9.893059916965989,0.0029968004673719406,-0.0007548918947577477,-6.740749813616276e-05,STATIONARY,0,0.0,0.0,0.0,0.10268584681054617,-0.726823304683062,6.353672195754619
1769097447.957701,0.05991506576538086,0.019638117402791977,-0.11627087742090225,1.0096360445022583,0.1926499317213893,-1.140617307499051,9.904529596567155,0.19481544483287433,-1.1488753476245552,9.895236452308017,0.0014761723577976227,-0.0013454705476760864,0.0011309894034639,STATIONARY,0,0.0,0.0,0.0,0.10338519823722503,-0.7309475547604964,6.38919426504529
1769097448.015837,0.05823945999145508,0.020123012363910675,-0.11747701466083527,1.0086612701416016,0.19740675128996374,-1.152449513822794,9.894967060089112,0.19530718220322843,-1.1495535966532342,9.895185331291065,0.00024091266095638275,-0.0007050731219351292,0.0008283224888145924,STATIONARY,0,0.0,0.0,0.0,0.10404764791499997,-0.7348466505392454,6.422757098015848
1769097448.0846481,0.06868457794189453,0.020850349217653275,-0.11675333231687546,1.0086612701416016,0.20454192582517863,-1.1453501900285483,9.894967060089112,0.19705960655741028,-1.1487559402762753,9.895143911216424,-0.0021493230015039444,0.0004893424920737743,0.0008209019433706999,STATIONARY,0,0.0,0.0,0.0,0.10497729064885142,-0.7402659885329778,6.469438144416886
1769097448.142615,0.057604074478149414,0.020365456119179726,-0.11699455976486206,1.008173942565918,0.19978512452915312,-1.147716631293297,9.890186376571656,0.1975768124774631,-1.148558716568953,9.894203148288524,1.93621963262558e-05,-0.0007130238227546215,-0.0010032083373516798,STATIONARY,0,0.0,0.0,0.0,0.10563289583607778,-0.744077169829885,6.502269380158324
1769097448.1991322,0.05669140815734863,0.018668334931135178,-0.11675333231687546,1.0084174871444702,0.1831363656744361,-1.1453501900285483,9.892575548887253,0.1948365316750007,-1.1479498528819223,9.893894288081203,0.0015252605080604553,0.0007870029658079147,-0.0019059975165873766,STATIONARY,0,0.0,0.0,0.0,0.1062590840356303,-0.7477665839524468,6.534067522927313
1769097448.255339,0.05622291564941406,0.018910780549049377,-0.11627087742090225,1.0086612701416016,0.1855147571861744,-1.140617307499051,9.894967060089112,0.19306759197216133,-1.146558397782233,9.894097861874922,-0.0012030359357595444,0.0016515757888555527,-0.000966806139331311,STATIONARY,0,0.0,0.0,0.0,0.10686937383006764,-0.7513908736726699,6.565342926989624
1769097448.3132331,0.062059640884399414,0.020123012363910675,-0.11820068955421448,1.0086612701416016,0.19740675128996374,-1.159548764526844,9.894967060089112,0.19389100935942025,-1.1490235052053455,9.894262804636899,0.0024154167622327805,0.001041351817548275,-0.0009648638661019504,STATIONARY,0,0.0,0.0,0.0,0.10761612547480051,-0.7558162216822739,6.603449681125323
1769097448.41281,0.09527206420898438,0.019395673647522926,-0.11844190955162048,1.0089049339294434,0.19027155848219993,-1.161915132701397,9.89735740184784,0.19320416691682882,-1.1514698754473327,9.894850048608236,-0.0021090153604745865,0.0013170363381505013,0.0005233690608292818,STATIONARY,0,0.0,0.0,0.0,0.10936979453037184,-0.7662678445495168,6.693262921785046
1769097448.491839,0.07929372787475586,0.020123012363910675,-0.11747701466083527,1.008173942565918,0.19740675128996374,-1.152449513822794,9.890186376571656,0.19400166725982484,-1.151655775805559,9.893965050302771,0.0015547778457403183,0.0003772871568799019,-0.003153184661641717,STATIONARY,0,0.0,0.0,0.0,0.11058957909763363,-0.7735088748043967,6.755471180342039
1769097448.5541453,0.06211495399475098,0.021820131689310074,-0.11844190955162048,1.0079301595687866,0.21405549187213183,-1.161915132701397,9.887794865369797,0.1978071665875557,-1.1536026351465998,9.892794169681824,-0.0002736058086156845,0.001250468660145998,-0.0018468886846676469,STATIONARY,0,0.0,0.0,0.0,0.11135277206167807,-0.7779597823707679,6.7936402266677645
1769097448.6265345,0.0723268985748291,0.020123012363910675,-0.11771823465824127,1.0076864957809448,0.19740675128996374,-1.1548158819973469,9.885404523611069,0.19773118207211998,-1.1538328660458994,9.891391878911955,3.076717257499695e-05,-0.0011986526660621166,-0.07808154076337814,STATIONARY,0,0.0,0.0,0.0,0.11238713951761671,-0.7839956900800283,6.845383880583466
1769097448.6864593,0.05999612808227539,0.020123012363910675,-0.11723578721284866,1.008173942565918,0.19740675128996374,-1.1500830725580455,9.890186376571656,0.19766961670255787,-1.1531212892333447,9.891163117644004,0.002727387472987175,-0.0017895810306072235,0.001112456782720983,STATIONARY,0,0.0,0.0,0.0,0.11309865829745022,-0.7881463909636647,6.880987472222895
1769097448.7576723,0.07123494148254395,0.019638117402791977,-0.11651210486888885,1.0093923807144165,0.1926499317213893,-1.1429837487637997,9.902139254808427,0.19671705986162816,-1.1511975462971458,9.8932459962673,-0.0003412775695323944,-0.0020605139434337616,0.0007649840554222465,STATIONARY,0,0.0,0.0,0.0,0.114096882668174,-0.7939880472340438,6.931189926783704
1769097448.8207953,0.0630483627319336,0.020365456119179726,-0.11771823465824127,1.008173942565918,0.19978512452915312,-1.1548158819973469,9.890186376571656,0.197299268904313,-1.1518841771189876,9.892665389778514,0.0017923805862665176,-0.0005609975196421146,0.0016353372484445572,STATIONARY,0,0.0,0.0,0.0,0.11488116621131735,-0.7985668974687082,6.970514221831091
1769097448.8954973,0.07465028762817383,0.019395673647522926,-0.11771823465824127,1.0079301595687866,0.19027155848219993,-1.1548158819973469,9.887794865369797,0.19596566058750217,-1.1524405099462356,9.891741138284278,-0.001199694350361824,-0.0002773287706077099,0.0018861761782318354,STATIONARY,0,0.0,0.0,0.0,0.11597321727608192,-0.8049890628735633,7.025637585843203
1769097448.955092,0.05967402458190918,0.020607901737093925,-0.11723578721284866,1.008173942565918,0.20216351604089142,-1.1500830725580455,9.890186376571656,0.19714179208447213,-1.151993152568311,9.89144610006755,-0.0023609045892953873,4.2308587580919266e-05,0.07658269256353378,STATIONARY,0,0.0,0.0,0.0,0.11667523707049582,-0.8090912980596252,7.0608609186748845
1769097449.016861,0.06189298629760742,0.020607901737093925,-0.11747701466083527,1.0096360445022583,0.20216351604089142,-1.152449513822794,9.904529596567155,0.1980947358500457,-1.1520797536272467,9.893928880190353,0.0021617095917463303,0.00037147942930459976,-0.0009589088731445372,STATIONARY,0,0.0,0.0,0.0,0.11743408684613357,-0.8135046180744419,7.098762005135818
1769097449.0873652,0.07032155990600586,0.019153228029608727,-0.11771823465824127,1.0091487169265747,0.18789316697046163,-1.1548158819973469,9.899748913049699,0.1961588426095497,-1.152598973021766,9.895033314459715,-0.000272359699010849,0.000979884061962366,-2.604967448860407e-05,STATIONARY,0,0.0,0.0,0.0,0.1184041162125552,-0.8192043603683132,7.147694149968318
1769097449.1625137,0.07523322105407715,0.021092794835567474,-0.11723578721284866,1.0086612701416016,0.20692031733691693,-1.1500830725580455,9.894967060089112,0.19820098597282895,-1.1521215450144695,9.895020741747643,0.0003625527024269104,-0.0008495249785482883,0.0020466316491365433,STATIONARY,0,0.0,0.0,0.0,0.11952594123564245,-0.8257254115754569,7.203700338926337
1769097449.2231762,0.06067681312561035,0.020123012363910675,-0.11699455976486206,1.010123372077942,0.19740675128996374,-1.147716631293297,9.909310280084611,0.1980502686104237,-1.1512856497910542,9.897732385515663,3.502890467643738e-05,-0.0005310042761266232,0.0002220429014414549,STATIONARY,0,0.0,0.0,0.0,0.12025509808727534,-0.8299640719197307,7.2401405792509985
1769097449.3177075,0.09436917304992676,0.021092794835567474,-0.11795946210622787,1.0093923807144165,0.20692031733691693,-1.1571823232620955,9.902139254808427,0.19973348690509726,-1.1524046277099158,9.898568651836689,0.0012602955102920532,-0.0011391392908990383,0.0005199883598834276,STATIONARY,0,0.0,0.0,0.0,0.12203383280845446,-0.8402268583754094,7.328292686460557
1769097449.3752894,0.057706356048583984,0.019638117402791977,-0.11820068955421448,1.0093923807144165,0.1926499317213893,-1.159548764526844,9.902139254808427,0.19838928124803762,-1.153760329596196,9.899246224692302,-0.0002882573753595352,-0.0010961233638226986,-0.00038814719300717115,STATIONARY,0,0.0,0.0,0.0,0.12269447378279398,-0.8440689074191062,7.361257409302266
1769097449.4355395,0.06028294563293457,0.019153228029608727,-0.11699455976486206,1.0093923807144165,0.18789316697046163,-1.147716631293297,9.902139254808427,0.19639749381599889,-1.1526134516178888,9.899795218431644,0.0021287910640239716,0.0012872889637947083,0.002653018571436405,STATIONARY,0,0.0,0.0,0.0,0.12340818886135088,-0.8482575433542364,7.397233597107594
1769097449.5004654,0.0651395320892334,0.019880564883351326,-0.11747701466083527,1.0110981464385986,0.19502834150567652,-1.152449513822794,9.918872816562653,0.19613767763144446,-1.152582342082372,9.903415464856742,-4.9306079745292664e-05,0.00034853164106607437,-0.001609317259863019,STATIONARY,0,0.0,0.0,0.0,0.12424043214298003,-0.8531481330782816,7.439255360010776
1769097449.5584095,0.05921006202697754,0.020123012363910675,-0.11675333231687546,1.010610818862915,0.19740675128996374,-1.1453501900285483,9.914092133045196,0.19637850246399896,-1.1512099380491791,9.90544151496933,0.0005377959460020065,0.0003419616259634495,-0.0012907071504741907,STATIONARY,0,0.0,0.0,0.0,0.12492890207208716,-0.8571840810791655,7.473982168352927
1769097449.6171563,0.057534217834472656,0.021092794835567474,-0.11675333231687546,1.0084174871444702,0.20692031733691693,-1.1453501900285483,9.892575548887253,0.19837896223601337,-1.1500979672613476,9.903000014346755,0.001446004956960678,-0.002367082517594099,-7.172464393079281e-05,STATIONARY,0,0.0,0.0,0.0,0.12558557337958068,-0.8609911195241425,7.506762942555145
1769097449.6804962,0.06300926208496094,0.021092794835567474,-0.11868314445018768,1.0076864957809448,0.20692031733691693,-1.1642816470563413,9.885404523611069,0.1999998062257654,-1.1527895228607454,9.899661018945118,0.0002117510885000229,-0.000811923760920763,-0.00037468026857823133,STATIONARY,0,0.0,0.0,0.0,0.12637960603196285,-0.8655678865708176,7.546066251117774
1769097449.7400804,0.05947995185852051,0.019880564883351326,-0.11675333231687546,1.0093923807144165,0.19502834150567652,-1.1453501900285483,9.902139254808427,0.19905639986733314,-1.1513778033190118,9.900131299557126,0.0017162822186946869,-0.00020445138216018677,-0.00038238009437918663,STATIONARY,0,0.0,0.0,0.0,0.12708384063700634,-0.8696413054265622,7.581091575901449
1769097449.8022418,0.062273502349853516,0.020123012363910675,-0.11844190955162048,1.0086612701416016,0.19740675128996374,-1.161915132701397,9.894967060089112,0.1987433555142715,-1.1533774119052032,9.899151311439962,0.0004730224609375,0.0003979145549237728,-0.002476777182891965,STATIONARY,0,0.0,0.0,0.0,0.12785456520237795,-0.8741140904522544,7.619480376736148
1769097449.8632667,0.06099128723144531,0.020607901737093925,-0.11747701466083527,1.0103671550750732,0.20216351604089142,-1.152449513822794,9.911701791286468,0.19939237976956473,-1.153201330005761,9.9015329440483,-0.00018372014164924622,-0.0002209939993917942,-0.0009633859735913575,STATIONARY,0,0.0,0.0,0.0,0.12859629231695874,-0.8784039268844412,7.656313456661286
1769097449.9230115,0.05971121788024902,0.018425889313220978,-0.11699455976486206,1.0096360445022583,0.1807579741626978,-1.147716631293297,9.904529596567155,0.19585623544894085,-1.1521605301749758,9.90210160161694,0.00017317384481430054,8.162437006831169e-05,-0.0012416688259691,STATIONARY,0,0.0,0.0,0.0,0.12929460392456701,-0.8825118740744047,7.6916187022271245
1769097449.9827805,0.05980992317199707,0.019153228029608727,-0.11699455976486206,1.0091487169265747,0.18789316697046163,-1.147716631293297,9.899748913049699,0.1943451295961984,-1.151317236961154,9.90165514539554,0.0007074363529682159,-0.0014427811838686466,-3.9462000131607056e-05,STATIONARY,0,0.0,0.0,0.0,0.1299898205519549,-0.8866303970762249,7.727039169465191
1769097450.0391643,0.056226491928100586,0.020123012363910675,-0.11747701466083527,1.0096360445022583,0.19740675128996374,-1.152449513822794,9.904529596567155,0.19492611599269058,-1.1515321026498233,9.902200613515097,0.0015948489308357239,0.000361680518835783,-0.0006286511197686195,STATIONARY,0,0.0,0.0,0.0,0.1306060635606306,-0.8902708718474462,7.75834416863119
1769097450.0951178,0.05899357795715332,0.019638117402791977,-0.11699455976486206,1.010123372077942,0.1926499317213893,-1.147716631293297,9.909310280084611,0.19449417755293216,-1.150808062524663,9.903549774180144,-0.0005250740796327591,-0.0008465247228741646,-2.2240099497139454e-05,STATIONARY,0,0.0,0.0,0.0,0.13128295041282068,-0.894275962676992,7.792810920883084
1769097450.1568062,0.05911421775817871,0.018668334931135178,-0.11699455976486206,1.0103671550750732,0.1831363656744361,-1.147716631293297,9.911701791286468,0.19233887070729508,-1.150221419343119,9.905096735730746,-0.00140342116355896,-0.000843544490635395,-1.310720108449459e-06,STATIONARY,0,0.0,0.0,0.0,0.13195507681567276,-0.8982954007771721,7.827424189716402
1769097450.2189353,0.06278848648071289,0.019880564883351326,-0.11699455976486206,1.010123372077942,0.19502834150567652,-1.147716631293297,9.909310280084611,0.1928492361619182,-1.1497461000749005,9.905896315886451,0.0001196153461933136,-0.0008356166072189808,0.0023708450607955456,STATIONARY,0,0.0,0.0,0.0,0.13271536449388285,-0.9028281529433414,7.866477136258911
1769097450.2758138,0.0558626651763916,0.019880564883351326,-0.11747701466083527,1.010610818862915,0.19502834150567652,-1.152449513822794,9.914092133045196,0.19326275249015207,-1.1502591114031173,9.907451589121896,-0.00020990706980228424,-0.0017338977195322514,-0.0009710934828035533,STATIONARY,0,0.0,0.0,0.0,0.13331846745971787,-0.9064176945007676,7.897394699836356
1769097450.3353515,0.05984091758728027,0.019880564883351326,-0.11820068955421448,1.0096360445022583,0.19502834150567652,-1.159548764526844,9.904529596567155,0.19359779819547374,-1.1520219556186542,9.90689709934662,-0.0017044059932231903,0.0018871095962822437,-0.0015494186664000154,STATIONARY,0,0.0,0.0,0.0,0.1340117286720624,-0.9105430107235962,7.932870658538794
1769097450.399613,0.06485438346862793,0.019880564883351326,-0.11578842997550964,1.010123372077942,0.19502834150567652,-1.1358844980597496,9.909310280084611,0.19386926419811973,-1.148959642814043,9.907355034820458,-0.0004867780953645706,0.0003227139823138714,-2.656085416674614e-05,STATIONARY,0,0.0,0.0,0.0,0.13482716045006413,-0.9153756395999025,7.974541895930411
1769097450.4632542,0.06323385238647461,0.019638117402791977,-0.11771823465824127,1.0110981464385986,0.1926499317213893,-1.1548158819973469,9.918872816562653,0.1936378784644662,-1.1500709477499311,9.90954069823002,0.0018965117633342743,0.0015030610375106335,0.0008752223802730441,STATIONARY,0,0.0,0.0,0.0,0.1356014253968312,-0.9199742213866854,8.014165393471515
1769097450.541943,0.07894611358642578,0.020123012363910675,-0.11675333231687546,1.010610818862915,0.19740675128996374,-1.1453501900285483,9.914092133045196,0.1943530758535434,-1.1491751166213355,9.910404397921436,-0.0008189249783754349,0.0003325180150568485,-0.0009406043100170791,STATIONARY,0,0.0,0.0,0.0,0.1368127287751295,-0.9271364424881859,8.075931878384523
1769097450.596381,0.05403876304626465,0.018668334931135178,-0.11723578721284866,1.01134192943573,0.1831363656744361,-1.1500830725580455,9.921264327764511,0.19222454506846068,-1.149347414214117,9.912465224547578,0.00039442628622055054,-0.0008696680888533592,0.000572055228985846,STATIONARY,0,0.0,0.0,0.0,0.13737406056794554,-0.9304927529133686,8.104878139507107
1769097450.6513991,0.05585217475891113,0.019395673647522926,-0.11651210486888885,1.010610818862915,0.19027155848219993,-1.1429837487637997,9.914092133045196,0.1918539380004941,-1.1481398179046216,9.912773953646074,0.0006916727870702744,0.00031004566699266434,-3.246939741075039e-05,STATIONARY,0,0.0,0.0,0.0,0.13797254229424571,-0.9340743353787323,8.13580069512432
1769097450.7230465,0.07050228118896484,0.019638117402791977,-0.11675333231687546,1.0096360445022583,0.1926499317213893,-1.1453501900285483,9.904529596567155,0.1920049891654617,-1.1476104462155672,9.91120946926826,-0.0005224850028753281,0.0020964602008461952,-0.0015732600586488843,STATIONARY,0,0.0,0.0,0.0,0.1389269168505969,-0.9397786153312034,8.185065071957702
1769097450.7806315,0.05762767791748047,0.018910780549049377,-0.11675333231687546,1.0091487169265747,0.1855147571861744,-1.1453501900285483,9.899748913049699,0.19077337505137207,-1.147181530357047,9.909034665218243,-0.0007952768355607986,0.0014512203633785248,-2.4372246116399765e-05,STATIONARY,0,0.0,0.0,0.0,0.1395604655497137,-0.9435883469880072,8.217972473317884
1769097450.8371918,0.05700826644897461,0.020607901737093925,-0.11771823465824127,1.0086612701416016,0.20216351604089142,-1.1548158819973469,9.894967060089112,0.19293481680706465,-1.1486302574999478,9.906365136442728,0.0003870036453008652,0.0002420283854007721,0.0005719917826354504,STATIONARY,0,0.0,0.0,0.0,0.1401874925996872,-0.9473213292137644,8.250167589835788
1769097450.8947835,0.057772159576416016,0.019395673647522926,-0.11675333231687546,1.0118293762207031,0.19027155848219993,-1.1453501900285483,9.926046180725098,0.1924294255432642,-1.1480078179005877,9.910099895384404,0.0016055833548307419,0.0008345600217580795,-0.0021245316602289677,STATIONARY,0,0.0,0.0,0.0,0.14082974936505663,-0.9511529458475618,8.2832437614521
1769097450.9576895,0.06286025047302246,0.020607901737093925,-0.11795946210622787,1.0110981464385986,0.20216351604089142,-1.1571823232620955,9.918872816562653,0.19427660809127845,-1.1497488111854324,9.911764682341081,0.0012770052999258041,0.0011474192142486572,1.3046781532466412e-05,STATIONARY,0,0.0,0.0,0.0,0.141597416108705,-0.9556960760502552,8.322409218334725
1769097451.0189917,0.060624122619628906,0.021577686071395874,-0.11675333231687546,1.0089049339294434,0.21167710036039353,-1.1453501900285483,9.89735740184784,0.19757859975184508,-1.1489141100658669,9.909030695319084,-0.0008222311735153198,-0.000382227823138237,-0.0002826403360813856,STATIONARY,0,0.0,0.0,0.0,0.14232357362320594,-0.959918661976,8.358827722716596
1769097451.0830817,0.06418561935424805,0.018668334931135178,-0.11795946210622787,1.0108546018600464,0.1831363656744361,-1.1571823232620955,9.916483644247055,0.1948379797885697,-1.1504831214822964,9.91044499870925,-0.0007897783070802689,-0.00036948779597878456,3.212667070329189e-05,STATIONARY,0,0.0,0.0,0.0,0.1431262659110727,-0.9646584151285261,8.399656711902503
1769097451.136548,0.05337262153625488,0.019880564883351326,-0.11747701466083527,1.0089049339294434,0.19502834150567652,-1.152449513822794,9.89735740184784,0.19487410364027782,-1.150856272483389,9.907961440484295,-0.002295231446623802,-0.00036221928894519806,0.0006367015885189176,STATIONARY,0,0.0,0.0,0.0,0.14368139144036046,-0.967936786576873,8.427880894777847
1769097451.1931612,0.05675148963928223,0.018425889313220978,-0.11771823465824127,1.0103671550750732,0.1807579741626978,-1.1548158819973469,9.911701791286468,0.1921953666773483,-1.1516076648803384,9.908671225412522,-0.002559404820203781,-0.000975979957729578,-0.0002601830055937171,STATIONARY,0,0.0,0.0,0.0,0.14430040112663245,-0.9716458057466364,8.459794065072485
1769097451.253063,0.060068368911743164,0.019153228029608727,-0.11795946210622787,1.0098797082901,0.18789316697046163,-1.1571823232620955,9.906919938325883,0.19137896290356274,-1.152665535841825,9.908338893702252,0.002300407737493515,-2.7410686016082764e-05,0.0009395922534167767,STATIONARY,0,0.0,0.0,0.0,0.1449909364122204,-0.9758048638421756,8.495545422086122
1769097451.3110392,0.057706594467163086,0.020123012363910675,-0.11844190955162048,1.0093923807144165,0.19740675128996374,-1.161915132701397,9.902139254808427,0.192522821748228,-1.1544207788097565,9.907162423772014,-0.0004789605736732483,0.0002687550149857998,0.0003228173591196537,STATIONARY,0,0.0,0.0,0.0,0.14563204723596898,-0.9796491439630179,8.528536778668366
1769097451.3763452,0.06537723541259766,0.018910780549049377,-0.11795946210622787,1.0098797082901,0.1855147571861744,-1.1571823232620955,9.906919938325883,0.19119294151365057,-1.1549448212684916,9.907116408699075,-0.002290027216076851,-4.050182178616524e-05,0.0008722796337679029,STATIONARY,0,0.0,0.0,0.0,0.14644924083913638,-0.984585589380301,8.570881606311733
1769097451.4381907,0.06206464767456055,0.020850349217653275,-0.11675333231687546,1.010123372077942,0.20454192582517863,-1.1453501900285483,9.909310280084611,0.1937261017364758,-1.1531241031042856,9.907532727094402,0.000738825649023056,0.00028638215735554695,-0.0009232608717866242,STATIONARY,0,0.0,0.0,0.0,0.1471954777526605,-0.9890274470540871,8.609045625391431
1769097451.5024717,0.06401491165161133,0.019638117402791977,-0.11795946210622787,1.0093923807144165,0.1926499317213893,-1.1571823232620955,9.902139254808427,0.1935218831224154,-1.153894208277782,9.906509238779568,0.0007192455232143402,0.0012080171145498753,-0.0012079281732439995,STATIONARY,0,0.0,0.0,0.0,0.14798851280251618,-0.9937560004157288,8.649641597905308
1769097451.5634465,0.06098222732543945,0.020850349217653275,-0.11675333231687546,1.0093923807144165,0.20454192582517863,-1.1453501900285483,9.902139254808427,0.19561309344801056,-1.1522728589176394,9.905679971974564,-0.0007910840213298798,0.0005722008645534515,0.0015350269386544824,STATIONARY,0,0.0,0.0,0.0,0.14871596504374648,-0.9980411096533232,8.686479158057887
1769097451.6250532,0.0616610050201416,0.019395673647522926,-0.11651210486888885,1.0096360445022583,0.19027155848219993,-1.1429837487637997,9.904529596567155,0.19459946098066722,-1.1505101177383852,9.905461671828624,0.0007519219070672989,0.00024273572489619255,-0.00027250940911471844,STATIONARY,0,0.0,0.0,0.0,0.14945584767285439,-1.0024154406326473,8.72414051121553
1769097451.6797996,0.055619001388549805,0.018183445557951927,-0.11602965742349625,1.0093923807144165,0.1783796009235084,-1.1382509393244982,9.902139254808427,0.19152151112637725,-1.148183763732878,9.90483119579818,0.0016277562826871872,-0.0024630012921988964,-0.0002634263364598155,STATIONARY,0,0.0,0.0,0.0,0.1500483143568603,-1.0059673164669989,8.754780842213863
1769097451.726276,0.04561662673950195,0.020365456119179726,-0.11795946210622787,1.0091487169265747,0.19978512452915312,-1.1571823232620955,9.899748913049699,0.19308964966637387,-1.1498913687858296,9.90386676013782,-0.00022324547171592712,-0.0006396761164069176,0.0003308114828541875,STATIONARY,0,0.0,0.0,0.0,0.15045011009732898,-1.0083600985491983,8.77538956715209
1769097451.7810595,0.0548098087310791,0.019880564883351326,-0.11771823465824127,1.0089049339294434,0.19502834150567652,-1.1548158819973469,9.89735740184784,0.19345754410216223,-1.1508258654256542,9.902631516533402,-0.0005009640008211136,0.0002421666868031025,-0.0008763650548644364,STATIONARY,0,0.0,0.0,0.0,0.1510312788331859,-1.0118173119471294,8.805138212348792
1769097451.85473,0.07355475425720215,0.020365456119179726,-0.11771823465824127,1.0079301595687866,0.19978512452915312,-1.1548158819973469,9.887794865369797,0.19465829276365693,-1.1515830279956256,9.89981605030088,-0.0004741717129945755,0.0011248989030718803,0.00034899532329291105,STATIONARY,0,0.0,0.0,0.0,0.1520844389592831,-1.0180477237613734,8.85869920567638
1769097451.901347,0.04671645164489746,0.019638117402791977,-0.11771823465824127,1.0093923807144165,0.1926499317213893,-1.1548158819973469,9.902139254808427,0.1942771776026367,-1.1521965081655205,9.900256911501302,-0.0007586684077978134,0.00023697735741734505,0.0012534019770100713,STATIONARY,0,0.0,0.0,0.0,0.15250843468885877,-1.020562308362213,8.880305792224412
1769097451.9628134,0.06136155128479004,0.020365456119179726,-0.11747701466083527,1.0098797082901,0.19978512452915312,-1.152449513822794,9.906919938325883,0.19532238911372035,-1.1522445195986153,9.901521315902547,-0.0001378282904624939,-0.0003513316623866558,-0.0014759276527911425,STATIONARY,0,0.0,0.0,0.0,0.15324387035657241,-1.0249007854896202,8.917587396107017
1769097452.0174289,0.054765939712524414,0.01769855059683323,-0.11675333231687546,1.0103671550750732,0.17362278135493397,-1.1453501900285483,9.911701791286468,0.19120457895358725,-1.1509362222014223,9.903453206351301,0.0007777567952871323,-0.0009805960580706596,0.0015257889172062278,STATIONARY,0,0.0,0.0,0.0,0.15381735180904157,-1.0283527978839868,8.947290904047678
1769097452.074959,0.057471275329589844,0.01624387688934803,-0.11554720252752304,1.0096360445022583,0.1593524322845042,-1.1335180567950012,9.904529596567155,0.1851601796891401,-1.1476308768109096,9.903657466751598,-0.0013502612709999084,0.000808460172265768,8.76572448760271e-06,STATIONARY,0,0.0,0.0,0.0,0.15442892615942522,-1.0321433624057115,8.980002164599592
1769097452.1244955,0.04944944381713867,0.015274092555046082,-0.11168759316205978,1.0079301595687866,0.14983884796500208,-1.0956552889198066,9.887794865369797,0.1784574530656971,-1.1377677674738196,9.90064731182796,0.0016371700912714005,0.002532839309424162,0.0006090722745284438,STATIONARY,0,0.0,0.0,0.0,0.1548652987992884,-1.0349254861876809,9.004211697626078
1769097452.178388,0.05392765998840332,0.01575898379087448,-0.11892437189817429,1.0045183897018433,0.15459563098847867,-1.16664808832109,9.854325402975084,0.17392933189036974,-1.1432482203895937,9.891857068749308,-0.0008854027837514877,0.00036650989204645157,0.002365331631153822,STATIONARY,0,0.0,0.0,0.0,0.15537111877987866,-1.0382502721013749,9.032979122281455
1769097452.2312322,0.052793025970458984,0.026669051498174667,-0.1201304942369461,1.010610818862915,0.2616233951970935,-1.1784801484644414,9.914092133045196,0.19057053153240325,-1.1499339813950638,9.896076489426704,0.0011553578078746796,0.0012551923282444477,-0.001291863271035254,STATIONARY,0,0.0,0.0,0.0,0.15590225859267381,-1.0414552572304692,9.06056051260311
1769097452.2831595,0.05199289321899414,0.030063293874263763,-0.12302520871162415,1.006711721420288,0.29492091290652755,-1.206877297461033,9.875841987133027,0.21037250516310846,-1.1607397880278207,9.892236703931209,0.00027146749198436737,0.00032759830355644226,-0.0024500014260411263,STATIONARY,0,0.0,0.0,0.0,0.15647095036984232,-1.0445930397670793,9.08730180974633
1769097452.3343568,0.05113554000854492,0.02472948282957077,-0.11699455976486206,1.01134192943573,0.24259622655808927,-1.147716631293297,9.921264327764511,0.21648741603304447,-1.158268458236308,9.89774510969015,-0.00043407268822193146,0.0029991846531629562,-0.002648451365530491,STATIONARY,0,0.0,0.0,0.0,0.15703703107208924,-1.0476217304607167,9.113182863735627
1769097452.3847342,0.05051064491271973,0.022305024787783623,-0.11337617039680481,1.0071990489959717,0.21881229316815734,-1.1122202315926553,9.880622670650483,0.21692859463841133,-1.1495301502614754,9.894495882596852,0.003143610432744026,0.0020336504094302654,-0.004341783467680216,STATIONARY,0,0.0,0.0,0.0,0.15759048647292853,-1.050554555758139,9.138426940911959
1769097452.430291,0.045838356018066406,0.019880564883351326,-0.11458230018615723,1.0093923807144165,0.19502834150567652,-1.1240523648262024,9.902139254808427,0.21277270915596766,-1.1446953769840378,9.895946321521848,-0.0010896548628807068,0.002856670878827572,-0.004613449331372976,STATIONARY,0,0.0,0.0,0.0,0.15803755488962137,-1.0529597380383944,9.159219856841778
1769097452.4771466,0.046480417251586914,0.01600143127143383,-0.112411268055439,1.0069553852081299,0.1569740407727659,-1.1027545396238565,9.878232328891755,0.20218411575168316,-1.136736504725791,9.892584838695083,7.215701043605804e-05,-0.00112224742770195,-0.0023676773998886347,STATIONARY,0,0.0,0.0,0.0,0.15847435935461734,-1.0554155767621345,9.18059208587089
1769097452.5368137,0.05962014198303223,0.013576971367001534,-0.11795946210622787,1.0037872791290283,0.13319008911028504,-1.1571823232620955,9.847153208255769,0.18909151485997316,-1.1406163904931703,9.88396353864699,-0.00023559480905532837,0.001903010532259941,-0.0014030035817995667,STATIONARY,0,0.0,0.0,0.0,0.15914649674118428,-1.0594699676762334,9.215725240453255
1769097452.59469,0.05799722671508789,0.010182728059589863,-0.12085417658090591,1.0064680576324463,0.09989256226457656,-1.185579472258687,9.873451645374299,0.17216474100518628,-1.1491487767456348,9.88196875692551,0.0015791002660989761,-0.0005173897370696068,0.000395085196942091,STATIONARY,0,0.0,0.0,0.0,0.15972560354567195,-1.0633353344876761,9.248965004387832
1769097452.636348,0.04151272773742676,0.01624387688934803,-0.12037172168493271,1.0103671550750732,0.1593524322845042,-1.18084658972919,9.911701791286468,0.1697334226324648,-1.1551638889913771,9.887611024396154,-0.002021605148911476,-0.00019984552636742592,-0.000829374766908586,STATIONARY,0,0.0,0.0,0.0,0.1600181062670589,-1.0653260360003038,9.266004389370448
1769097452.6788034,0.04254961013793945,0.02569926716387272,-0.12109540402889252,1.0074427127838135,0.2521098108775914,-1.1879459135234356,9.883013012409211,0.1853655175643883,-1.1613847458468742,9.88673848602188,0.0018891021609306335,0.0003720847889780998,-0.0004913373850286007,STATIONARY,0,0.0,0.0,0.0,0.16035370485013098,-1.0674286874547327,9.283904026102832
1769097452.720631,0.04172348976135254,0.025941714644432068,-0.11916559189558029,1.0069553852081299,0.2544882206618786,-1.1690144564956426,9.878232328891755,0.1984825366494664,-1.162832592295419,9.885124321349252,-0.0005358811467885971,0.000990564003586769,-0.0016458756290376186,STATIONARY,0,0.0,0.0,0.0,0.16069923309424056,-1.0694530041054153,9.301112540802505
1769097452.7657614,0.0451817512512207,0.02521437592804432,-0.112411268055439,1.0089049339294434,0.24735302785411478,-1.1027545396238565,9.89735740184784,0.20775640958994449,-1.1514319246685214,9.887445722902992,0.000602424144744873,0.002494373358786106,-0.0022118035703897476,STATIONARY,0,0.0,0.0,0.0,0.16112334508545043,-1.071803526466086,9.32129668001533
1769097452.8091319,0.04359602928161621,0.018183445557951927,-0.11120513826608658,1.0086612701416016,0.1783796009235084,-1.0909224063903094,9.894967060089112,0.20218174102710118,-1.1399493802870502,9.888873003940837,-0.0006087590008974075,0.0012201294302940369,-0.0021532231476157904,STATIONARY,0,0.0,0.0,0.0,0.1615076144863119,-1.0739701299543634,9.340091608207734
1769097452.855997,0.05202436447143555,0.014789201319217682,-0.11409984529018402,1.0079301595687866,0.14508206494152548,-1.1193194822967052,9.887794865369797,0.19134626284983833,-1.1360345628170083,9.888668411765199,-0.0036116503179073334,-0.0008772099390625954,0.0009265858680009842,STATIONARY,0,0.0,0.0,0.0,0.16202549974790403,-1.077044846690294,9.366855630409955
1769097452.9194684,0.058147430419921875,0.01624387688934803,-0.11723578721284866,1.0079301595687866,0.1593524322845042,-1.1500830725580455,9.887794865369797,0.185274977044676,-1.1387004679701993,9.888502643873801,6.185099482536316e-05,-0.0014586648903787136,0.0005903556011617184,STATIONARY,0,0.0,0.0,0.0,0.1626519373572183,-1.0808949337892566,9.40028988070503
1769097452.9790242,0.05965089797973633,0.018425889313220978,-0.11868314445018768,1.0071990489959717,0.1807579741626978,-1.1642816470563413,9.880622670650483,0.18441781130382387,-1.1435548616680047,9.887007306531244,-0.0002506040036678314,-0.000544477254152298,0.0014564353041350842,STATIONARY,0,0.0,0.0,0.0,0.1633081382776604,-1.084963964581333,9.435470123053069
1769097453.0375807,0.058444976806640625,0.022305024787783623,-0.11892437189817429,1.008173942565918,0.21881229316815734,-1.16664808832109,9.890186376571656,0.1909446549430191,-1.147937130896066,9.887610580427145,-0.0023292042315006256,0.0006698211655020714,-0.0009490802185609937,STATIONARY,0,0.0,0.0,0.0,0.1639603699541276,-1.088885105812475,9.469244374691856
1769097453.0970778,0.05953025817871094,0.020123012363910675,-0.11771823465824127,1.0089049339294434,0.19740675128996374,-1.1548158819973469,9.89735740184784,0.19217092991946116,-1.149242472056549,9.889460178849443,0.0033481288701295853,3.175530582666397e-05,-0.000326941953971982,STATIONARY,0,0.0,0.0,0.0,0.16464139521905702,-1.092957850630479,9.504291154353757
1769097453.1520412,0.05542111396789551,0.020365456119179726,-0.11482352763414383,1.0071990489959717,0.19978512452915312,-1.126418806090951,9.880622670650483,0.19361583197822418,-1.1449113558147557,9.887783135584124,-0.0012124404311180115,0.0009467368945479393,0.00010033679427579045,STATIONARY,0,0.0,0.0,0.0,0.1652360862224746,-1.0964744457149667,9.53466147900333
1769097453.2178342,0.0652766227722168,0.01745610684156418,-0.11530598253011703,1.0074427127838135,0.1712444081157446,-1.1311516886204482,9.883013012409211,0.18937053512762733,-1.142300262655718,9.886877936656425,0.0006196741014719009,-0.0011768201366066933,0.0024640574119985104,STATIONARY,0,0.0,0.0,0.0,0.16604300117036452,-1.1013418299481805,9.576789836457008
1769097453.2758362,0.05805611610412598,0.017940998077392578,-0.11675333231687546,1.0084174871444702,0.1760011911392212,-1.1453501900285483,9.892575548887253,0.18683351136564333,-1.14287902988797,9.887959139864954,-0.0014778412878513336,8.378922939300537e-05,0.0015012184157967567,STATIONARY,0,0.0,0.0,0.0,0.16667272587771872,-1.105193918138232,9.610117327495251
1769097453.3483472,0.07257652282714844,0.022789916023612022,-0.11844190955162048,1.0074427127838135,0.22356907619163396,-1.161915132701397,9.883013012409211,0.1938046088970004,-1.1464914019845454,9.887020541613918,0.0003479793667793274,0.00036615412682294846,0.0011357408948242664,STATIONARY,0,0.0,0.0,0.0,0.16769356290720872,-1.1112328915341627,9.66219574161373
1769097453.4133885,0.06502199172973633,0.017940998077392578,-0.11723578721284866,1.0086612701416016,0.1760011911392212,-1.1500830725580455,9.894967060089112,0.19042615637642923,-1.1471729727181648,9.888528506867418,0.0015628132969141006,0.00034385640174150467,-8.817052002996206e-05,STATIONARY,0,0.0,0.0,0.0,0.16849865792406965,-1.1160829775800483,9.704003049897727
1769097453.4842277,0.07082509994506836,0.020123012363910675,-0.11820068955421448,1.006224274635315,0.19740675128996374,-1.159548764526844,9.87106013417244,0.1917508238532912,-1.149521455779055,9.885213633927595,-0.00030116550624370575,-0.0005634548142552376,0.001691328827291727,STATIONARY,0,0.0,0.0,0.0,0.16946051740617063,-1.1218492011085874,9.753589206949453
1769097453.5490782,0.06495380401611328,0.01721366122364998,-0.11409984529018402,1.0079301595687866,0.1688660166040063,-1.1193194822967052,9.887794865369797,0.18740810518061674,-1.1437902004197809,9.885703459420133,-0.001787576824426651,-0.00025951629504561424,0.002515665255486965,STATIONARY,0,0.0,0.0,0.0,0.1702511915752656,-1.1266748481395112,9.795296956788572
1769097453.60662,0.06218671798706055,0.019880564883351326,-0.11675333231687546,1.0071990489959717,0.19502834150567652,-1.1453501900285483,9.880622670650483,0.18885415374106784,-1.1440862307043875,9.884739307263573,-0.000577269122004509,-0.001441969070583582,0.000985836493782699,STATIONARY,0,0.0,0.0,0.0,0.1709815260723451,-1.1310992445605859,9.83352310097299
1769097453.6716487,0.060285329818725586,0.022062579169869423,-0.11868314445018768,1.0096360445022583,0.21643390165641904,-1.1642816470563413,9.904529596567155,0.19408780438776022,-1.147918599084803,9.88849479700662,-0.001494256779551506,-0.0001977565698325634,-0.07651414722204208,STATIONARY,0,0.0,0.0,0.0,0.17168690345399706,-1.1352711492216037,9.86946106518663
1769097453.7268584,0.055260419845581055,0.019153228029608727,-0.1823667734861374,0.8970481157302856,0.18789316697046163,-1.7890180478990079,8.800042015314103,0.1929122835590501,-1.2695763660513022,9.681945352744718,1.2794901132583618,0.05142035335302353,-0.016343921422958374,STATIONARY,0,0.0,0.0,0.0,0.17227600239536459,-1.1391480723466005,9.899026957272161
1769097453.825755,0.09899759292602539,-0.04196205735206604,0.050015270709991455,1.0941988229751587,-0.4116477826237679,0.4906498056650162,10.734090453386308,0.07818838575355422,-0.9355483368538265,9.881604896526191,0.45787641406059265,0.10761996358633041,-0.03772420436143875,STATIONARY,0,0.0,0.0,0.0,0.17304228949995296,-1.148316935718583,9.995871857340981
1769097453.9125726,0.08664774894714355,0.04921652376651764,0.08934766799211502,1.392971158027649,0.4828140981495381,0.8765006230026484,13.665047060251236,0.15497188746826296,-0.5916861942519942,10.59956702539254,-1.4938380718231201,-0.10954263061285019,-0.14859624207019806,STATIONARY,0,0.0,0.0,0.0,0.17420579245740553,-1.152759216497005,10.075451630054832
1769097453.9703321,0.057753562927246094,0.1665603369474411,-0.05934157222509384,1.0123167037963867,1.6339569054543972,-0.5821408235281706,9.930826864242555,0.4356303952830866,-0.5898748239735208,10.472664038910795,-1.1624436378479004,-0.10221225023269653,0.023667752742767334,STATIONARY,0,0.0,0.0,0.0,0.17565882632789565,-1.1547267286537863,10.110382928989821
1769097454.0576844,0.0873403549194336,0.7026082873344421,-0.48824119567871094,1.0206023454666138,6.892587298750878,-4.789646129608155,10.012109009027482,1.660930089001069,-1.386841347277397,10.385267151260324,-0.26905322074890137,-1.5853930711746216,-0.18036124110221863,STATIONARY,0,0.0,0.0,0.0,0.18832896177256284,-1.1653060226449243,10.189605252859371
1769097454.1256802,0.06798911094665527,0.22135312855243683,-0.2600415050983429,1.0676358938217163,2.1714741910994055,-2.551007165014744,10.473508118391038,1.7578131162975101,-1.607758420325294,10.402012133705627,-0.950473427772522,-0.24118410050868988,-0.3880554437637329,STATIONARY,0,0.0,0.0,0.0,0.19645448666552112,-1.172737916823603,10.237688753742166
1769097454.1955643,0.06999921798706055,0.22159557044506073,-0.18719129264354706,1.0201150178909302,2.173852546066046,-1.8363465808331967,10.007328325510025,1.8367625337229556,-1.6511362850447355,10.327115250153904,-1.425421118736267,-0.8764839768409729,-1.9634768962860107,STATIONARY,0,0.0,0.0,0.0,0.20545442198979733,-1.1808283038519403,10.28829048784295
1769097454.2508273,0.05498194694519043,-0.17179761826992035,-0.36304497718811035,0.9667453765869141,-1.6853346352279188,-3.561471226215363,9.483772144317628,1.1683943462192234,-2.0136495948452096,10.167078863860946,1.094092607498169,-3.5190868377685547,-0.7747331261634827,STATIONARY,0,0.0,0.0,0.0,0.20898649502831626,-1.186915595754706,10.319025714568193
1769097454.3004127,0.05374431610107422,0.3466976583003998,-0.4219040870666504,1.0881065130233765,3.4011040279269222,-4.1388790941238405,10.674324892759323,1.5920828623510803,-2.4169422129433715,10.263336034714145,1.0895110368728638,0.8562352657318115,-0.06276967376470566,STATIONARY,0,0.0,0.0,0.0,0.21358514918116975,-1.1938968161469319,10.348670863067857
1769097454.3487742,0.04763007164001465,0.5387148261070251,-0.15366089344024658,0.7773929834365845,5.284792444109917,-1.507413364648819,7.626225167512894,2.292827189309268,-2.244346137748188,9.762906624050638,0.8311150670051575,-0.5860175490379333,-1.6757593154907227,STATIONARY,0,0.0,0.0,0.0,0.21878671133886163,-1.198988393040867,10.370819224654602
1769097454.412761,0.06183457374572754,0.29238978028297424,-0.1473890244960785,0.9894092082977295,2.8683437445759776,-1.4458863303065301,9.706104333400727,2.4020396665551984,-2.0928269976747975,9.752127579002584,1.0305625200271606,0.31225982308387756,-0.20601758360862732,STATIONARY,0,0.0,0.0,0.0,0.2279709448582896,-1.206990347434057,10.40810662595937
1769097454.492946,0.07980537414550781,0.36827534437179565,-0.048968859016895294,0.9723504185676575,3.6127811282873155,-0.48038450695574286,9.538757606148721,2.6317951325449562,-1.7868430303736018,9.711637582508098,0.9914672374725342,0.5926469564437866,-0.8620868921279907,STATIONARY,0,0.0,0.0,0.0,0.24473257893668945,-1.2183705679764134,10.469959052634627
1769097454.5499537,0.05977630615234375,0.37530627846717834,0.0480729304254055,1.0807955265045166,3.6817545917630197,0.471595447473228,10.602604115009308,2.8310399196838096,-1.3582721081020854,9.880711193453278,1.379061222076416,1.0871423482894897,-1.1467499732971191,STATIONARY,0,0.0,0.0,0.0,0.2548484699642804,-1.223223955078391,10.505264876834815
1769097454.6214151,0.0696110725402832,0.2591747045516968,0.09541748464107513,0.9021657705307007,2.5425038516521457,0.9360455243289472,8.850246208906174,2.776286084236044,-0.9228926043609802,9.68516576101055,1.2782684564590454,0.4124417304992676,-1.1711846590042114,STATIONARY,0,0.0,0.0,0.0,0.2683015233855683,-1.227696017082043,10.552196298317899
1769097454.6744916,0.05383110046386719,0.20195744931697845,0.2381795197725296,0.8363676071166992,1.9812025777995588,2.3365410889685156,8.20476622581482,2.6254076454480093,-0.3043685587713634,9.404238828374314,0.4053419828414917,1.3256852626800537,-0.8535347580909729,STATIONARY,0,0.0,0.0,0.0,0.2759093965204232,-1.2285780124496524,10.579447782886474
1769097454.727783,0.05074191093444824,0.09261434525251389,0.20151783525943756,0.923611044883728,0.9085467269271612,1.9768899638950825,9.060624350309372,2.299608791735641,0.12853279257783357,9.339033078820075,0.4291657507419586,0.16015437245368958,-0.777787446975708,STATIONARY,0,0.0,0.0,0.0,0.2818302947684027,-1.228247073731242,10.60349337916047
1769097454.7802439,0.05247831344604492,0.09115966409444809,0.2500763535499573,0.9145942330360413,0.8942763047665359,2.453249028325081,8.972169426083566,2.0329269024805994,0.5696808649945031,9.26941546667636,0.11762446165084839,0.23651252686977386,-0.4088248610496521,STATIONARY,0,0.0,0.0,0.0,0.2874289213456733,-1.226678187792732,10.629021102623707
1769097454.833416,0.05319666862487793,0.09067477285861969,0.3617609441280365,0.9479807615280151,0.8895195217430591,3.548874861896038,9.299691270589829,1.8159490390136535,1.1350254300123377,9.275160732413276,0.3653303384780884,-0.6455768942832947,-0.42134758830070496,STATIONARY,0,0.0,0.0,0.0,0.292567849295772,-1.2234661957262964,10.655268745980122
1769097454.87997,0.04776406288146973,0.11467691510915756,0.3403951823711395,0.9221488833427429,1.1249805372208357,3.339276739060879,9.046280545592309,1.6848279077636041,1.553313563917042,9.231727451534598,0.1020474061369896,-0.5985403060913086,-0.27596166729927063,STATIONARY,0,0.0,0.0,0.0,0.2964116252930248,-1.2199224573031142,10.676330061636087
1769097454.9370112,0.055957794189453125,0.06255104392766953,0.35083526372909546,0.8950985074043274,0.6136257409304381,3.4416939371824267,8.780916357636452,1.4815520137854674,1.911660681232081,9.146179614753867,0.3754096031188965,-1.029811143875122,-0.1369898021221161,STATIONARY,0,0.0,0.0,0.0,0.3010507716757855,-1.2139365225185876,10.704969262744829
1769097454.9865956,0.04950141906738281,0.21504953503608704,0.381427139043808,0.8714599609375,2.109635938704014,3.7418002340197565,8.549022216796875,1.6007398994005262,2.258955771940764,9.032860478857954,0.11365383863449097,-0.8315854072570801,-0.0911749079823494,STATIONARY,0,0.0,0.0,0.0,0.3049732095017353,-1.2084011987784058,10.727103298156871
1769097455.0332465,0.049401283264160156,0.28414663672447205,0.4137185513973236,0.9097203016281128,2.787478506267071,4.058578989207745,8.924356158971786,1.8259404812312543,2.6004599526083996,9.012270236130425,-0.1762017160654068,-0.6782581806182861,-0.03925136849284172,STATIONARY,0,0.0,0.0,0.0,0.30942939312212075,-1.2020548106209628,10.749097624599347
1769097455.0960379,0.060079097747802734,0.27711567282676697,0.4273149371147156,0.839535653591156,2.718504750430584,4.19195953309536,8.235844761729242,1.9953172855097823,2.9024697039009415,8.864932425114887,-0.3823687434196472,-0.09335470199584961,0.3544512689113617,STATIONARY,0,0.0,0.0,0.0,0.31663148684597847,-1.1915783520697547,10.78109558033551
1769097455.1510618,0.0600583553314209,0.32487753033638,0.36151814460754395,0.8799893260002136,3.187048572599888,3.5464929986000064,8.632695288062097,2.2214652996434077,3.0246823123385482,8.820862115036173,-0.8053929209709167,-0.3361736536026001,0.2683192789554596,STATIONARY,0,0.0,0.0,0.0,0.3246443256108059,-1.1806683046845965,10.812912483307572
1769097455.213791,0.05782723426818848,0.38403433561325073,0.3476789891719818,0.9757621884346008,3.76737683236599,3.4107308837771417,9.572227068543434,2.514824068468823,3.097940536516865,8.963444334674099,-0.38145244121551514,0.7792662978172302,0.013893907889723778,MOVING,0,0.1454253205506255,0.17914533315407827,0.5183311953910659,0.33305386969081335,-1.1703088255362428,10.842886142771961
1769097455.2487984,0.03526735305786133,0.3173617124557495,0.3187866508960724,1.0108546018600464,3.113318399190903,3.1272970452904705,9.916483644247055,2.628396906430908,3.1035113528854255,9.144297140659807,-0.22934699058532715,0.9545845985412598,0.08383798599243164,MOVING,0,0.23812192222591483,0.2885979637553694,0.8408263511167071,0.3414517995927713,-1.1601307392567024,10.872539862557147
1769097455.2835412,0.03613781929016113,0.3113005459308624,0.24837680160999298,0.9484680891036987,3.0538583555817604,2.436576423794031,9.304471954107285,2.7091342864579246,2.976950934942009,9.174692596722574,0.07791822403669357,0.9738268256187439,-0.036502473056316376,MOVING,0,0.33602412750271093,0.39617847867797995,1.1723797342198468,0.35359497878959834,-1.1458137129875867,10.914907109531832
1769097455.327606,0.04243779182434082,0.21577687561511993,0.2738700211048126,0.9131320714950562,2.1167711497843267,2.686664907038212,8.957825621366501,2.5967249300401716,2.9218650196418614,9.133538994111625,-0.17864517867565155,0.4356546103954315,-0.02367430366575718,MOVING,0,0.4462233995088317,0.5201759781203648,1.5599869606714551,0.3725317145251038,-1.123738593116092,10.981109511417493
1769097455.3640382,0.03658246994018555,0.21165528893470764,0.1939912587404251,0.9850226640701294,2.0763383844494823,1.9030542482435704,9.66307233452797,2.4979741586690967,2.728531140414564,9.23402550029802,-0.1816994994878769,-0.09121667593717575,0.12507137656211853,MOVING,0,0.5376054640797042,0.6199923865454408,1.8977904209630143,0.3921986502544791,-1.1010577402721495,11.050535372445145
1769097455.4060946,0.04179668426513672,0.23517253994941711,0.24619166553020477,1.0020813941955566,2.307042616903782,2.415140238851309,9.83041847705841,2.4617421746023456,2.669060745700728,9.347199576365897,-0.1816994994878769,-0.41375353932380676,0.1308746039867401,MOVING,0,0.6404981244937296,0.7315502758179644,2.2884723704195995,0.4189693481363557,-1.0704813643697124,11.146185929561062
1769097455.446632,0.04066634178161621,0.2545681893825531,0.2119579166173935,1.0279133319854736,2.497313937842846,2.0793071620166304,10.083829786777496,2.4684924241789203,2.557146589193177,9.486985668281115,0.08555404096841812,-0.2347700148820877,0.3028331696987152,MOVING,0,0.7408826811007199,0.8355400729997883,2.674273372083214,0.4490983364660778,-1.0365030061888665,11.254938844527674
1769097455.4917524,0.04549741744995117,0.3273020088672638,0.18088047206401825,0.9501740336418152,3.210832706987858,1.774437430948019,9.321207270026207,2.60936208379703,2.4086163595190437,9.455526852054899,0.26545384526252747,-0.2543177008628845,0.29641908407211304,MOVING,0,0.8596019171053078,0.9451258969856079,3.1044754244803783,0.48820800372939627,-0.9935022187109528,11.396184458878372
1769097455.5354564,0.04480743408203125,0.3234228491783142,0.19544802606105804,0.8680481910705566,3.1727781504392625,1.9173451356589795,8.515552754402162,2.716278320689018,2.3153906358341128,9.277153356432189,0.2627049684524536,-0.09304927289485931,0.5257989764213562,MOVING,0,0.9813113789080314,1.0488726102748973,3.5201608619676086,0.5321780486537651,-0.9465049283656123,11.55391383465913
1769097455.577604,0.04061317443847656,0.30790629982948303,0.1952052265405655,0.8141911625862122,3.0205608013272287,1.9149632723629475,7.987215304970742,2.7740202625826536,2.239403830725655,9.032369207645006,-0.0448656901717186,0.09021030366420746,0.750597357749939,MOVING,0,1.0939731477281693,1.139821908690351,3.8869940481904197,0.5766077709334585,-0.9002131423591737,11.711777001979609
1769097455.608799,0.03134465217590332,0.27905526757240295,0.24060744047164917,0.7600904703140259,2.7375321748852732,2.3603589910268785,7.456487513780594,2.767096127367202,2.262356798057852,8.733323173159192,-0.7201772332191467,0.07127347588539124,0.7365474700927734,MOVING,0,1.1807068133777834,1.2107346956232647,4.160737025392851,0.6136166153205043,-0.8622630844475643,11.84219385683595
1769097455.6470394,0.03803682327270508,0.19832076132297516,0.07502290606498718,0.8595187664031982,1.9455266685783863,0.7359747084975243,8.431879098415376,2.6111916012457193,1.9727040196986796,8.676119859279503,-1.3298207521438599,0.34402480721473694,1.475083589553833,MOVING,0,1.2800282468455386,1.2857700897898983,4.490749063173072,0.6623048235298385,-0.8133564747728957,12.01300768531393
1769097455.6834154,0.03645062446594238,0.37045738101005554,0.08230668306350708,1.02303946018219,3.634186907708645,0.8074285608530045,10.036017104387284,2.8053195557022157,1.7515763764192482,8.9341797631676,-0.23881539702415466,-1.5685943365097046,0.6840130686759949,MOVING,0,1.3822838964774045,1.3496161425101725,4.816405494631517,0.712689934745656,-0.7641621235890836,12.188568673274444
1769097455.7223082,0.038823604583740234,0.5164098143577576,0.14251923561096191,0.9781991243362427,5.065980278849602,1.3981137013435365,9.596133409738542,3.2343121807242454,1.6845017909781703,9.059794911684895,0.07516933232545853,-0.2714219093322754,0.36147621273994446,MOVING,0,1.5078515536822172,1.4150145739637112,5.168139389892553,0.7712301672367927,-0.7092261572892868,12.389214473381285
1769097455.760029,0.037836551666259766,0.4322810471057892,0.11896836012601852,0.9684512615203857,4.240677072107792,1.1670796128362417,9.500506875514985,3.425284276653605,1.5863135506230737,9.143426294451109,0.19123372435569763,0.21635396778583527,0.1974589228630066,MOVING,0,1.6374524991874486,1.4750352085807492,5.5140951112891905,0.8331857233233448,-0.6534159114102691,12.597848817952249
1769097455.8042629,0.044164180755615234,0.3947019577026367,0.14130526781082153,1.057157039642334,3.872026205062866,1.3862046772241594,10.370710558891297,3.5100599312281098,1.5483400369460263,9.376320993270584,0.7156615257263184,1.1408984661102295,0.14981143176555634,MOVING,0,1.7924714204532493,1.5434163778435894,5.928192646458663,0.9123487551355165,-0.5852521915180079,12.859662589544559
1769097455.842605,0.03825092315673828,0.3990659713745117,0.11921115219593048,0.9155690670013428,3.91483717918396,1.169461403042078,8.981732547283173,3.5868721889772583,1.476442410708275,9.301442206058397,0.9551207423210144,1.442055106163025,-0.3181113600730896,MOVING,0,1.92967259292686,1.599891663040941,6.283981397529445,0.9861605132052257,-0.5240548584559226,13.10003067909983
1769097455.8827353,0.040270328521728516,0.22595958411693573,0.15028859674930573,0.9496866464614868,2.2166635201871396,1.4743311341106893,9.316426001787185,3.326855545332545,1.4760417658523388,9.304285595071471,0.7856056094169617,0.9735214114189148,-0.18280470371246338,MOVING,0,2.063646158681736,1.659332349863607,6.658668035102959,1.0692642219679422,-0.4572329996001834,13.36817742839056
1769097455.9255779,0.04279375076293945,0.14740711450576782,0.13329312205314636,0.959190845489502,1.4460637933015823,1.3076055273413658,9.409662194252014,2.9699484771634563,1.4440785865181756,9.324282308171975,0.5971536636352539,0.4778043031692505,-0.19624373316764832,MOVING,0,2.1907413935922406,1.7211298889771638,7.057689048242157,1.1630142631513833,-0.38357939610064895,13.670202414483361
1769097455.9627824,0.037096500396728516,0.1568625122308731,0.2046741396188736,0.953342080116272,1.5388212449848653,2.00785330966115,9.352285805940628,2.698371666991761,1.5510628835981248,9.329596371398964,0.654574990272522,0.7154308557510376,-0.3633154034614563,MOVING,0,2.2908415392073214,1.7786688938539126,7.403784423735075,1.24799646721943,-0.3175970047741486,13.944856906295742
1769097456.0076735,0.04498553276062012,0.081219382584095,0.19593361020088196,0.8768212795257568,0.796762143149972,1.922108716070652,8.601616752147676,2.3375141296148017,1.6214741240138306,9.19145185257424,0.2324671447277069,0.6479302644729614,-0.48304498195648193,MOVING,0,2.3959958576635203,1.8516117711802345,7.817266782166716,1.3557816173686623,-0.23430126278177033,14.29652081722341
1769097456.0504704,0.04281473159790039,0.00315179699100554,0.18913541734218597,0.952610969543457,0.030919128481764348,1.8554184441268444,9.345113611221313,1.8998048200014983,1.6658683964345722,9.220611363566997,0.22605304419994354,0.30279141664505005,-0.27565622329711914,MOVING,0,2.477335491120282,1.9229354794510054,8.212044782866387,1.46184807149893,-0.15197129634899564,14.648117310471772
1769097456.0945644,0.0441584587097168,0.09455391019582748,0.28503847122192383,1.0191402435302734,0.9275738590210677,2.796227402687073,9.997765789031982,1.7153101243542852,1.880370144682064,9.368087503446823,0.3839617073535919,0.25728195905685425,-0.6815761923789978,MOVING,0,2.5530809424209395,2.0059697268439325,8.625725088076358,1.5745881908773898,-0.06339076499321597,15.02901603561496
1769097456.1408,0.04637908935546875,-0.05479751527309418,0.33189743757247925,0.9879470467567444,-0.537563624829054,3.255913862586022,9.691760528683663,1.2877951887385473,2.1413991900111755,9.42950907782259,-0.5790673494338989,-0.6193097233772278,-0.4790743589401245,MOVING,0,2.6128077105509875,2.105285871223189,9.063057132174896,1.6957678331536918,0.034250476547050185,15.449352372181819
1769097456.1822348,0.041243791580200195,-0.01900634355843067,0.31344521045684814,1.0427788496017456,-0.1864522303082049,3.0748975145816804,10.229660514593125,1.008035707913708,2.3185438153017963,9.58134922869558,-0.2159079611301422,-3.4060769081115723,-0.2820703089237213,MOVING,0,2.65438292519358,2.2009114091110584,9.458228302820327,1.805244649294418,0.1250244079909114,15.839445569021292
1769097456.2427278,0.06056094169616699,0.13164812326431274,0.2219124138355255,1.1283164024353027,1.291468089222908,2.1769607797265054,11.068783907890321,1.0618210459916815,2.2916764143388293,9.863611180275896,-0.16398441791534424,0.015073874965310097,1.5590776205062866,MOVING,0,2.718687807651645,2.339697490826313,10.055577884422677,1.9698909431036895,0.266718691319512,16.44842083500108
1769097456.291584,0.04900765419006348,0.4330084025859833,0.2673146426677704,0.9082581996917725,4.247812429368496,2.6223566445708277,8.910012938976289,1.6664083654676962,2.3544277058340923,9.682652309020787,1.2868205308914185,0.21665941178798676,-0.6021637320518494,MOVING,0,2.800354572565915,2.455082469649335,10.530101960425787,2.1071297516055627,0.38703652400017363,16.964476430463737
1769097456.3414984,0.04961514472961426,0.04994386062026024,0.6441287398338318,0.8887624144554138,0.48994927268475297,6.31890293776989,8.71875928580761,1.4431584680919693,3.1067434421888738,9.499739856022115,-1.9837520122528076,0.07982559502124786,-0.10003245621919632,MOVING,0,2.8719570888280668,2.609223995171316,11.001432928276008,2.249622318225009,0.5164935501525808,17.510314117433296
1769097456.4048996,0.06357932090759277,0.09115966409444809,0.22749663889408112,0.935552179813385,0.8942763047665359,2.231742027550936,9.177766883969307,1.3390002467092745,2.940699440132292,9.438640890992644,0.3201262950897217,-0.9940755367279053,-0.0502469427883625,MOVING,0,2.9570898152089415,2.7961916685682655,11.601535306415958,2.4376320805387524,0.6942735175676198,18.247931853700685
1769097456.4413512,0.03771519660949707,0.22523225843906403,0.13912014663219452,0.7408384680747986,2.2095284552872183,1.3647686384618283,7.267625371813774,1.5041953940968242,2.6416440867396602,9.02665972239011,-1.4211450815200806,-1.4543625116348267,0.48395469784736633,MOVING,0,3.013820840236403,2.895821794671967,11.94197755257293,2.551298926074068,0.8034900058997397,18.698325885002173
1769097456.4812791,0.03886842727661133,0.5025903582572937,0.17141155898571014,0.9886780977249146,4.930411414504052,1.6815473936498166,9.698932138681412,2.154368765729823,2.459452041544062,9.15423300467954,-0.9278714060783386,-2.4323575496673584,-0.5731475949287415,MOVING,0,3.0975577659341758,2.9914168274890356,12.297788192388472,2.671696124834383,0.9197616733130287,19.176321571021195
1769097456.5148125,0.03331899642944336,0.43422064185142517,0.2107439488172531,0.9513924717903137,4.259704496562481,2.067398137897253,9.333160148262978,2.5538862574413344,2.3850542199012725,9.188186982924753,-0.8762533068656921,-2.2738380432128906,-0.10980629920959473,MOVING,0,3.182650693027068,3.0708844405259548,12.6039293616656,2.7777388519115176,1.0220804610221461,19.596271848419487
1769097456.5686634,0.05370593070983887,0.6980017423629761,-0.02267523482441902,1.1275854110717773,6.847397092580795,-0.22244405362755063,11.061612882614137,3.3686411938488887,1.8902442213694353,9.543696275523548,-0.817304790019989,0.5022388696670532,-0.5450478196144104,MOVING,0,3.3635667035702252,3.172401765703495,13.116482452554614,2.9583823322313814,1.1924572504347886,20.300704746173203
1769097456.6168482,0.04853177070617676,0.46840548515319824,0.04952968657016754,0.9716193079948425,4.595057809352875,0.48588622525334363,9.531585411429406,3.601371243903988,1.6237472556567958,9.54139806627621,0.9242720007896423,1.2416912317276,-0.7890884876251221,MOVING,0,3.5383476270071923,3.2512050951998144,13.579543395723489,3.130104607944039,1.3502439906337795,20.959744032549033
1769097456.6556895,0.03868532180786133,0.3229379653930664,0.18233722448349,0.8868128061294556,3.1680214405059814,1.7887281721830368,8.699633628129959,3.519136936115569,1.655054738347341,9.381661254700257,1.3369114398956299,1.135400652885437,-0.34529486298561096,MOVING,0,3.6744865718667543,3.315231420362407,13.942475980453912,3.2722533034553694,1.4784947849980323,21.49911320265127
1769097456.7151089,0.05956101417541504,0.3282717764377594,0.2253115028142929,1.0296192169189453,3.22034612685442,2.2103058426082134,10.100564517974854,3.462437117215305,1.7604215571380981,9.5180834054862,1.113640308380127,0.07127347588539124,-0.2515270411968231,MOVING,0,3.880712838086698,3.4200839136818155,14.509382681090859,3.5033924958153664,1.682198451461944,22.363306750196244
1769097456.7575617,0.042114973068237305,0.43834221363067627,0.27605515718460083,1.0751904249191284,4.300137115716934,2.708101091980934,10.54761806845665,3.6214026433814066,1.940257269400959,9.713452296136879,1.4010523557662964,0.8516538143157959,-0.9112614989280701,MOVING,0,4.033228112881949,3.5017977963280886,14.918464462942271,3.6732517891674474,1.829676571344714,22.991597479272514
1769097456.8045824,0.04706525802612305,0.3270595371723175,0.28042542934417725,0.8595187664031982,3.208454059660435,2.750973461866379,8.431879098415376,3.5430397580905297,2.0941022333942274,9.470255497688065,2.6010971069335938,1.4054031372070312,-1.3339802026748657,MOVING,0,4.199982193293293,3.6003572582758685,15.36418448151427,3.8709250347999182,1.9991283146916927,23.714716786255938
1769097456.8371718,0.032529592514038086,0.05261076241731644,0.4523225724697113,0.6394605040550232,0.5161115793138743,4.437284435927868,6.273107544779778,2.9686369510391994,2.5387544864622225,8.863551059972881,0.6701520681381226,0.5263680815696716,-0.36606428027153015,MOVING,0,4.296550743632714,3.6829419072136704,15.652512185722559,4.010690079706178,2.1189329141862276,24.223886629478507
