timestamp,accel_raw_x,accel_raw_y,accel_raw_z,accel_filt_x,accel_filt_y,accel_filt_z,gyro_x,gyro_y,gyro_z,step_state,step_count,velocity_x,velocity_y,velocity_z,pos_x,pos_y,pos_z
1768827042.7623358,0.00315179699100554,-0.0709204152226448,0.9916024804115295,0.0031439599216194526,-0.07074408478297237,0.9891371729063436,0.06297308206558228,-0.06816615909337997,0.020757323130965233,INITIALIZING,0,0.0001756719568230287,-0.003952897656875178,0.05526904510963049,9.815849178553064e-06,-0.00022087217516015138,0.0030882140829415587
1768827042.806447,0.02424459159374237,-0.07357389479875565,0.9923335909843445,0.01665813478817515,-0.07261293439331405,0.9920483214076136,0.006812674924731255,0.004095813725143671,-0.001187654328532517,INITIALIZING,0,0.0009070238642118382,-0.007140866102618933,0.09882352712753023,4.9637452351639456e-05,-0.0005343818274091928,0.007426921626052181
1768827042.8553255,0.023274807259440422,-0.07357389479875565,0.9898965954780579,0.02325314786602326,-0.07359007783468088,0.9916172244827346,0.004483507946133614,0.002467893995344639,-0.00026231189258396626,INITIALIZING,0,0.002033173024126166,-0.010704831068095621,0.146847515567371,0.00014810395272708867,-0.0010528164317827105,0.01453874180818492
1768827042.8918412,0.022547468543052673,-0.07285021990537643,0.9891654849052429,0.024930735883356703,-0.07347972515043036,0.9905872878726423,0.008548351004719734,0.0023856363259255886,-0.07870738953351974,INITIALIZING,0,0.0029492249747390727,-0.01340476122136028,0.18324553532714336,0.0002564699192812326,-0.00154535936039016,0.021271893643851264
1768827042.9267886,0.023517252877354622,-0.07429756969213486,0.9896529316902161,0.02601827806514024,-0.07411070682707313,0.990234633661443,0.005361374467611313,0.002606420312076807,0.07520628720521927,INITIALIZING,0,0.0038506675339503387,-0.01597243864643405,0.21755371053199585,0.00038988211465347923,-0.0020987486328946097,0.028809370685832142
1768827042.9623015,0.02424459159374237,-0.07357389479875565,0.9906277060508728,0.026834280196894773,-0.07413333061514799,0.990464402692744,0.005182674154639244,0.0028147981502115726,-0.002879943698644638,INITIALIZING,0,0.004797380650628459,-0.01858786175305115,0.25249728400412824,0.0005591336524000866,-0.00275452819558433,0.03771747214927182
1768827042.9950335,0.02303236350417137,-0.07429756969213486,0.9886780977249146,0.02662729748498032,-0.0744109163509725,0.9897967294012905,0.004689443856477737,0.0030061365105211735,-0.0027839522808790207,INITIALIZING,0,0.0056694725359112685,-0.021024953101234173,0.2849149071698751,0.0007448190752332115,-0.0034431332257561153,0.047048947815516544
1768827043.0290072,0.02303236350417137,-0.07429756969213486,0.9896529316902161,0.02644763860992144,-0.07458985548606263,0.989717209235274,0.005413850769400597,0.003501489758491516,-0.0011947109596803784,INITIALIZING,0,0.006576515390010869,-0.023583071669202458,0.3188580480096584,0.0009703659143051751,-0.004251933472566973,0.05798443881284181
1768827043.0733333,0.023274807259440422,-0.07405634969472885,0.9923335909843445,0.026517628483892004,-0.07465693624346634,0.9906455254794723,0.006114112213253975,0.0015981276519596577,-0.0017453946638852358,INITIALIZING,0,0.00774300416283039,-0.026867169189235464,0.36243573385051886,0.0013109743299228457,-0.005433798254921972,0.07392769009800286
1768827043.1079533,0.023274807259440422,-0.07357389479875565,0.9920898675918579,0.026255441900088473,-0.07447615802384659,0.9912019456408935,0.004113573580980301,0.004512523300945759,-0.0016720779240131378,INITIALIZING,0,0.00864957128761162,-0.029438736512358815,0.3966606804865988,0.0016096330614208641,-0.006450280507201695,0.08762388054838299
1768827043.14641,0.023517252877354622,-0.07429756969213486,0.9928209781646729,0.0261766324550985,-0.07457814327216722,0.9918436152038443,0.005508244037628174,0.0025956504978239536,-0.0019368333742022514,INITIALIZING,0,0.009664569352297082,-0.03233050157109696,0.435119384127313,0.0019843764209964893,-0.0077038946449737265,0.10449562039322052
1768827043.1802266,0.022547468543052673,-0.07502125203609467,0.9920898675918579,0.02573833514323051,-0.0748362969742562,0.9920762208005846,0.0062457360327243805,0.0025444640778005123,-0.000976425944827497,INITIALIZING,0,0.010527250414782212,-0.0348388167292817,0.46837116064913586,0.0023372220701938086,-0.008871599831206264,0.12019418552020628
1768827043.2198336,0.02424459159374237,-0.07309144735336304,0.9916024804115295,0.025918569525462648,-0.07452784324676964,0.9921438333382927,0.0030850376933813095,0.004271543584764004,-0.001223991857841611,INITIALIZING,0,0.011558665505222717,-0.03780461089115416,0.5078529738945502,0.002797192749352192,-0.010376013341491293,0.14040391277715747
1768827043.2638195,0.022062579169869423,-0.07478003203868866,0.9916024804115295,0.025500616815693194,-0.07472487190271984,0.9922027384361771,0.006906287744641304,0.0035588531754910946,0.07510292530059814,INITIALIZING,0,0.012696315498627033,-0.04113828515643513,0.5521177635267368,0.0033636089795032707,-0.012211301098455736,0.16503534716850332
1768827043.313968,0.02303236350417137,-0.07429756969213486,0.9947705268859863,0.02541142653587088,-0.0747646811692614,0.9930657734074009,0.005250303074717522,0.004936682991683483,-0.0014935069484636188,STATIONARY,0,0.0,0.0,0.0,0.004053709745009336,-0.014428824273669445,0.19477144710810218
1768827043.3768919,0.02303236350417137,-0.07405634969472885,0.9945268034934998,0.02537077840725502,-0.07474866958761459,0.9937791868801051,0.004250112920999527,0.00121396966278553,-0.0032303815241903067,STATIONARY,0,0.0,0.0,0.0,0.004156032343577371,-0.014730292284974963,0.19877944667248776
1768827043.4463136,0.022547468543052673,-0.07236777245998383,0.9969637989997864,0.02516686650675176,-0.07427771003296416,0.9950102434556939,0.0044037047773599625,0.0020542172715067863,-0.002252094214782119,STATIONARY,0,0.0,0.0,0.0,0.004275696194989564,-0.015083469223162243,0.20351053855850182
1768827043.506457,0.022062579169869423,-0.07357389479875565,0.9976949095726013,0.024771877222416815,-0.07417295796091677,0.996156192883972,0.004531990736722946,0.0022910945117473602,-0.004935241304337978,STATIONARY,0,0.0,0.0,0.0,0.004387257245084533,-0.015417509837221226,0.20799676420619617
1768827043.5945919,0.022789916023612022,-0.07285021990537643,0.9986696839332581,0.024706971859307123,-0.07391200219412043,0.9974191736476362,0.0035204123705625534,0.0022399649024009705,-0.0032793423160910606,STATIONARY,0,0.0,0.0,0.0,0.004574464802670419,-0.015977549549325062,0.21555432360486315
1768827043.6586192,0.02375970035791397,-0.07453880459070206,0.9986696839332581,0.02475382069118274,-0.07409142606916334,0.9982513817653926,0.0003798920661211014,0.002470649778842926,-0.0034652906470000744,STATIONARY,0,0.0,0.0,0.0,0.004658764916561657,-0.016229870826671124,0.21895390810637336
1768827043.716835,0.022062579169869423,-0.07309144735336304,1.0600812435150146,0.024385870321857732,-0.07390443887809188,1.0125363890284542,0.003128785640001297,0.00277608260512352,0.07319829612970352,STATIONARY,0,0.0,0.0,0.0,0.004741575982832114,-0.016480840150498333,0.22239234261399593
1768827043.7768834,0.021820131689310074,-0.07429756969213486,0.9989133477210999,0.024046408507752314,-0.0740088755003978,1.011170816229745,0.003650333732366562,0.004775554873049259,0.0729413777589798,STATIONARY,0,0.0,0.0,0.0,0.004828113308051658,-0.01674718055331757,0.22603130673407962
1768827043.848327,0.023274807259440422,-0.07333267480134964,0.999400794506073,0.024082057049302615,-0.07390443194994707,1.0103176597190127,0.002647954970598221,0.0025899913161993027,-0.005394897889345884,STATIONARY,0,0.0,0.0,0.0,0.004950773398420285,-0.017123607047244718,0.2311772813984716
1768827043.916655,0.023517252877354622,-0.07574492692947388,0.9991570711135864,0.024143725606591834,-0.07428155107430685,1.0094431067658705,0.005252297967672348,0.0034449389204382896,-0.08031009137630463,STATIONARY,0,0.0,0.0,0.0,0.005075692640291596,-0.017507938579023476,0.23640012354239429
1768827043.985057,0.023274807259440422,-0.07429756969213486,0.999400794506073,0.024145678138064963,-0.07433047812692858,1.008737044268656,0.0015039239078760147,0.0015030857175588608,-0.0013572575990110636,STATIONARY,0,0.0,0.0,0.0,0.005182771046123969,-0.017837570617398168,0.2408735516228451
1768827044.047062,0.022789916023612022,-0.07333267480134964,0.999400794506073,0.024046183761843976,-0.07419555512837077,1.0079922953093758,0.006258584558963776,0.001463080756366253,-0.0024980749003589153,STATIONARY,0,0.0,0.0,0.0,0.005277878962222417,-0.018131030265794604,0.2448603816163132
1768827044.1429684,0.022789916023612022,-0.07405634969472885,1.0001319646835327,0.024015188347886685,-0.07421891092307636,1.0078753788864212,0.0022167470306158066,0.0002131173387169838,-0.0008376092882826924,STATIONARY,0,0.0,0.0,0.0,0.005493417899994947,-0.01879715309569952,0.25390617319726416
1768827044.2212725,0.02303236350417137,-0.07429756969213486,1.0001319646835327,0.023987318549610115,-0.07426849273648718,1.0074695389016,0.0009366162121295929,0.001081676222383976,-0.0021017352119088173,STATIONARY,0,0.0,0.0,0.0,0.005635625141719923,-0.019237448974427446,0.2598788901540521
1768827044.2845132,0.021820131689310074,-0.07357389479875565,1.0015939474105835,0.023743322520279834,-0.07418726248598531,1.0072062215151345,0.0029721632599830627,0.00253197830170393,-0.0005099975969642401,STATIONARY,0,0.0,0.0,0.0,0.0057319687864178966,-0.019538479769589334,0.2639658463186899
1768827044.3334608,0.02400214597582817,-0.07405634969472885,1.000862956047058,0.0238496681414145,-0.07418705162315392,1.0067514933366608,0.0025828927755355835,0.0027529317885637283,-0.0007731099613010883,STATIONARY,0,0.0,0.0,0.0,0.005787268013297077,-0.019710494179805898,0.26630015885129504
1768827044.4007688,0.023274807259440422,-0.07429756969213486,1.000375509262085,0.023862395503568508,-0.07422850751322373,1.0064683502079173,0.0016413293778896332,0.0018208399415016174,-0.003149735741317272,STATIONARY,0,0.0,0.0,0.0,0.005896747723832906,-0.020051051585907018,0.27091779514970266
1768827044.4650347,0.021335240453481674,-0.07357389479875565,1.000375509262085,0.023601803659835847,-0.07416369811642697,1.0061882955430992,0.0036836694926023483,0.0017601493746042252,-0.0024794829078018665,STATIONARY,0,0.0,0.0,0.0,0.0059933865335172285,-0.02035471869588961,0.27503768533271666
1768827044.5255597,0.023274807259440422,-0.07453880459070206,1.0015939474105835,0.02362589146249234,-0.07423290951633373,1.0060757264384133,0.0026498958468437195,0.0010706018656492233,-0.002391792368143797,STATIONARY,0,0.0,0.0,0.0,0.00608206255561427,-0.02063334010304576,0.2788138303933415
1768827044.5855143,0.022547468543052673,-0.07478003203868866,1.0001319646835327,0.023554565852649856,-0.07432353593863504,1.0057859023209448,0.0031571239233016968,-0.0007618311792612076,-0.000850951240863651,STATIONARY,0,0.0,0.0,0.0,0.006165516384851829,-0.02089666839851747,0.28237732994866843
1768827044.642628,0.022547468543052673,-0.07357389479875565,1.0013504028320312,0.023489443262383974,-0.07425635677445994,1.0056606158023507,-0.0014273598790168762,0.0013303272426128387,-0.002619336824864149,STATIONARY,0,0.0,0.0,0.0,0.00624209088299014,-0.021138740685632484,0.28565573702253255
1768827044.6897933,0.021577686071395874,-0.07502125203609467,1.002325177192688,0.023313604081771636,-0.07436034982141641,1.0056009011998477,0.00307423435151577,0.0018966784700751305,-0.0007504241657443345,STATIONARY,0,0.0,0.0,0.0,0.006293736884606048,-0.021303469173495893,0.28788341771858306
1768827044.751431,0.023274807259440422,-0.07357389479875565,1.0032999515533447,0.023356842477456063,-0.07429810136863103,1.0057528045357553,0.0017958041280508041,0.001237909309566021,-0.001621262519620359,STATIONARY,0,0.0,0.0,0.0,0.006382472796395802,-0.021585738053613423,0.2917044133104197
1768827044.8168218,0.02303236350417137,-0.07405634969472885,1.0011066198349,0.023371856668759818,-0.07429482094315491,1.0056698878376573,0.0032122116535902023,-4.5495107769966125e-06,-0.0015722712269052863,STATIONARY,0,0.0,0.0,0.0,0.006482838156886408,-0.02190478102021315,0.2960230441431292
1768827044.871848,0.022062579169869423,-0.07478003203868866,1.004762053489685,0.023276206936290983,-0.07436383935324745,1.0059107254950745,0.0013134423643350601,0.0014870045706629753,0.0014377037296071649,STATIONARY,0,0.0,0.0,0.0,0.006575223413647144,-0.022199937460915364,0.3000155898748114
1768827044.9351263,0.02424459159374237,-0.07429756969213486,1.0025688409805298,0.0234168125528177,-0.07438016863962359,1.0059544128860312,0.0051735565066337585,0.0008469372987747192,-0.0012069219956174493,STATIONARY,0,0.0,0.0,0.0,0.00664652818436063,-0.02242642690556186,0.3030787458272823
1768827044.9854028,0.022305024787783623,-0.07429756969213486,1.002325177192688,0.023344228882929068,-0.07439065079503145,1.0059007820604595,0.0011426489800214767,0.002019905485212803,-0.0014720404287800193,STATIONARY,0,0.0,0.0,0.0,0.006716719180611616,-0.022650103340420707,0.30610326972038465
1768827045.038399,0.022789916023612022,-0.07453880459070206,1.002325177192688,0.023326717733728377,-0.07442306379280272,1.0058543353329257,0.0001834779977798462,0.0010769180953502655,-0.0020488097798079252,STATIONARY,0,0.0,0.0,0.0,0.006776627720520527,-0.022841239407580635,0.3086865420555111
1768827045.0947232,0.023274807259440422,-0.07381512224674225,1.0032999515533447,0.02335741492735729,-0.07438762018930771,1.005927557989448,0.0037557203322649,0.002206890843808651,-0.00013330148067325354,STATIONARY,0,0.0,0.0,0.0,0.006844308945385188,-0.023056787457946547,0.31160135131251077
1768827045.1549811,0.02375970035791397,-0.07381512224674225,1.0059806108474731,0.02343139698665445,-0.07435616165740735,1.0062541443670288,0.0006628762930631638,0.0003264890983700752,0.0022432536352425814,STATIONARY,0,0.0,0.0,0.0,0.006929412286584875,-0.023326850647069824,0.3152560881525908
1768827045.2176998,0.021577686071395874,-0.07333267480134964,1.0042747259140015,0.023308282017720772,-0.0742849580664596,1.0064137424369932,0.0012161433696746826,0.0015117563307285309,0.0003061233146581799,STATIONARY,0,0.0,0.0,0.0,0.007020978506078244,-0.023618677937051892,0.31920976871862594
1768827045.2946968,0.022789916023612022,-0.07309144735336304,1.0057368278503418,0.023305719482314136,-0.07419991116069431,1.0067583715785242,-0.00032084062695503235,0.0020468253642320633,0.0009268008288927376,STATIONARY,0,0.0,0.0,0.0,0.007161219946451792,-0.024065173589102526,0.32526790583151116
1768827045.3699846,0.022789916023612022,-0.07357389479875565,1.0052495002746582,0.023300919729514244,-0.07416061030536673,1.0070157568378786,0.0005604680627584457,0.00048215314745903015,-0.0020919423550367355,STATIONARY,0,0.0,0.0,0.0,0.0072919704891362645,-0.02448131767937018,0.3309186637512335
1768827045.4205878,0.022305024787783623,-0.07453880459070206,1.0064680576324463,0.0232428461350727,-0.07420142670356296,1.0072457624422602,0.00020110979676246643,-0.0007199728861451149,-0.0008815831388346851,STATIONARY,0,0.0,0.0,0.0,0.007370898064709545,-0.024733289347545248,0.3343390480524515
1768827045.4828002,0.022547468543052673,-0.07381512224674225,1.0035436153411865,0.023214606594437522,-0.07418133138185169,1.007240211047939,0.00012879446148872375,0.0007752394303679466,-0.0005518997786566615,STATIONARY,0,0.0,0.0,0.0,0.007440444005671809,-0.024955520573898254,0.3373565218988161
1768827045.538015,0.023517252877354622,-0.07333267480134964,1.0028126239776611,0.023263306986500604,-0.07412276735200561,1.0071562583811213,-0.0002212226390838623,0.0019354559481143951,-0.0005234103300608695,STATIONARY,0,0.0,0.0,0.0,0.0075111125036225225,-0.025180688243987292,0.3404160275840033
1768827045.5949357,0.023517252877354622,-0.07236777245998383,1.0064680576324463,0.023309021192145687,-0.0739931011826747,1.0073744264207933,0.001582898199558258,-0.0005112616345286369,-0.000205665230168961,STATIONARY,0,0.0,0.0,0.0,0.007587309031817299,-0.025422569590012427,0.34370910596995174
1768827045.663749,0.022789916023612022,-0.07357389479875565,1.0057368278503418,0.023300539295422605,-0.07396599336057336,1.0075753795897104,0.002741429954767227,0.0009719459339976311,-0.00012310442980378866,STATIONARY,0,0.0,0.0,0.0,0.007699433603942396,-0.02577850149580275,0.3485576614856806
1768827045.7289362,0.022062579169869423,-0.07502125203609467,1.0054932832717896,0.02323476105640368,-0.07405073483094751,1.0077195334342908,0.0021201148629188538,0.0008941264823079109,0.00043112679850310087,STATIONARY,0,0.0,0.0,0.0,0.007796543445462973,-0.026087997044582395,0.352769432114672
1768827045.795156,0.022305024787783623,-0.07453880459070206,1.0064680576324463,0.023191194053321193,-0.0740940340990631,1.0079271861377184,0.0020292606204748154,0.0005539320409297943,0.0010123085230588913,STATIONARY,0,0.0,0.0,0.0,0.00789528332584542,-0.026403463167075848,0.3570608286492632
1768827045.8574595,0.02424459159374237,-0.07381512224674225,1.0059806108474731,0.023292047956215374,-0.07408064605988536,1.0080688065978143,0.0022821109741926193,0.0005203280597925186,0.0015791658079251647,STATIONARY,0,0.0,0.0,0.0,0.007988465513012872,-0.02669983026367527,0.3610937095874549
1768827045.9087243,0.022062579169869423,-0.07405634969472885,1.0074427127838135,0.023224205487849127,-0.0740846199597178,1.008274829910634,0.002526532858610153,0.0007982365787029266,-0.07532990723848343,STATIONARY,0,0.0,0.0,0.0,0.00806953066025868,-0.026958426004607135,0.3646131388137297
1768827045.967238,0.021820131689310074,-0.07285021990537643,1.0079301595687866,0.023146327035170496,-0.07400347462451852,1.0085022530743253,0.0003755539655685425,0.001967780292034149,0.0015844852896407247,STATIONARY,0,0.0,0.0,0.0,0.008139561217874392,-0.02718232781786591,0.3676644209904734
1768827046.0242794,0.022547468543052673,-0.07381512224674225,1.006711721420288,0.023123258183596933,-0.0739943208867577,1.008624871393534,0.00030751898884773254,0.001041671261191368,0.002407335676252842,STATIONARY,0,0.0,0.0,0.0,0.008215383924571723,-0.027424960134009174,0.3709717692535982
1768827046.0842562,0.023274807259440422,-0.07526247948408127,1.0069553852081299,0.023151835712343985,-0.07408437612362442,1.0087785949618011,0.0008928198367357254,-0.001080002635717392,0.000739800394512713,STATIONARY,0,0.0,0.0,0.0,0.008302707269877203,-0.02770438918829082,0.37477664773835956
1768827046.1422925,0.022547468543052673,-0.07405634969472885,1.0074427127838135,0.023129357519475712,-0.07408822527061255,1.008933743134706,-0.00032803975045681,-0.00018348358571529388,0.0019213863415643573,STATIONARY,0,0.0,0.0,0.0,0.008363822482977068,-0.027900154145090488,0.37744257569002876
1768827046.1932032,0.02448703721165657,-0.07357389479875565,1.0071990489959717,0.023232815277638617,-0.07405969773164801,1.0090413661306918,0.0011339206248521805,0.0004131365567445755,0.002553837141022086,STATIONARY,0,0.0,0.0,0.0,0.008429139773709711,-0.028108367344847025,0.38027941864191406
1768827046.247771,0.022789916023612022,-0.07550370693206787,1.0054932832717896,0.023222372297880163,-0.07415669791741523,1.0090475700055834,0.0014216601848602295,0.001590469852089882,0.0015930526424199343,STATIONARY,0,0.0,0.0,0.0,0.008497255986596982,-0.028325884890322808,0.38323917220241305
1768827046.2998827,0.02375970035791397,-0.07357389479875565,1.0064680576324463,0.023272503600998234,-0.07412653120733503,1.0091046834860125,0.001990014687180519,0.0015677399933338165,0.0015399546828120947,STATIONARY,0,0.0,0.0,0.0,0.008558524322378781,-0.028521034036380143,0.38589579074448327
1768827046.3541465,0.022547468543052673,-0.07574492692947388,1.006224274635315,0.02324576984068671,-0.074232423504972,1.0091624694056585,0.0010379292070865631,0.0012353742495179176,-0.07450224459171295,STATIONARY,0,0.0,0.0,0.0,0.008638179136041169,-0.02877540160099599,0.38935382414180647
1768827046.418059,0.023274807259440422,-0.07333267480134964,1.0071990489959717,0.023267475277472874,-0.07418653245688482,1.009289946771198,0.00103866308927536,0.0017897486686706543,0.003870918182656169,STATIONARY,0,0.0,0.0,0.0,0.008720587408726123,-0.029038153959098943,0.39292850683341035
1768827046.4850738,0.023274807259440422,-0.07453880459070206,1.006711721420288,0.023288847697769476,-0.07421619400859442,1.0094005945356455,-0.0005024988204240799,-0.001267850399017334,0.003141297958791256,STATIONARY,0,0.0,0.0,0.0,0.008841300894082941,-0.02942284003566912,0.39816055031915626
1768827046.5453846,0.022547468543052673,-0.07381512224674225,1.006224274635315,0.023263446290519452,-0.07420029605829423,1.0094495242233847,-0.0011570081114768982,-0.0012356862425804138,0.002726202132180333,STATIONARY,0,0.0,0.0,0.0,0.00891245364195534,-0.029649786417196636,0.40124801666399657
1768827046.6059983,0.022547468543052673,-0.07502125203609467,1.0064680576324463,0.02323916753557409,-0.07425652383218813,1.0095164351214347,-0.0002882033586502075,-0.0012348759919404984,0.0014442320680245757,STATIONARY,0,0.0,0.0,0.0,0.009004705849280798,-0.02994456153000343,0.4052554803276032
1768827046.6567116,0.02400214597582817,-0.07453880459070206,1.0079301595687866,0.023297423474264042,-0.07427963836626535,1.009606573534151,-0.00030887871980667114,0.0005677025765180588,0.004684245679527521,STATIONARY,0,0.0,0.0,0.0,0.009058354539601101,-0.030115610715773608,0.40758037563067007
1768827046.7224152,0.023274807259440422,-0.07502125203609467,1.0054932832717896,0.02331558830768518,-0.07433189510249189,1.0096190508538252,-0.00029353611171245575,0.0005285926163196564,0.0024411610793322325,STATIONARY,0,0.0,0.0,0.0,0.00915993260507504,-0.03043944942865027,0.4119789414613063
1768827046.7815146,0.022789916023612022,-0.07333267480134964,1.0059806108474731,0.023303246364677205,-0.07428496403101285,1.009629634933065,0.0005818158388137817,0.00081632100045681,0.0032405045349150896,STATIONARY,0,0.0,0.0,0.0,0.009242568780694009,-0.03070287304085653,0.4155592122320308
1768827046.8397222,0.023517252877354622,-0.07357389479875565,1.0084174871444702,0.023331738295118375,-0.07425354800405273,1.009770762556963,0.0017686672508716583,-0.0006821015849709511,0.002526849741116166,STATIONARY,0,0.0,0.0,0.0,0.009327091051409279,-0.0309718662211581,0.4192172387654015
1768827046.9023888,0.023274807259440422,-0.07405634969472885,1.004762053489685,0.023346650168271064,-0.07425068952238184,1.0097201604142023,-7.694028317928314e-05,-0.0003792550414800644,0.0009411309147253633,STATIONARY,0,0.0,0.0,0.0,0.009424196975956162,-0.03128069775811724,0.42341697658662875
1768827046.973726,0.022062579169869423,-0.07622738927602768,1.0052495002746582,0.023296338123247877,-0.07436841815408657,1.009716917453059,0.00025115907192230225,-0.0006820550188422203,0.07894215732812881,STATIONARY,0,0.0,0.0,0.0,0.009528631112391439,-0.03161408069095805,0.4279433924447962
1768827047.0285506,0.02375970035791397,-0.07381512224674225,1.0064680576324463,0.023335841349607984,-0.07434738912291634,1.009732565354936,-6.760656833648682e-05,0.0011020982638001442,0.00012071477249264717,STATIONARY,0,0.0,0.0,0.0,0.009611356370794888,-0.03187764123221611,0.43152288144354045
1768827047.0902424,0.023517252877354622,-0.07502125203609467,1.0054932832717896,0.023362291085557655,-0.07439301743705187,1.0097072461820813,0.0020014122128486633,-0.00041594449430704117,0.0019083929946646094,STATIONARY,0,0.0,0.0,0.0,0.00971011871238785,-0.032192132160068276,0.4357913434531578
1768827047.1557589,0.021820131689310074,-0.07381512224674225,1.0071990489959717,0.02329793756412788,-0.07437284053983365,1.0097819784806605,-0.00014720484614372253,0.000188424251973629,0.0006587282987311482,STATIONARY,0,0.0,0.0,0.0,0.009789199706269701,-0.03244457846058383,0.43921888128745884
1768827047.2186732,0.02400214597582817,-0.07526247948408127,1.0057368278503418,0.02335057635370106,-0.07442942818966361,1.0097655620688155,0.0023004747927188873,-0.0003831256181001663,0.0012272767489776015,STATIONARY,0,0.0,0.0,0.0,0.009879009828203038,-0.032730846170634716,0.4431026041934723
1768827047.2695205,0.022062579169869423,-0.07478003203868866,1.006711721420288,0.023296748594657146,-0.07445626745761465,1.0097656013892127,0.002243984490633011,0.000775323249399662,-0.00030503200832754374,STATIONARY,0,0.0,0.0,0.0,0.009946505098989694,-0.03294656064741659,0.446028094092627
1768827047.328867,0.023274807259440422,-0.07309144735336304,1.006224274635315,0.02330957240390708,-0.07439652218086523,1.0097642104920939,0.002779880538582802,0.0019557252526283264,0.0011813963064923882,STATIONARY,0,0.0,0.0,0.0,0.010020620735246287,-0.03318311348850553,0.44923876289568115
1768827047.3866158,0.023274807259440422,-0.07453880459070206,1.0052495002746582,0.02332136813675071,-0.07441251319327995,1.0097074301392472,-0.0005756914615631104,-0.0007515903562307358,0.0011268779635429382,STATIONARY,0,0.0,0.0,0.0,0.010111399008195526,-0.033472763709448336,0.4531690424639546
1768827047.4527867,0.022547468543052673,-0.07453880459070206,1.0064680576324463,0.02329772294570331,-0.07442909931791067,1.0097366175823301,0.002120954915881157,0.001360415481030941,0.07648967951536179,STATIONARY,0,0.0,0.0,0.0,0.01020008843874806,-0.033756099314838944,0.45701289303382053
1768827047.5063527,0.02303236350417137,-0.07333267480134964,1.0064680576324463,0.02329632742875094,-0.07438316316564522,1.0097349759245964,0.0005840938538312912,0.0013352595269680023,-0.0007485242676921189,STATIONARY,0,0.0,0.0,0.0,0.010274429671274617,-0.033993464455154304,0.4602350722749471
1768827047.5654185,0.02400214597582817,-0.07429756969213486,1.0050058364868164,0.023343938972005877,-0.07438671203533419,1.0096583723672128,0.00029460713267326355,-0.0010914532467722893,-0.0013039857149124146,STATIONARY,0,0.0,0.0,0.0,0.01034694286297839,-0.03422453162494515,0.46337137036065495
1768827047.6204603,0.022062579169869423,-0.07381512224674225,1.0045183897018433,0.02329401638593741,-0.07436638638143563,1.0095583470407703,-0.0003309529274702072,-0.00047971028834581375,0.00022583286045119166,STATIONARY,0,0.0,0.0,0.0,0.010418223515834624,-0.03445209584075071,0.46646066062650066
1768827047.681901,0.022789916023612022,-0.07333267480134964,1.006224274635315,0.023282387476817278,-0.07432427851485356,1.0095606053623822,0.00026553496718406677,-0.0001482805237174034,0.0005186049384064972,STATIONARY,0,0.0,0.0,0.0,0.010508528262430681,-0.034740375345758585,0.47037641517406964
1768827047.769807,0.021577686071395874,-0.07550370693206787,1.0040310621261597,0.023216649980683814,-0.07439206038595637,1.009542459860807,0.0011929124593734741,0.0010629063472151756,0.00020606702310033143,STATIONARY,0,0.0,0.0,0.0,0.010733272024011396,-0.03546051160558891,0.4801490727320436
1768827047.8372967,0.022547468543052673,-0.07405634969472885,1.0042747259140015,0.023195743315138115,-0.07438409624152457,1.0094360415762693,0.0011733397841453552,-0.0010493816807866096,-0.07637712359428406,STATIONARY,0,0.0,0.0,0.0,0.010815070511942415,-0.03572282294935608,0.4837087923212031
1768827047.8953848,0.023274807259440422,-0.07429756969213486,1.004762053489685,0.023208940998717405,-0.07438713729375736,1.0093435639243213,-4.173070192337036e-05,0.00017165206372737885,0.00026177585823461413,STATIONARY,0,0.0,0.0,0.0,0.01089728595942551,-0.03598633224863564,0.48728429508872734
1768827047.945263,0.02303236350417137,-0.07405634969472885,1.0050058364868164,0.023208706763038548,-0.07437760719248304,1.009254678190669,0.0011457167565822601,0.001372174359858036,0.0017545472364872694,STATIONARY,0,0.0,0.0,0.0,0.010951140589615896,-0.03615892172424469,0.4896262195232433
1768827047.9973848,0.021577686071395874,-0.07526247948408127,1.0064680576324463,0.023140832924885328,-0.07442508901249327,1.0092431463592146,-0.0003636851906776428,-0.0001346813514828682,0.00204178923740983,STATIONARY,0,0.0,0.0,0.0,0.01100652944062222,-0.03633706225098486,0.4920418982693065
1768827048.05915,0.022305024787783623,-0.07502125203609467,1.0042747259140015,0.023110450337437506,-0.07446084342352927,1.0091507515560805,-0.0003616567701101303,-0.0016115009784698486,0.002670226851478219,STATIONARY,0,0.0,0.0,0.0,0.01109534493653211,-0.036623221829788756,0.49592015348020124
1768827048.111627,0.022547468543052673,-0.07453880459070206,1.0028126239776611,0.02309115376932654,-0.07447200475044946,1.0089777154394082,-0.000619618222117424,-9.666848927736282e-05,0.0028764777816832066,STATIONARY,0,0.0,0.0,0.0,0.011172474931694047,-0.036871976197954286,0.4992903811911145
1768827048.1685452,0.02375970035791397,-0.07236777245998383,1.0015939474105835,0.023128104166762736,-0.07438425817705903,1.0087576166396865,0.0029793884605169296,0.00021694693714380264,0.003991893492639065,STATIONARY,0,0.0,0.0,0.0,0.011236324893468565,-0.03707732947753941,0.5020752672672832
1768827048.2195735,0.022547468543052673,-0.07429756969213486,1.0032999515533447,0.02310845728179901,-0.07438597856256153,1.0086119824056325,-0.0009935256093740463,0.0014058658853173256,0.002978129778057337,STATIONARY,0,0.0,0.0,0.0,0.011294675316413292,-0.037265159121784054,0.5046220809746113
1768827048.270185,0.02400214597582817,-0.07502125203609467,1.004762053489685,0.023153975672239417,-0.07442003526022486,1.0085425997659099,-0.0003749541938304901,0.0016391174867749214,0.07858457416296005,STATIONARY,0,0.0,0.0,0.0,0.011361787257167662,-0.0374808660512558,0.5075453478969696
1768827048.323206,0.022547468543052673,-0.07478003203868866,1.0064680576324463,0.023134251534672006,-0.07444188592293191,1.0085456006711588,0.0020147040486335754,9.308289736509323e-05,0.0015970325330272317,STATIONARY,0,0.0,0.0,0.0,0.011434346139508604,-0.037714347563887606,0.5107085771661292
1768827048.38439,0.02400214597582817,-0.07478003203868866,1.0042747259140015,0.023179517017128174,-0.07446399589859336,1.00846792242268,0.00016089528799057007,-0.001996973529458046,0.0025254525244235992,STATIONARY,0,0.0,0.0,0.0,0.011511540217039339,-0.03796233286351213,0.5140670488259671
1768827048.4356754,0.023274807259440422,-0.07453880459070206,1.0032999515533447,0.023190434241089772,-0.07447392270219134,1.0083357192140674,0.0001656264066696167,0.002839047461748123,0.00155047292355448,STATIONARY,0,0.0,0.0,0.0,0.011568281022822214,-0.03814455068401532,0.5165341773244274
1768827048.4876354,0.022062579169869423,-0.07405634969472885,1.0057368278503418,0.02314924333284451,-0.07446269859943525,1.0083108725174623,0.00012477673590183258,-0.0008238442242145538,0.004587586969137192,STATIONARY,0,0.0,0.0,0.0,0.011638160809418539,-0.038369328548790375,0.5195779290177842
1768827048.5472758,0.02424459159374237,-0.07478003203868866,1.0054932832717896,0.023202873681039852,-0.07448343362943405,1.00828810945282,0.0018870867788791656,0.00040481239557266235,0.002728776540607214,STATIONARY,0,0.0,0.0,0.0,0.011712845207814586,-0.03860907257823927,0.5228233628334199
1768827048.605042,0.022789916023612022,-0.07429756969213486,1.0064680576324463,0.023193145234671107,-0.07448294594528378,1.0083042605271928,0.0009333845227956772,0.0021931156516075134,0.004800483118742704,STATIONARY,0,0.0,0.0,0.0,0.011787540964884125,-0.038848952076248694,0.5260707037755157
1768827048.6666467,0.02424459159374237,-0.07502125203609467,1.0057368278503418,0.023245245643457285,-0.07451325294765083,1.0082934805447834,0.001202573999762535,-0.0002470482140779495,0.004065115004777908,STATIONARY,0,0.0,0.0,0.0,0.01187500029132574,-0.039129305272499366,0.5298643685109425
1768827048.7194679,0.02375970035791397,-0.07453880459070206,1.006224274635315,0.023274156318286936,-0.07452126205167728,1.0082892895947861,-8.424744009971619e-06,-0.0008545536547899246,-0.0727526918053627,STATIONARY,0,0.0,0.0,0.0,0.011940764934198789,-0.03933987635049057,0.5327134421416297
1768827048.7787094,0.02424459159374237,-0.07502125203609467,1.0054932832717896,0.023323173353091205,-0.074549800034709,1.0082638985042558,6.9979578256607056e-06,0.000375126488506794,0.004090938717126846,STATIONARY,0,0.0,0.0,0.0,0.012023738883212143,-0.03960509288914035,0.5363004170373683
1768827048.8304968,0.021577686071395874,-0.07357389479875565,1.0050058364868164,0.02325970757840495,-0.07451683631044419,1.0082056647476443,0.0009328983724117279,-0.00022788066416978836,0.003624001983553171,STATIONARY,0,0.0,0.0,0.0,0.012089157069548601,-0.03981467232028874,0.5391360066861035
1768827048.8825552,0.022789916023612022,-0.07429756969213486,1.0052495002746582,0.023247756507326696,-0.0745144758234249,1.0081636400886005,-0.00028930045664310455,-0.0008208844810724258,0.004078573547303677,STATIONARY,0,0.0,0.0,0.0,0.012160332349717416,-0.0400428056755092,0.5422225982682505
1768827048.9415438,0.022547468543052673,-0.07453880459070206,1.0040310621261597,0.023227138761702643,-0.07452271488830321,1.0080757679046342,0.0012218393385410309,-0.0004932237789034843,0.0035666257608681917,STATIONARY,0,0.0,0.0,0.0,0.012227529405614869,-0.040258402916708624,0.5451390024116849
1768827049.0032814,0.022789916023612022,-0.07405634969472885,1.004762053489685,0.023217067284411263,-0.07451144570459688,1.008025103649525,-0.0003052428364753723,0.0010095713660120964,0.0019412030233070254,STATIONARY,0,0.0,0.0,0.0,0.012315859892703765,-0.04054188541741206,0.5489740840485022
1768827049.06851,0.022547468543052673,-0.07405634969472885,1.0057368278503418,0.023197666752046972,-0.0745006720470312,1.008018528613496,-0.001135401427745819,0.0009809685871005058,0.0027471166104078293,STATIONARY,0,0.0,0.0,0.0,0.01241721573993123,-0.04086739568596854,0.5533783447476774
1768827049.1214497,0.022789916023612022,-0.07405634969472885,1.0059806108474731,0.023187105799182282,-0.07448876462924763,1.0080040844314033,-0.0005322899669408798,6.756279617547989e-05,0.002650505630299449,STATIONARY,0,0.0,0.0,0.0,0.012480234433303256,-0.041069843747338804,0.5561179320366082
1768827049.1807442,0.02303236350417137,-0.07333267480134964,1.0052495002746582,0.023187132944740167,-0.07444881620282617,1.0079685619177599,-0.001771261915564537,8.04513692855835e-05,0.0031526661477983,STATIONARY,0,0.0,0.0,0.0,0.012566971943405133,-0.041348338935288734,0.5598885009780153
1768827049.2310243,0.022062579169869423,-0.07453880459070206,1.0040310621261597,0.02314769947380802,-0.0744570155792188,1.0078737465385024,-0.00024100951850414276,0.0006935093551874161,0.0012356947408989072,STATIONARY,0,0.0,0.0,0.0,0.01262108558928553,-0.0415224011819031,0.5622446626809978
1768827049.2883904,0.02424459159374237,-0.07381512224674225,1.0057368278503418,0.02319617154349871,-0.07443706603231248,1.0078575519190047,0.0015385374426841736,0.0009757410734891891,0.0013888190733268857,STATIONARY,0,0.0,0.0,0.0,0.012700047506363051,-0.04177579185132953,0.5656755031665213
1768827049.349475,0.022305024787783623,-0.07478003203868866,1.0064680576324463,0.023167317978106276,-0.07445592998779715,1.0078741246882867,0.0009068455547094345,-0.0011790655553340912,0.0010371820535510778,STATIONARY,0,0.0,0.0,0.0,0.012811424510121358,-0.042133739128693094,0.5705208633536344
1768827049.4177282,0.022789916023612022,-0.07478003203868866,1.004762053489685,0.023158637901749112,-0.07447474241627998,1.0078270951244077,0.0014772173017263412,-0.0011599548161029816,0.0009975647553801537,STATIONARY,0,0.0,0.0,0.0,0.012898301448243223,-0.04241312246790288,0.5743016095508902
1768827049.4713576,0.023274807259440422,-0.07405634969472885,1.0052495002746582,0.023167890046329413,-0.07446334055441782,1.0077844262689852,-0.0012292899191379547,0.00036001577973365784,0.0021655121818184853,STATIONARY,0,0.0,0.0,0.0,0.012962128392627963,-0.042618267066170765,0.5770780298636009
1768827049.5270379,0.022305024787783623,-0.07453880459070206,1.006224274635315,0.02313910790497275,-0.07447117475007162,1.0077823129123902,0.0020342227071523666,6.285868585109711e-05,0.0009325126884505153,STATIONARY,0,0.0,0.0,0.0,0.013035223110041122,-0.042853515957188414,0.5802615390843899
1768827049.5835857,0.023274807259440422,-0.07429756969213486,1.0057368278503418,0.023148822931405792,-0.0744695179272336,1.0077621835369432,0.0005406271666288376,0.0006260322406888008,8.128606714308262e-05,STATIONARY,0,0.0,0.0,0.0,0.013116721815278596,-0.04311569642782022,0.5838095083867134
1768827049.6498907,0.023274807259440422,-0.07309144735336304,1.006711721420288,0.023159032918570684,-0.07442157610513425,1.0077883808341914,0.002324402332305908,-0.00029573123902082443,0.004333237651735544,STATIONARY,0,0.0,0.0,0.0,0.013207493492810765,-0.0434073913069373,0.5877595283313024
1768827049.702633,0.022789916023612022,-0.07260899990797043,1.006224274635315,0.023149040426299984,-0.07435521503821899,1.007782679608629,0.00018520839512348175,0.00029958225786685944,0.0030229385010898113,STATIONARY,0,0.0,0.0,0.0,0.013278689397042744,-0.043636074080457145,0.5908590088204612
1768827049.756943,0.02375970035791397,-0.07429756969213486,1.0040310621261597,0.02317673559418682,-0.07435564591628867,1.0076901304739165,-0.0004064217209815979,0.0011955425143241882,0.002621881663799286,STATIONARY,0,0.0,0.0,0.0,0.013339071041352455,-0.04382979058319286,0.5934843132679065
1768827049.808002,0.023517252877354622,-0.07309144735336304,1.0079301595687866,0.023194055077504747,-0.07430984349289647,1.0077476134901615,-9.762309491634369e-05,-0.00032056774944067,-0.07345637679100037,STATIONARY,0,0.0,0.0,0.0,0.013404741691104739,-0.04404018827729431,0.5963376065080522
1768827049.858558,0.023274807259440422,-0.07453880459070206,1.0042747259140015,0.02320156191752213,-0.07432028829427875,1.0076663505964623,0.0017175227403640747,0.001782117411494255,0.0038952259346842766,STATIONARY,0,0.0,0.0,0.0,0.013467565724690643,-0.04424142905170906,0.5990661152557951
1768827049.9091241,0.02400214597582817,-0.07502125203609467,1.0079301595687866,0.023236235992035763,-0.07434867057335831,1.0077206499064266,-0.00042667798697948456,-0.00034909509122371674,0.003515565302222967,STATIONARY,0,0.0,0.0,0.0,0.013525964077671794,-0.04442828547326161,0.601598764099601
1768827049.9617467,0.022789916023612022,-0.07453880459070206,1.006224274635315,0.02322465388471952,-0.07435817402440033,1.00771479989049,0.0019647032022476196,0.0005684858188033104,0.0012861989671364427,STATIONARY,0,0.0,0.0,0.0,0.01359298726412322,-0.04464287303123181,0.6045068916978926
1768827050.0182314,0.022789916023612022,-0.07333267480134964,1.0074427127838135,0.023213644215570393,-0.07432247156632814,1.0077512138820033,-0.0013990290462970734,-0.00033621862530708313,0.004301839508116245,STATIONARY,0,0.0,0.0,0.0,0.013656061350713528,-0.04484481555967101,0.607245065279585
1768827050.068451,0.022789916023612022,-0.07502125203609467,1.0045183897018433,0.023202320143137653,-0.07435022908959486,1.0076758911842059,-0.0013826806098222733,-0.0003704354166984558,0.004784288816154003,STATIONARY,0,0.0,0.0,0.0,0.013721643595197047,-0.04505496932323769,0.6100932996909757
1768827050.125326,0.023517252877354622,-0.07453880459070206,1.0069553852081299,0.023218721080462763,-0.0743597092109255,1.0076977351885286,-0.0001858677715063095,-0.0009889695793390274,0.003443814581260085,STATIONARY,0,0.0,0.0,0.0,0.013790244086105612,-0.045274667580433255,0.6130705764790393
1768827050.173304,0.022789916023612022,-0.07429756969213486,1.004762053489685,0.023207109488536954,-0.07435961297038977,1.0076320510053338,-0.00078531913459301,-0.0015818392857909203,0.003023682627826929,STATIONARY,0,0.0,0.0,0.0,0.013855060896443101,-0.045482351908076535,0.6158848647286056
1768827050.2295034,0.025941714644432068,-0.07453880459070206,1.0057368278503418,0.023312054598560318,-0.07436877897362991,1.007608328159055,-0.0004941746592521667,0.002634698525071144,0.0020573316141963005,STATIONARY,0,0.0,0.0,0.0,0.013923086627687077,-0.0456993636926884,0.6188251157923095
1768827050.2806916,0.02303236350417137,-0.07478003203868866,1.0074427127838135,0.023307577763442604,-0.07438614333209638,1.0076405020841046,6.737932562828064e-05,-0.001932373270392418,-0.07312139868736267,STATIONARY,0,0.0,0.0,0.0,0.013977649286415076,-0.04587350043885373,0.6211839857441223
1768827050.3413122,0.023517252877354622,-0.07381512224674225,1.0030561685562134,0.02332183232782032,-0.07436840087784678,1.0075205717044833,0.00037552788853645325,-0.0018730126321315765,0.005215829238295555,STATIONARY,0,0.0,0.0,0.0,0.01406135835945489,-0.046140431004747205,0.6248002802076289
1768827050.3914752,0.022305024787783623,-0.0771922841668129,1.0057368278503418,0.023290473128375528,-0.07447320932639959,1.0074927618334828,0.0009938925504684448,0.00023094657808542252,-0.07182959467172623,STATIONARY,0,0.0,0.0,0.0,0.01412042705275102,-0.04632930802481598,0.6273554571943217
1768827050.445413,0.02303236350417137,-0.07405634969472885,1.0042747259140015,0.023286518095486,-0.07446222026953837,1.0074149072155711,-0.0005104485899209976,-0.0013034828007221222,0.005629288498312235,STATIONARY,0,0.0,0.0,0.0,0.01418770395126478,-0.04654443624689028,0.6302659717760242
1768827050.4941623,0.02303236350417137,-0.07550370693206787,1.0032999515533447,0.023282105223552858,-0.07450317298730971,1.0073001402926487,0.0018736310303211212,-0.0016007116064429283,0.008505215868353844,STATIONARY,0,0.0,0.0,0.0,0.014243469515065244,-0.04672288709601529,0.6326786685532417
1768827050.5575664,0.022305024787783623,-0.07453880459070206,1.0037872791290283,0.023252830969964035,-0.07450975813968087,1.0072143881205946,0.0012560058385133743,-0.0003764443099498749,0.007916382513940334,STATIONARY,0,0.0,0.0,0.0,0.014343020986089952,-0.04704188292229046,0.6369908176461491
1768827050.6214378,0.023517252877354622,-0.07453880459070206,1.006224274635315,0.02326773265294969,-0.07451605832884756,1.0072160908098382,0.0015649106353521347,-0.0009796367958188057,0.008263214491307735,STATIONARY,0,0.0,0.0,0.0,0.014431995104464555,-0.04732682691289967,0.6408423387646521
1768827050.6771927,0.023274807259440422,-0.07405634969472885,1.0054932832717896,0.023272808258710746,-0.0745041129821386,1.0071867164100916,0.0015228446573019028,-0.00010160356760025024,0.008013028651475906,STATIONARY,0,0.0,0.0,0.0,0.014505547727579322,-0.04756229368088734,0.644025505322585
1768827050.7290158,0.021820131689310074,-0.07478003203868866,1.006711721420288,0.023225026162952234,-0.07451806654234071,1.0071987818374653,-0.0012507941573858261,0.0007925862446427345,0.005679180845618248,STATIONARY,0,0.0,0.0,0.0,0.014566134344913518,-0.047756687329807604,0.6466529627362604
1768827050.7814124,0.023517252877354622,-0.07526247948408127,1.006224274635315,0.023239201391047595,-0.0745490027257541,1.007193415525981,0.0014582592993974686,0.0008216854184865952,0.003907638601958752,STATIONARY,0,0.0,0.0,0.0,0.014631423180483629,-0.04796612729717036,0.6494825989267238
1768827050.8472235,0.022547468543052673,-0.07453880459070206,1.004762053489685,0.02321915175202461,-0.0745545121949038,1.0071422021132999,-0.001272851601243019,0.00018865149468183517,0.004653055686503649,STATIONARY,0,0.0,0.0,0.0,0.01473141085857007,-0.04828717832628841,0.6538196139636057
1768827050.901682,0.023517252877354622,-0.07502125203609467,1.0045183897018433,0.023233460322830576,-0.07457610790319827,1.0070764579382956,0.000866621732711792,0.00048266351222991943,0.005393815692514181,STATIONARY,0,0.0,0.0,0.0,0.01479999649774534,-0.048507328487163014,0.6567925237930637
1768827050.9672375,0.023517252877354622,-0.07212653756141663,1.0042747259140015,0.023248242621140464,-0.07449393413111007,1.0070079148367093,0.001468617469072342,-0.0016355188563466072,0.0043282778933644295,STATIONARY,0,0.0,0.0,0.0,0.014901016456403977,-0.0488310249604354,0.6611682479965448
1768827051.02539,0.022062579169869423,-0.07550370693206787,1.004762053489685,0.023209700602900122,-0.07453424758661857,1.0069539279828235,-0.001868484541773796,0.0004908069968223572,0.005395303480327129,STATIONARY,0,0.0,0.0,0.0,0.014978142535401168,-0.049078703048391584,0.6645143664805735
1768827051.0808291,0.023517252877354622,-0.07502125203609467,1.0045183897018433,0.023224064010485164,-0.07455610654110867,1.0068906697304683,-0.0006403382867574692,-0.00011100899428129196,0.004024369642138481,STATIONARY,0,0.0,0.0,0.0,0.01504940774977864,-0.04930748544037099,0.6676041047537982
1768827051.134198,0.023517252877354622,-0.07526247948408127,1.0045183897018433,0.023237932610172617,-0.07458590401064973,1.0068276373049045,0.0014679599553346634,0.000778447836637497,0.004750755149871111,STATIONARY,0,0.0,0.0,0.0,0.015116053816646678,-0.04952139677359909,0.6704916723858274
1768827051.1838846,0.022547468543052673,-0.07453880459070206,1.006711721420288,0.023216564723390787,-0.07458878126856804,1.0068429849624296,0.0023401156067848206,0.000151902437210083,0.004897754173725843,STATIONARY,0,0.0,0.0,0.0,0.015175341636662528,-0.04971187311201263,0.673062833381775
1768827051.2337816,0.022305024787783623,-0.07405634969472885,1.0074427127838135,0.023187101162141958,-0.07457435974130236,1.0068833348015083,-7.97118991613388e-05,0.00017207488417625427,0.0032330104149878025,STATIONARY,0,0.0,0.0,0.0,0.015231604926014478,-0.04989282711531909,0.6755060266043106
1768827051.286417,0.022789916023612022,-0.07453880459070206,1.0050058364868164,0.02317559488770933,-0.07457756781033649,1.0068375143854598,0.0014244429767131805,-0.0007396051660180092,0.0043163541704416275,STATIONARY,0,0.0,0.0,0.0,0.015296804127702152,-0.05010263393618395,0.6783385321984581
1768827051.3368208,0.023274807259440422,-0.07453880459070206,1.0064680576324463,0.023181328421555285,-0.07458045610336349,1.0068432531501708,0.0010615233331918716,0.0020028818398714066,0.002686130814254284,STATIONARY,0,0.0,0.0,0.0,0.015355629972808973,-0.05029189221676864,0.6808935369928161
1768827051.3896122,0.02375970035791397,-0.07502125203609467,1.0074427127838135,0.023204062349669412,-0.07460039016036368,1.006883727608057,-0.0007706079632043839,0.00044472143054008484,0.0034773091319948435,STATIONARY,0,0.0,0.0,0.0,0.015426566216059558,-0.050519950189689904,0.6839716423672261
1768827051.436136,0.022305024787783623,-0.07478003203868866,1.0050058364868164,0.023175040891813346,-0.07461077800180632,1.0068354457953776,-0.00106036476790905,-0.0010514101013541222,0.0036566590424627066,STATIONARY,0,0.0,0.0,0.0,0.015470673741502882,-0.05066195195807614,0.685887885805586
1768827051.4919994,0.02448703721165657,-0.07429756969213486,1.004762053489685,0.023223214028109652,-0.0746048886730751,1.0067827882017242,-0.0007398631423711777,-0.0007312074303627014,0.0023588170297443867,STATIONARY,0,0.0,0.0,0.0,0.015542717527682093,-0.05089339359406077,0.6890111590887035
1768827051.5443583,0.02400214597582817,-0.07502125203609467,1.0050058364868164,0.023253278362274307,-0.07462396235214684,1.0067383311186375,0.00047590211033821106,0.0016804179176688194,0.0025804946199059486,STATIONARY,0,0.0,0.0,0.0,0.01560730282029976,-0.05110065944147015,0.6918073450153385
1768827051.5981858,0.02375970035791397,-0.07285021990537643,1.0020813941955566,0.023274342467061258,-0.07456718326380872,1.0065931008570386,0.001651143655180931,0.0001430986449122429,0.004066639579832554,STATIONARY,0,0.0,0.0,0.0,0.01567436689551507,-0.05131552176009742,0.6947078022687551
1768827051.6437938,0.022789916023612022,-0.07381512224674225,1.0057368278503418,0.023260763230313487,-0.07454450240779727,1.0065754904290762,0.0004050061106681824,0.00044872239232063293,0.0036408891901373863,STATIONARY,0,0.0,0.0,0.0,0.015722421190513213,-0.051469522876644,0.6967872815651154
1768827051.696139,0.023274807259440422,-0.07381512224674225,1.002325177192688,0.02326461151746957,-0.0745227409164427,1.0064422224203562,0.0004217885434627533,0.0022204210981726646,0.0044103385880589485,STATIONARY,0,0.0,0.0,0.0,0.01578658449156256,-0.051675055002415954,0.6995630276916922
1768827051.7545302,0.023517252877354622,-0.07478003203868866,1.0015939474105835,0.02327709857495401,-0.07453495994114266,1.0062869746784995,0.00037240050733089447,0.0013010315597057343,0.004649436566978693,STATIONARY,0,0.0,0.0,0.0,0.01586497582050879,-0.051926069730214845,0.7029519454725022
1768827051.8134105,0.023517252877354622,-0.07381512224674225,1.0030561685562134,0.023289352623357018,-0.0745135681118782,1.0061844951153822,-0.0005459580570459366,-0.0019850600510835648,0.00571585213765502,STATIONARY,0,0.0,0.0,0.0,0.015945784881424778,-0.052184615837614225,0.706443189968365
1768827051.8742182,0.023274807259440422,-0.07429756969213486,1.002325177192688,0.02329307059576592,-0.07450937354446306,1.0060582305586487,0.001299271360039711,-0.001338486559689045,0.0041045937687158585,STATIONARY,0,0.0,0.0,0.0,0.016055045409040847,-0.05253411606483161,0.7111622952761602
1768827051.9368167,0.022789916023612022,-0.07478003203868866,1.0037872791290283,0.02327987118802382,-0.07452184631867262,1.0059841760245483,6.990693509578705e-05,0.0008233636617660522,0.0029356619343161583,STATIONARY,0,0.0,0.0,0.0,0.016141920843087368,-0.05281221544487515,0.7149164102036099
1768827052.0026345,0.022062579169869423,-0.07429756969213486,1.0040310621261597,0.02324140366671125,-0.07451739323474393,1.0059194437051866,-0.0011235270649194717,0.00023569725453853607,0.005810524336993694,STATIONARY,0,0.0,0.0,0.0,0.01623656346772069,-0.05311566190523981,0.7190126712421938
1768827052.0624406,0.022547468543052673,-0.07526247948408127,1.0032999515533447,0.023220070735770128,-0.07454671274369656,1.0058296822503943,0.0003548525273799896,0.00021774694323539734,0.005341789685189724,STATIONARY,0,0.0,0.0,0.0,0.016316462412688824,-0.053372172911034826,0.7224736740678932
1768827052.1236138,0.022789916023612022,-0.07453880459070206,1.0035436153411865,0.023207573854402228,-0.0745498480611499,1.0057497810229334,-0.00025757402181625366,-5.9526413679122925e-05,0.004583332221955061,STATIONARY,0,0.0,0.0,0.0,0.016405994505173143,-0.053659777463461435,0.7263537385233834
1768827052.1893427,0.023517252877354622,-0.07478003203868866,1.0035436153411865,0.023221084646601574,-0.07456230518960415,1.0056701898852676,-0.0026614777743816376,0.003551095724105835,0.004135312512516975,STATIONARY,0,0.0,0.0,0.0,0.016533689195229254,-0.054069801826920665,0.7318840031578936
1768827052.2644377,0.02375970035791397,-0.07453880459070206,1.0040310621261597,0.023243522948723727,-0.07456557171704611,1.0056087740944573,9.964406490325928e-05,0.00020010024309158325,0.004938752856105566,STATIONARY,0,0.0,0.0,0.0,0.01664795261461732,-0.05443636059737089,0.7368275006366604
1768827052.3262498,0.022547468543052673,-0.07405634969472885,1.0030561685562134,0.02322149764913327,-0.07455102698965461,1.0055136341295479,-0.0005345586687326431,-0.0009976718574762344,0.0035830363631248474,STATIONARY,0,0.0,0.0,0.0,0.016735286596381366,-0.05471674036141459,0.7406091477428645
1768827052.386533,0.022305024787783623,-0.07478003203868866,1.0032999515533447,0.023190981496605523,-0.07456254342560495,1.005428938445925,0.0033821016550064087,-0.0027561201713979244,0.08093578368425369,STATIONARY,0,0.0,0.0,0.0,0.016810420360355446,-0.05495830687466744,0.7438665200349756
1768827052.4371068,0.022789916023612022,-0.07550370693206787,1.0030561685562134,0.02317815535625667,-0.07459916814485867,1.0053383509969505,-0.002340419217944145,-0.0006126305088400841,0.0038395929150283337,STATIONARY,0,0.0,0.0,0.0,0.016872389296367564,-0.055157754630809866,0.7465543848363753
1768827052.4866717,0.022547468543052673,-0.07453880459070206,1.0028126239776611,0.023156976366437817,-0.07460036719241135,1.0052415982409522,0.0016111992299556732,-0.0002868650481104851,0.0019249608740210533,STATIONARY,0,0.0,0.0,0.0,0.016934497027911843,-0.05535783513809949,0.7492504740983212
1768827052.5461085,0.023274807259440422,-0.07405634969472885,1.0032999515533447,0.02316230064205924,-0.07458480688625685,1.0051631785418487,-0.00016354769468307495,-0.00025206804275512695,0.004914263263344765,STATIONARY,0,0.0,0.0,0.0,0.017009297291820484,-0.0555986990887442,0.7524965450386859
1768827052.6030498,0.02400214597582817,-0.07429756969213486,1.0025688409805298,0.023193381250227713,-0.07457800322908321,1.0050605095068563,0.003400072455406189,0.0012527834624052048,0.0016818614676594734,STATIONARY,0,0.0,0.0,0.0,0.017079569406985563,-0.05582465812314089,0.7555417124125136
1768827052.6579695,0.023517252877354622,-0.07526247948408127,1.0030561685562134,0.023206524568658356,-0.07460552329273175,1.0049776584996466,-0.000581817701458931,0.000645756721496582,0.002516607055440545,STATIONARY,0,0.0,0.0,0.0,0.017145458610800916,-0.05603648210891017,0.7583950986477014
1768827052.7056825,0.02303236350417137,-0.07453880459070206,1.0035436153411865,0.023201918177225597,-0.07460622605774804,1.0049160088875084,-0.0008627250790596008,-0.0011775624006986618,0.0009110415121540427,STATIONARY,0,0.0,0.0,0.0,0.017196663151057053,-0.0562011313192191,0.7606128576208205
1768827052.7581995,0.023517252877354622,-0.07429756969213486,1.0032999515533447,0.02321466744170014,-0.07459871491284867,1.0048455493356876,-0.0014497078955173492,-0.0005478076636791229,0.0011506924638524652,STATIONARY,0,0.0,0.0,0.0,0.01727024438421794,-0.0564375794806795,0.7637978170798362
1768827052.8108501,0.022789916023612022,-0.07381512224674225,1.002325177192688,0.02320152329329964,-0.07457435200827618,1.0047432428542284,-0.0014064349234104156,0.0006615538150072098,0.001417685067281127,STATIONARY,0,0.0,0.0,0.0,0.017336851218642937,-0.05665166721335873,0.7666822297095774
1768827052.8624654,0.022789916023612022,-0.07429756969213486,1.0015939474105835,0.023188612242382643,-0.07456744212335652,1.0046169195972157,0.00014698505401611328,0.0006546443328261375,0.002561535220593214,STATIONARY,0,0.0,0.0,0.0,0.017393664710955305,-0.056834361923828944,0.7691436014830073
1768827052.9169168,0.023517252877354622,-0.07285021990537643,1.0013504028320312,0.023201505840876758,-0.07450983500521147,1.0044855727842252,-0.002255260944366455,-0.0002781664952635765,0.00036901456769555807,STATIONARY,0,0.0,0.0,0.0,0.01745720621615189,-0.05703842053539713,0.7718945662557556
1768827052.9899902,0.023274807259440422,-0.07478003203868866,1.0032999515533447,0.023206201908475225,-0.07452164794075367,1.0044173716624016,-0.0007038302719593048,-0.002075738273561001,0.002113087335601449,STATIONARY,0,0.0,0.0,0.0,0.017580054171538257,-0.05743291990748958,0.7772117060854409
1768827053.051091,0.023274807259440422,-0.07478003203868866,1.0015939474105835,0.023210440863184433,-0.07453287426336135,1.0042945109713957,-0.0009907633066177368,0.001561710610985756,0.002327814232558012,STATIONARY,0,0.0,0.0,0.0,0.017665990337234486,-0.05770887629583514,0.7809300852412434
1768827053.1194735,0.022789916023612022,-0.07478003203868866,1.0006192922592163,0.023197479485894727,-0.07454423249194786,1.0041351950908783,-0.002169029787182808,-0.0002669021487236023,0.0004231949569657445,STATIONARY,0,0.0,0.0,0.0,0.017799181447096205,-0.05813688094459147,0.7866954478603456
1768827053.191678,0.023517252877354622,-0.07405634969472885,1.0015939474105835,0.023210860153694765,-0.07452943826061288,1.004012114815085,-0.002096734941005707,-0.0002630529925227165,0.001595145440660417,STATIONARY,0,0.0,0.0,0.0,0.017896388263346157,-0.05844900937767145,0.7909002390878701
1768827053.2693844,0.023274807259440422,-0.07381512224674225,1.0015939474105835,0.023215456510766463,-0.07450599415224045,1.0038872768232414,0.0024069808423519135,0.0015576044097542763,0.001221490208990872,STATIONARY,0,0.0,0.0,0.0,0.018037994235486906,-0.05890346926422799,0.7970235920225134
1768827053.3262463,0.022305024787783623,-0.07502125203609467,1.000375509262085,0.023183948900552264,-0.0745262395150606,1.0037310773523167,-5.040504038333893e-05,-0.0020827623084187508,0.0011908708838745952,STATIONARY,0,0.0,0.0,0.0,0.018113408814653138,-0.05914589409935761,0.8002886077072567
1768827053.3825266,0.023517252877354622,-0.07405634969472885,1.0030561685562134,0.023197191870488902,-0.07451090556365182,1.0036763062075422,0.0017984956502914429,3.323610872030258e-05,-0.0004411654663272202,STATIONARY,0,0.0,0.0,0.0,0.018186866171616963,-0.05938184395993751,0.8034668979551818
1768827053.435296,0.02303236350417137,-0.07405634969472885,1.0030561685562134,0.023192441218784905,-0.07449579872431004,1.0036251974224053,0.0011278558522462845,-0.0002631237730383873,0.000749500934034586,STATIONARY,0,0.0,0.0,0.0,0.018251424196202366,-0.05958920900444425,0.8062605693741804
1768827053.4974093,0.021820131689310074,-0.07333267480134964,1.0025688409805298,0.023143856984445692,-0.0744548159311854,1.0035527401650601,0.0007546357810497284,-0.0005445592105388641,0.000734613451641053,STATIONARY,0,0.0,0.0,0.0,0.018340200541075182,-0.059874806449199944,0.8101100463312334
1768827053.547613,0.022305024787783623,-0.07478003203868866,1.0015939474105835,0.023113807818668092,-0.0744669958471167,1.0034535956204162,-0.0001764632761478424,8.42846930027008e-05,0.00010952945740427822,STATIONARY,0,0.0,0.0,0.0,0.018406221742620806,-0.06008751049951869,0.8129762643338175
1768827053.6103106,0.022062579169869423,-0.07405634969472885,1.0028126239776611,0.02307545721288858,-0.07445283509717525,1.003393806498614,0.0007101278752088547,0.0004221508279442787,0.07637180387973785,STATIONARY,0,0.0,0.0,0.0,0.018489876541198425,-0.06035742224454397,0.816613839355724
1768827053.6601527,0.022789916023612022,-0.07429756969213486,1.0020813941955566,0.023064411917498123,-0.0744475903862526,1.0033172303343012,-0.00141059048473835,0.002199782058596611,-0.0014933471102267504,STATIONARY,0,0.0,0.0,0.0,0.01854598524054465,-0.060538530589338314,0.8190546050265367
1768827053.709357,0.022789916023612022,-0.07405634969472885,1.000375509262085,0.023053671783117447,-0.07443381275864507,1.0031818490820985,-0.0011087004095315933,0.0009656399488449097,-0.003015727736055851,STATIONARY,0,0.0,0.0,0.0,0.01860238163790784,-0.06072061867149223,0.8215086974904453
1768827053.7617333,0.023274807259440422,-0.07502125203609467,1.0020813941955566,0.02306049380703256,-0.07445490290815011,1.0031093811275034,0.0006896741688251495,0.0012337537482380867,-0.0023146120365709066,STATIONARY,0,0.0,0.0,0.0,0.018664501394076723,-0.06092118334512561,0.8242108473527938
1768827053.8080082,0.022547468543052673,-0.07453880459070206,1.0018377304077148,0.02304139366495773,-0.07445824190857742,1.0030340969017828,0.0012319572269916534,0.00027659162878990173,-0.002522622002288699,STATIONARY,0,0.0,0.0,0.0,0.018714730593171202,-0.061083498954651386,0.8263974164503244
1768827053.86312,0.02303236350417137,-0.07405634969472885,1.000862956047058,0.023039748537783157,-0.07444444111257732,1.0029208362368627,0.000595342367887497,0.0014736158773303032,-0.002453681780025363,STATIONARY,0,0.0,0.0,0.0,0.0187834637670215,-0.06130558482962471,0.8293893732454304
1768827053.9115026,0.022547468543052673,-0.07502125203609467,1.0015939474105835,0.02302118688498472,-0.07446501870860348,1.002840911121697,-0.001185920089483261,-0.0006977831944823265,-0.0008653545519337058,STATIONARY,0,0.0,0.0,0.0,0.018837308198704602,-0.06147975163660423,0.8317349255923918
1768827053.9748144,0.022547468543052673,-0.07381512224674225,1.0020813941955566,0.02300251549174075,-0.07444262825515892,1.002769907339954,0.0006503574550151825,0.00081687793135643,-0.07671129703521729,STATIONARY,0,0.0,0.0,0.0,0.01892864930779469,-0.06177535722942945,0.8357168429410177
1768827054.0577307,0.023517252877354622,-0.07453880459070206,1.0020813941955566,0.02301820474592368,-0.0744463742100678,1.002686265852661,-0.0008627232164144516,-0.00010620057582855225,0.0005746715469285846,STATIONARY,0,0.0,0.0,0.0,0.019090475736850056,-0.062298742568447606,0.8427660954633946
1768827054.1160254,0.023274807259440422,-0.07405634969472885,1.0025688409805298,0.023025775360551552,-0.07443256879392757,1.0026406645885189,0.0003268532454967499,0.0007780482992529869,0.0005656112334690988,STATIONARY,0,0.0,0.0,0.0,0.019190400950535057,-0.06262175841592257,0.8471172663182066
1768827054.1752658,0.021820131689310074,-0.07478003203868866,1.0028126239776611,0.022980721892946112,-0.0744451129230179,1.002604871537067,0.0021127071231603622,-0.00014373566955327988,-5.383975803852081e-05,STATIONARY,0,0.0,0.0,0.0,0.01925034242132808,-0.06281593637006805,0.8497323978577701
1768827054.2242537,0.021335240453481674,-0.07453880459070206,1.0064680576324463,0.022919723701054193,-0.07444866890233028,1.0027086735176656,0.0005963090807199478,-0.0019508348777890205,-0.00036748568527400494,STATIONARY,0,0.0,0.0,0.0,0.019305822952077882,-0.06299615022073186,0.8521596003022582
1768827054.2760286,0.02375970035791397,-0.07526247948408127,1.0052495002746582,0.022946800106321257,-0.07447803475052293,1.0027649530181577,-0.0005995295941829681,-0.00038936175405979156,0.001416276558302343,STATIONARY,0,0.0,0.0,0.0,0.019367223136340785,-0.06319543574359486,0.8548427610306568
1768827054.3239346,0.022789916023612022,-0.07405634969472885,1.0020813941955566,0.02293891353724844,-0.07446370411603534,1.0027100622448812,0.0003112573176622391,0.0005093729123473167,-0.0004125370178371668,STATIONARY,0,0.0,0.0,0.0,0.01941992298225218,-0.06336650861182529,0.8571463865135424
1768827054.3727317,0.023274807259440422,-0.07453880459070206,1.0050058364868164,0.02294836769345921,-0.0744668153036239,1.0027595724548346,-0.0003148559480905533,-0.0006835665553808212,0.00019171778694726527,STATIONARY,0,0.0,0.0,0.0,0.01947525448341277,-0.06354605779512393,0.8595641703484636
1768827054.4219966,0.022789916023612022,-0.07405634969472885,1.0035436153411865,0.022940507989108034,-0.07445285503858123,1.0027566068991676,0.0008615069091320038,0.002031817100942135,0.0004805798816960305,STATIONARY,0,0.0,0.0,0.0,0.0195369817793773,-0.06374639221755926,0.8622623431127217
1768827054.4798574,0.02303236350417137,-0.07405634969472885,1.0032999515533447,0.022940976805536313,-0.07443920347835371,1.0027395361558207,-0.0024503134191036224,-0.0013492917641997337,0.0013553655007854104,STATIONARY,0,0.0,0.0,0.0,0.019610121706590558,-0.0639837176797822,0.8654592556640038
1768827054.5402937,0.022305024787783623,-0.07429756969213486,1.0054932832717896,0.022915669502828275,-0.07443428091035052,1.0028013394644115,-2.1765008568763733e-05,-0.0016046175733208656,0.0022211819887161255,STATIONARY,0,0.0,0.0,0.0,0.01968865242245594,-0.06423879979135189,0.8688957996868255
1768827054.5954807,0.022789916023612022,-0.07381512224674225,1.0035436153411865,0.022908261815496194,-0.07441239968224835,1.0027936628124048,0.001195298507809639,-0.0021567801013588905,8.038186933845282e-05,STATIONARY,0,0.0,0.0,0.0,0.019777580907613123,-0.06452766422087299,0.872788583961659
1768827054.6705992,0.022789916023612022,-0.07405634969472885,1.0013504028320312,0.022899900000745536,-0.07439917033897421,1.00270070027137,-1.5458092093467712e-05,-0.0003537554293870926,7.770268712192774e-05,STATIONARY,0,0.0,0.0,0.0,0.019888212025928532,-0.064887092140474,0.8776327055431093
1768827054.7421412,0.023517252877354622,-0.07309144735336304,1.0028126239776611,0.02291811964284367,-0.07435127298668485,1.0026637695103566,0.0005503259599208832,0.0029613273218274117,0.0015463270246982574,STATIONARY,0,0.0,0.0,0.0,0.020003450259148133,-0.06526094957163063,0.882674358310105
1768827054.810943,0.022789916023612022,-0.07598615437746048,1.0030561685562134,0.022910071834047124,-0.0744088806805534,1.002635581421858,0.0011628642678260803,-0.0012910962104797363,0.0008437172509729862,STATIONARY,0,0.0,0.0,0.0,0.020147563935438095,-0.06572901171570299,0.8889813441923183
1768827054.8835602,0.021820131689310074,-0.07285021990537643,1.0035436153411865,0.02286648775640342,-0.07435131586351815,1.0026292956949856,0.0008439924567937851,0.0008388916030526161,-0.0009559182799421251,STATIONARY,0,0.0,0.0,0.0,0.020243204374774303,-0.06603999049784763,0.8931749006034801
1768827054.9327934,0.02303236350417137,-0.07502125203609467,1.0035436153411865,0.022869426208643486,-0.07437450531116913,1.0026350572587577,0.0008259546011686325,-0.00034989044070243835,-0.0009089154191315174,STATIONARY,0,0.0,0.0,0.0,0.020291899044039788,-0.0661983522295706,0.8953097588225615
1768827055.0085201,0.023274807259440422,-0.07381512224674225,1.0018377304077148,0.022879717047860192,-0.07435263386386727,1.0025634527859468,-0.0009175725281238556,0.0005525751039385796,0.0003124827053397894,STATIONARY,0,0.0,0.0,0.0,0.02042782822365852,-0.06664008376420742,0.901266022502215
1768827055.0615263,0.02375970035791397,-0.07381512224674225,1.0042747259140015,0.02290899015782557,-0.07433171014474228,1.0025965171422606,0.0005589909851551056,0.0014451490715146065,-0.001474493183195591,STATIONARY,0,0.0,0.0,0.0,0.02049121110235333,-0.06684573917436842,0.9040399314780394
1768827055.1125138,0.02303236350417137,-0.07357389479875565,1.0028126239776611,0.022911121504001913,-0.07430257177972222,1.0025768411885227,0.00142611563205719,0.0011320114135742188,-0.0014303938951343298,STATIONARY,0,0.0,0.0,0.0,0.020549141769195436,-0.06703361289021996,0.9065749424752252
1768827055.1708405,0.02303236350417137,-0.07453880459070206,1.0025688409805298,0.02291291432892924,-0.07430898880322852,1.0025451840580664,-0.0009884834289550781,-0.0006671389564871788,-0.0013928115367889404,STATIONARY,0,0.0,0.0,0.0,0.02062497521096449,-0.0672795487102746,0.9098930036674727
1768827055.2169807,0.022789916023612022,-0.07478003203868866,1.0035436153411865,0.02290644388813353,-0.0743244239417536,1.0025564326498395,0.0011213235557079315,-0.0012707365676760674,-0.0019419393502175808,STATIONARY,0,0.0,0.0,0.0,0.020673436713139138,-0.06743679150405232,0.9120140396073305
1768827055.2650638,0.023274807259440422,-0.07405634969472885,1.002325177192688,0.022917536379524043,-0.07431326009833088,1.00252137406304,-0.001313401386141777,-0.0006530173122882843,-0.0018873068038374186,STATIONARY,0,0.0,0.0,0.0,0.020732793300403975,-0.06762926339260585,0.9146105773170995
1768827055.3364582,0.023517252877354622,-0.07381512224674225,1.0037872791290283,0.022936383286554764,-0.07429290837815022,1.0025282009565402,0.0005372203886508942,0.001440560445189476,-0.0012288494035601616,STATIONARY,0,0.0,0.0,0.0,0.020858191900008708,-0.06803544018843241,0.9200916346788282
1768827055.4234588,0.023274807259440422,-0.07453880459070206,1.0050058364868164,0.02294591170626005,-0.0742984795234112,1.002574477758507,-0.0018881261348724365,-0.0003638267517089844,-0.0023739468306303024,STATIONARY,0,0.0,0.0,0.0,0.021100714985545332,-0.06882072589576743,0.9306881827235907
1768827055.513873,0.02375970035791397,-0.07429756969213486,1.0052495002746582,0.022973825190654867,-0.07429544043482458,1.0026340045295679,0.002028224989771843,-0.0006570462137460709,0.0007081722724251449,STATIONARY,0,0.0,0.0,0.0,0.021213298783935033,-0.06918481253862178,0.9356016154535712
1768827055.5638409,0.02400214597582817,-0.07357389479875565,1.0057368278503418,0.02301127465800245,-0.07426664529306226,1.002726416572814,0.0008048508316278458,0.0008512092754244804,-0.00047120556700974703,STATIONARY,0,0.0,0.0,0.0,0.021278707898312606,-0.06939591407769811,0.9384518463880065
1768827055.615141,0.02448703721165657,-0.07309144735336304,1.0052495002746582,0.023065763413404265,-0.07422064500360298,1.0027985054750066,0.0010934658348560333,0.0011635133996605873,-0.0010611454490572214,STATIONARY,0,0.0,0.0,0.0,0.02134026265594796,-0.06959398399339323,0.9411279780145773
1768827055.6733696,0.022789916023612022,-0.07309144735336304,1.0059806108474731,0.02305595303610986,-0.07417535420766151,1.0028954617578152,0.00016621500253677368,-0.0018681669607758522,-0.0010459646582603455,STATIONARY,0,0.0,0.0,0.0,0.021407669409597718,-0.06981084424723433,0.944060059252828
1768827055.7325666,0.022789916023612022,-0.07429756969213486,1.0052495002746582,0.02304633002013745,-0.07417575443442359,1.0029619271405936,0.0013770144432783127,0.0020323805510997772,-0.00011525076115503907,STATIONARY,0,0.0,0.0,0.0,0.02149059384573922,-0.07007774065141106,0.947668879060878
1768827055.7918687,0.023517252877354622,-0.07381512224674225,1.0050058364868164,0.02306394301546639,-0.07415828226707452,1.0030185461100372,-0.002832697704434395,-0.0019140159711241722,0.000209078163607046,STATIONARY,0,0.0,0.0,0.0,0.021570535294120223,-0.07033477911573184,0.951145420573111
1768827055.8452122,0.022789916023612022,-0.07453880459070206,1.0064680576324463,0.023054158767842146,-0.07416850249982147,1.0031300621636228,-0.00123678520321846,0.0008322857320308685,0.0011938541429117322,STATIONARY,0,0.0,0.0,0.0,0.021636747939585647,-0.07054779459854235,0.9540264580393055
1768827055.9014082,0.022062579169869423,-0.07453880459070206,1.0076864957809448,0.02301769324186225,-0.07417836784739369,1.0032836770270825,0.002402983605861664,-0.0003714170306921005,-2.6947178412228823e-05,STATIONARY,0,0.0,0.0,0.0,0.021709194100107607,-0.07078126447268925,0.9571842049755962
1768827055.9599128,0.02375970035791397,-0.07502125203609467,1.0045183897018433,0.023044698104129725,-0.07420578650973517,1.0033168690426704,-0.0021361764520406723,-0.001259935088455677,-0.0003364423755556345,STATIONARY,0,0.0,0.0,0.0,0.02178729904079535,-0.07103276868106903,0.9605847270476795
1768827056.0214622,0.023274807259440422,-0.07429756969213486,1.0069553852081299,0.023053282706069957,-0.07420584682042881,1.003439372253809,-0.0006240438669919968,0.000253274105489254,0.002387559274211526,STATIONARY,0,0.0,0.0,0.0,0.02188446439527626,-0.07134553270269639,0.9648140397901753
1768827056.0783997,0.022547468543052673,-0.07381512224674225,1.006224274635315,0.023034780839464006,-0.07418836237931065,1.0035333698222355,-4.806928336620331e-05,0.0008454304188489914,0.0017376632895320654,STATIONARY,0,0.0,0.0,0.0,0.02195995358622441,-0.07158866153872974,0.9681028022362049
1768827056.134683,0.023274807259440422,-0.07381512224674225,1.0064680576324463,0.023043523989401245,-0.07417134616523618,1.0036346474273434,0.002360975369811058,0.0017080549150705338,-0.0003870205255225301,STATIONARY,0,0.0,0.0,0.0,0.022023225267725252,-0.07179231727268841,0.9708585288249176
1768827056.179385,0.02303236350417137,-0.07429756969213486,1.0050058364868164,0.02304314235816296,-0.07417320594708997,1.0036807083957768,-0.002166690304875374,0.0016864528879523277,0.0016976920887827873,STATIONARY,0,0.0,0.0,0.0,0.022076439314089768,-0.07196360712365246,0.973176351234795
1768827056.2340217,0.022305024787783623,-0.07453880459070206,1.0052495002746582,0.023016214841377558,-0.07418324125469826,1.0037337760762424,0.0017942748963832855,0.0019456828013062477,0.0007704907329753041,STATIONARY,0,0.0,0.0,0.0,0.022137661304086925,-0.07216093086629877,0.9758462332993417
1768827056.2794871,0.023274807259440422,-0.07405634969472885,1.0042747259140015,0.02302522829132816,-0.07417608756954912,1.003750702050543,0.0017798934131860733,0.000979933887720108,-0.00016618252266198397,STATIONARY,0,0.0,0.0,0.0,0.022184932548106696,-0.07231321582484802,0.977906953122455
1768827056.3326561,0.02303236350417137,-0.07453880459070206,1.0052495002746582,0.023025224009043898,-0.07418612819252905,1.0038020226440936,0.000829765573143959,0.0021282806992530823,-0.0007662891293875873,STATIONARY,0,0.0,0.0,0.0,0.02225100091252436,-0.07252608481366804,0.9807872533449062
1768827056.3769665,0.022305024787783623,-0.07429756969213486,1.0059806108474731,0.022999203708256248,-0.07418771397323445,1.0038784441550126,0.002629140391945839,0.00031106453388929367,0.000765795586630702,STATIONARY,0,0.0,0.0,0.0,0.022296822937231647,-0.07267389129017827,0.9827873114101631
1768827056.423493,0.02424459159374237,-0.07429756969213486,1.0064680576324463,0.023042940606742807,-0.0741892033931671,1.0039700386359356,0.00045455433428287506,0.0030033905059099197,-0.00046092632692307234,STATIONARY,0,0.0,0.0,0.0,0.022346470841411167,-0.07283373800957402,0.9849504471456568
1768827056.4748404,0.022789916023612022,-0.07357389479875565,1.0052495002746582,0.023034008040335126,-0.07416465756717641,1.0040163692311086,0.0013150665909051895,-0.0006397422403097153,-0.07365802675485611,STATIONARY,0,0.0,0.0,0.0,0.022424049240128564,-0.07308352412432272,0.9883319681590476
1768827056.5382192,0.02375970035791397,-0.07357389479875565,1.0054932832717896,0.023059742364405313,-0.07413996760805719,1.0040710095919094,-0.0011261142790317535,-0.0003231661394238472,0.002685835352167487,STATIONARY,0,0.0,0.0,0.0,0.022514098184354046,-0.07337304278860417,0.9922528937666437
1768827056.5993247,0.02303236350417137,-0.07357389479875565,1.006224274635315,0.023059133944084542,-0.07411583650495789,1.0041506753721323,-0.0005233101546764374,-0.0011931052431464195,0.004362780135124922,STATIONARY,0,0.0,0.0,0.0,0.022587395822046552,-0.07360863341159073,0.9954447687334393
1768827056.6434596,0.022305024787783623,-0.07260899990797043,1.0045183897018433,0.023032662214575287,-0.07405935197335888,1.0041668064137654,-0.0007910262793302536,2.7670525014400482e-05,0.003021214623004198,STATIONARY,0,0.0,0.0,0.0,0.022633153221054126,-0.07375576201040042,0.9974396775634815
1768827056.6939807,0.020607901737093925,-0.07478003203868866,1.0052495002746582,0.022946925872572344,-0.07408033374102287,1.0042089080970067,-0.0016655586659908295,0.0009276466444134712,0.00411666464060545,STATIONARY,0,0.0,0.0,0.0,0.022698887943600782,-0.0739679756294129,1.0003163763561305
1768827056.747184,0.023517252877354622,-0.07405634969472885,1.0069553852081299,0.022965489993172935,-0.07407540423602645,1.0043099336503112,-0.00011864118278026581,0.00032136403024196625,0.004279751796275377,STATIONARY,0,0.0,0.0,0.0,0.022751080882950536,-0.07413632444677969,1.0025988396291088
1768827056.8003495,0.022789916023612022,-0.07429756969213486,1.0042747259140015,0.02295810494192169,-0.07407894018335785,1.00431496009895,-0.0006950981914997101,-0.00027480442076921463,0.004142150282859802,STATIONARY,0,0.0,0.0,0.0,0.022832226083784813,-0.0743981557474892,1.0061485811841833
1768827056.854121,0.02303236350417137,-0.07381512224674225,1.0052495002746582,0.022959400290002194,-0.07406560740662899,1.0043538481708945,-0.001888267695903778,0.0003349529579281807,0.002818032167851925,STATIONARY,0,0.0,0.0,0.0,0.02288446730946476,-0.07456668271521392,1.0084338619572908
1768827056.9047136,0.023517252877354622,-0.07309144735336304,1.0059806108474731,0.022977728947186277,-0.07402747285369075,1.0044171167403992,-0.001214638352394104,4.8724934458732605e-05,0.004195319022983313,STATIONARY,0,0.0,0.0,0.0,0.022944023854972302,-0.07475855635799006,1.011037235591787
1768827056.9500637,0.022062579169869423,-0.07429756969213486,1.0052495002746582,0.022945098179589795,-0.07403273286731807,1.0044525998547473,-0.0029910895973443985,-0.0014493484050035477,0.0031697279773652554,STATIONARY,0,0.0,0.0,0.0,0.022992507770459476,-0.07491499050072196,1.0131596843423243
1768827057.0025802,0.02303236350417137,-0.07381512224674225,1.0057368278503418,0.022946684942457923,-0.07402066741709014,1.0045049932402712,0.00157272070646286,5.503278225660324e-05,0.0033290477003902197,STATIONARY,0,0.0,0.0,0.0,0.023053565131648423,-0.07511194734382437,1.0158325072072467
1768827057.0528777,0.023274807259440422,-0.07381512224674225,1.0050058364868164,0.022956706310730105,-0.0740090591737315,1.0045306173494941,0.0015657246112823486,-0.0008376045152544975,-0.07307307422161102,STATIONARY,0,0.0,0.0,0.0,0.023111672174494505,-0.07529927594027883,1.0183751325661488
1768827057.1013906,0.02303236350417137,-0.07405634969472885,1.0059806108474731,0.022958196614555008,-0.07400624446312447,1.0045888392498565,0.0006227325648069382,-0.002041165716946125,0.003150349482893944,STATIONARY,0,0.0,0.0,0.0,0.023166075737600905,-0.07547464700528507,1.0207556859358096
1768827057.1457617,0.02303236350417137,-0.07478003203868866,1.0054932832717896,0.022959750887038666,-0.07402869025723725,1.0046280307974758,-0.0018004179000854492,-0.0013977689668536186,0.002434652531519532,STATIONARY,0,0.0,0.0,0.0,0.023211262311496388,-0.07562034122031172,1.0227328719677682
1768827057.1961198,0.02303236350417137,-0.07574492692947388,1.0052495002746582,0.022961150812066705,-0.07408310754745369,1.0046591020886328,-0.0008142758160829544,-0.0007859105244278908,0.002933913841843605,STATIONARY,0,0.0,0.0,0.0,0.02327035134355457,-0.07581098929159831,1.0253182969918335
1768827057.249194,0.02375970035791397,-0.07333267480134964,1.0054932832717896,0.022987303491980443,-0.07405407115118925,1.0046982437620833,-0.0007619000971317291,0.00012099370360374451,0.004241725895553827,STATIONARY,0,0.0,0.0,0.0,0.023334970260137217,-0.0760191604608698,1.0281425739683412
1768827057.2978137,0.02375970035791397,-0.07381512224674225,1.004762053489685,0.023012969491000648,-0.07404240362246481,1.004710700211216,-0.002263236790895462,0.0007478427141904831,0.0033054351806640625,STATIONARY,0,0.0,0.0,0.0,0.02339493253117934,-0.07621208431089084,1.0307604340992793
1768827057.3601394,0.022547468543052673,-0.07357389479875565,1.006224274635315,0.022996804423475743,-0.07402169898742882,1.004775591693081,0.00018935836851596832,-0.0013640383258461952,0.005297356750816107,STATIONARY,0,0.0,0.0,0.0,0.02348011841915529,-0.07648627910950799,1.0344823730008235
1768827057.4140377,0.023517252877354622,-0.07381512224674225,1.0050058364868164,0.02301409623888784,-0.07401026639509399,1.0047957949140316,0.0001880936324596405,-0.00015775207430124283,0.003949875943362713,STATIONARY,0,0.0,0.0,0.0,0.023550348381321768,-0.07671212930822556,1.0375486142266077
1768827057.4690707,0.02521437592804432,-0.07333267480134964,1.0042747259140015,0.023089078219865913,-0.07398270735467131,1.004790350323652,0.0020038075745105743,0.00045315176248550415,0.00233691418543458,STATIONARY,0,0.0,0.0,0.0,0.02361441844293001,-0.07691742449467782,1.040336814735765
1768827057.515345,0.022305024787783623,-0.07550370693206787,1.0050058364868164,0.023063332986587436,-0.07403027085296604,1.0048079881926109,0.0010563097894191742,0.0013692276552319527,0.0031397324055433273,STATIONARY,0,0.0,0.0,0.0,0.02366339464249116,-0.07707463166507983,1.042470577300741
1768827057.5631907,0.02303236350417137,-0.07405634969472885,1.0052495002746582,0.023062828656656587,-0.0740276561329414,1.0048337017801765,-0.00020028464496135712,0.0013791071251034737,0.0024243895895779133,STATIONARY,0,0.0,0.0,0.0,0.023715998755973685,-0.07724348169132926,1.04476250717918
1768827057.6071615,0.021820131689310074,-0.07429756969213486,1.0054932832717896,0.023021499227066807,-0.07403352377652765,1.004866000585549,0.0021785032004117966,0.001333140768110752,0.0041453782469034195,STATIONARY,0,0.0,0.0,0.0,0.023760701607115624,-0.07738723903572516,1.0467137430565097
1768827057.656693,0.021820131689310074,-0.07453880459070206,1.0057368278503418,0.022981087568753198,-0.0740469987805033,1.0049070172234933,0.0012201350182294846,0.0013341298326849937,0.0031164048705250025,STATIONARY,0,0.0,0.0,0.0,0.0238180939620185,-0.0775721620347255,1.0492233710279595
1768827057.7142272,0.023517252877354622,-0.07405634969472885,1.0030561685562134,0.02299830663142118,-0.07404358647546755,1.0048588645898526,-0.0002766065299510956,0.0021855132654309273,0.07986896485090256,STATIONARY,0,0.0,0.0,0.0,0.023893001021280835,-0.07781332706522108,1.0524962651469236
1768827057.7909884,0.022789916023612022,-0.07453880459070206,1.0052495002746582,0.02299052912043327,-0.07405551822813043,1.004889575616237,-0.0002774801105260849,-0.0002443026751279831,0.0019326703622937202,STATIONARY,0,0.0,0.0,0.0,0.024029411149544253,-0.07825272203030412,1.0584585949037693
1768827057.8366756,0.023274807259440422,-0.07478003203868866,1.0035436153411865,0.022999681613740885,-0.07407729271081973,1.0048551034370083,-0.0008839722722768784,0.0006596911698579788,0.0014922474510967731,STATIONARY,0,0.0,0.0,0.0,0.024089053632220067,-0.07844481832630401,1.0610643724142996
1768827057.891941,0.021820131689310074,-0.07357389479875565,1.0037872791290283,0.022959185107247374,-0.07405742119485285,1.0048302406405218,-0.0020758938044309616,-0.0008688410744071007,-0.0018204065272584558,STATIONARY,0,0.0,0.0,0.0,0.024150450151496836,-0.0786428596708351,1.063751448586698
1768827057.9559417,0.022547468543052673,-0.07309144735336304,1.0059806108474731,0.022943824840875447,-0.07402057860681516,1.0048830492506593,-0.002067266032099724,7.111020386219025e-05,0.0015183264622464776,STATIONARY,0,0.0,0.0,0.0,0.024246660443013907,-0.07895325000441787,1.0679652225227998
1768827058.0153189,0.022062579169869423,-0.07478003203868866,1.0030561685562134,0.02291217054469048,-0.07404279655689436,1.004832772720268,-0.0005019139498472214,0.0009595444425940514,0.0008873087354004383,STATIONARY,0,0.0,0.0,0.0,0.024335443527128204,-0.0792401607456742,1.0718588803675342
1768827058.0763116,0.022789916023612022,-0.07526247948408127,1.0045183897018433,0.022905904838301953,-0.0740811469604363,1.0048339142793572,0.001606818288564682,-0.002976329531520605,0.0026645767502486706,STATIONARY,0,0.0,0.0,0.0,0.024405159425814536,-0.07946563246453968,1.0749171703525406
1768827058.135394,0.02400214597582817,-0.07381512224674225,1.0054932832717896,0.022941639927736204,-0.07406922702854278,1.0048681872114005,0.0006725508719682693,8.044298738241196e-05,-0.0006921992171555758,STATIONARY,0,0.0,0.0,0.0,0.02448696863791972,-0.07972976114599103,1.0785005007040007
1768827058.1948266,0.022305024787783623,-0.07453880459070206,1.0054932832717896,0.02291823482144734,-0.0740825319145835,1.004901809243673,0.0006602276116609573,-0.0008483715355396271,-0.0006792216445319355,STATIONARY,0,0.0,0.0,0.0,0.024569293253236556,-0.0799958730865083,1.0821102095459645
1768827058.244167,0.02448703721165657,-0.07453880459070206,1.0057368278503418,0.022970797951958857,-0.07409610641038698,1.0049406647044394,0.0018192287534475327,-0.0008352361619472504,0.0761847123503685,STATIONARY,0,0.0,0.0,0.0,0.024624148185914237,-0.08017281674067829,1.0845100370409744
1768827058.2942817,0.02303236350417137,-0.07357389479875565,1.0042747259140015,0.022972235322887537,-0.07407622752765294,1.004928559957933,0.0005725380033254623,5.8171339333057404e-05,-0.0025347303599119186,STATIONARY,0,0.0,0.0,0.0,0.02468096851276195,-0.08035603946152396,1.0869956623374608
1768827058.3483098,0.022547468543052673,-0.07309144735336304,1.0069553852081299,0.02295695782513488,-0.07403992764770709,1.0050097678756447,-0.000993466004729271,0.0012624766677618027,-0.00157458265312016,STATIONARY,0,0.0,0.0,0.0,0.024753473066314584,-0.08058987845448012,1.0901697668983048
1768827058.3977876,0.02375970035791397,-0.07502125203609467,1.0079301595687866,0.022983566392743803,-0.07407084664949697,1.0051210390579488,0.0008263029158115387,-0.002108129672706127,-0.0009164545335806906,STATIONARY,0,0.0,0.0,0.0,0.024813906528257237,-0.0807846418613231,1.0928126528205195
1768827058.453409,0.023517252877354622,-0.07453880459070206,1.0057368278503418,0.023001343282659948,-0.07408438621115201,1.005156266878123,0.00019311532378196716,-0.0002663498744368553,0.0760209932923317,STATIONARY,0,0.0,0.0,0.0,0.024875890287779825,-0.08098428362671306,1.095521336550994
1768827058.502442,0.02375970035791397,-0.07333267480134964,1.0069553852081299,0.023027056176560805,-0.07405680026322035,1.0052306981670636,-0.003136802464723587,-0.0011583706364035606,-0.0020974362269043922,STATIONARY,0,0.0,0.0,0.0,0.024930947732535954,-0.0811613526431798,1.0979248323868114
1768827058.5526984,0.022062579169869423,-0.07429756969213486,1.006224274635315,0.022994473393050066,-0.07406256031801038,1.005279147527367,-0.0012657847255468369,9.65772196650505e-05,-0.0023833434097468853,STATIONARY,0,0.0,0.0,0.0,0.02499481477986481,-0.08136706107425681,1.1007169907370542
1768827058.605272,0.022789916023612022,-0.07453880459070206,1.0035436153411865,0.022987236555765928,-0.07407639034390442,1.0052356813833165,0.0007977485656738281,0.0012794146314263344,-0.002884314861148596,STATIONARY,0,0.0,0.0,0.0,0.025054170732074374,-0.08155833568329664,1.1033126364084593
1768827058.678498,0.02375970035791397,-0.07429756969213486,1.006224274635315,0.023013245450294734,-0.07408110422237751,1.0052900469713852,0.00022607669234275818,-0.0011504823341965675,-0.003984327893704176,STATIONARY,0,0.0,0.0,0.0,0.025205653799728014,-0.08204596933527383,1.1099298873531733
1768827058.7485147,0.023274807259440422,-0.07429756969213486,1.0045183897018433,0.023022366279157328,-0.07408598843903869,1.005283047097254,-0.002489199861884117,-0.0011525116860866547,-0.0029708168003708124,STATIONARY,0,0.0,0.0,0.0,0.025291298232848224,-0.08232157317221547,1.1136695940214643
1768827058.7916327,0.022789916023612022,-0.07381512224674225,1.0045183897018433,0.023014507863073238,-0.07407513811718278,1.0052688053970908,-5.935505032539368e-05,-0.001719743013381958,-0.004098229110240936,STATIONARY,0,0.0,0.0,0.0,0.025334838258749662,-0.0824617123162486,1.1155714130864345
1768827058.8359835,0.02303236350417137,-0.07429756969213486,1.0028126239776611,0.023015161027202545,-0.0740810552827834,1.0051968588623386,-9.270571172237396e-05,9.899679571390152e-05,-0.003696660976856947,STATIONARY,0,0.0,0.0,0.0,0.025380177712218226,-0.08260765066336362,1.1175516328274682
1768827058.8956478,0.022547468543052673,-0.07405634969472885,1.004762053489685,0.022999178953026132,-0.07407807516372879,1.0051965916293977,0.0008163284510374069,0.0018924465402960777,-0.0017817459302023053,STATIONARY,0,0.0,0.0,0.0,0.02546466833966505,-0.08287978659758195,1.121244359898623
1768827058.948969,0.023517252877354622,-0.07381512224674225,1.0057368278503418,0.02301673866852688,-0.07406713139753075,1.00522799828812,-0.0012877415865659714,0.0003379667177796364,-0.07789744436740875,STATIONARY,0,0.0,0.0,0.0,0.025529860305369353,-0.08308957226528328,1.1240915395157343
1768827059.0038111,0.023517252877354622,-0.07478003203868866,1.0054932832717896,0.02303399000921129,-0.07408944824927415,1.0052505233253675,0.0008068066090345383,3.1449832022190094e-05,0.0009648863924667239,STATIONARY,0,0.0,0.0,0.0,0.02559745786348166,-0.08330700162865178,1.1270416354670105
1768827059.0699525,0.020850349217653275,-0.07405634969472885,1.0050058364868164,0.022959062295122967,-0.07408624880946217,1.005258472189998,0.0007950570434331894,-0.00027494411915540695,0.07661320269107819,STATIONARY,0,0.0,0.0,0.0,0.025713528517546883,-0.08368154825629778,1.1321237684771415
1768827059.1396794,0.022547468543052673,-0.07453880459070206,1.0069553852081299,0.022943594693775236,-0.07409980324799126,1.0053351255196366,0.002295287325978279,-0.000566079281270504,-0.00034901138860732317,STATIONARY,0,0.0,0.0,0.0,0.025822884560259725,-0.08403473010757931,1.1369154967304684
1768827059.1945615,0.02375970035791397,-0.07598615437746048,1.0057368278503418,0.02297087605152862,-0.07416399550816295,1.0053631360428399,0.0010529160499572754,0.0009391438215970993,-0.0003373784711584449,STATIONARY,0,0.0,0.0,0.0,0.025880849059148617,-0.0842218748566775,1.1394524208883179
1768827059.2649698,0.023517252877354622,-0.07502125203609467,1.0059806108474731,0.02298923439471847,-0.07419364481677068,1.005403705253894,0.0019439533352851868,0.001253562979400158,-0.0006466208142228425,STATIONARY,0,0.0,0.0,0.0,0.025996013862118875,-0.08459354867322406,1.1444890009515378
1768827059.3333938,0.023517252877354622,-0.07381512224674225,1.0045183897018433,0.023007514671855755,-0.07418043900657423,1.0053911665846424,-0.002579905092716217,0.0006162291392683983,-0.0003096278815064579,STATIONARY,0,0.0,0.0,0.0,0.026104481878503855,-0.0849432694139633,1.1492288777737754
1768827059.4042912,0.022062579169869423,-0.07502125203609467,1.0050058364868164,0.02297376083580895,-0.07421035453572909,1.0053960926893255,-0.0019286442548036575,0.0008909422904253006,-0.00031444881460629404,STATIONARY,0,0.0,0.0,0.0,0.026219170205770408,-0.08531373820609481,1.1542479600622588
1768827059.4766483,0.02303236350417137,-0.07429756969213486,1.0045183897018433,0.02297510793672749,-0.07421406358282569,1.005383283277825,-0.0012637637555599213,0.0020775850862264633,-0.0018206055974587798,STATIONARY,0,0.0,0.0,0.0,0.026338836323442343,-0.0857002830219047,1.1594845106200822
1768827059.541545,0.023517252877354622,-0.07429756969213486,1.0042747259140015,0.022994089387589574,-0.07421766105297768,1.0053595088214513,0.0008148439228534698,0.0017080381512641907,-0.0005940551054663956,STATIONARY,0,0.0,0.0,0.0,0.026438057830273958,-0.08602053872062218,1.1638227248320612
1768827059.5929759,0.023274807259440422,-0.07405634969472885,1.0037872791290283,0.023004010378656695,-0.07421234223547056,1.005314908407187,-0.001604616641998291,0.0007653506472706795,-0.0024719443172216415,STATIONARY,0,0.0,0.0,0.0,0.02649719540822285,-0.08621132015835757,1.1664071389311903
1768827059.645489,0.023517252877354622,-0.07453880459070206,1.004762053489685,0.023022413944189475,-0.07422449666847966,1.0053068155929115,0.00018505007028579712,0.0007549822330474854,-0.0011883549159392715,STATIONARY,0,0.0,0.0,0.0,0.026563082935269523,-0.08642374221555911,1.1692842125587932
1768827059.701478,0.022789916023612022,-0.07260899990797043,1.0028126239776611,0.023014339301501333,-0.0741671453323987,1.0052290532433776,0.0022809766232967377,0.00014940742403268814,-0.0024357428774237633,STATIONARY,0,0.0,0.0,0.0,0.026632387372768275,-0.08664708611523884,1.1723113181028524
1768827059.7534928,0.022789916023612022,-0.07478003203868866,1.0059806108474731,0.023006428629850553,-0.07418874622978516,1.0052656331203043,-0.0001469738781452179,0.0016560181975364685,-0.004441510885953903,STATIONARY,0,0.0,0.0,0.0,0.026695422758061308,-0.08685035609156772,1.1750656485347981
1768827059.804977,0.022789916023612022,-0.07429756969213486,1.0028126239776611,0.02299870052919323,-0.07419265061765679,1.0051882883575953,0.0004637874662876129,0.0013504354283213615,-0.004440892953425646,STATIONARY,0,0.0,0.0,0.0,0.02676144145398628,-0.08706332908257551,1.177951081991014
1768827059.8576643,0.023517252877354622,-0.07478003203868866,1.0035436153411865,0.023017008014611314,-0.07421361923250376,1.0051385916296647,0.0010743960738182068,-0.00017664674669504166,-0.002607884583994746,STATIONARY,0,0.0,0.0,0.0,0.026846518583176958,-0.08733764282774792,1.1816663479265486
1768827059.95817,0.022547468543052673,-0.07453880459070206,1.0040310621261597,0.02300017330587338,-0.07422630292310757,1.0051130601982565,-0.0019797775894403458,0.000434068962931633,-0.004134378395974636,STATIONARY,0,0.0,0.0,0.0,0.02703318798667269,-0.08794006349241361,1.189823845389625
1768827060.0089245,0.022789916023612022,-0.07405634969472885,1.0035436153411865,0.02299242202937149,-0.07422075078979962,1.0050633708064363,0.0007690880447626114,-0.000482095405459404,-0.0016905565280467272,STATIONARY,0,0.0,0.0,0.0,0.02710255282525294,-0.0881639768492258,1.1928559773846732
1768827060.0759518,0.021577686071395874,-0.07453880459070206,1.0035436153411865,0.022940414201417472,-0.07423298585116835,1.005015325882077,0.001990765333175659,-0.0010927766561508179,-0.002911874558776617,STATIONARY,0,0.0,0.0,0.0,0.027205854069941547,-0.08849824979513031,1.1973815859104482
1768827060.146765,0.022305024787783623,-0.07574492692947388,1.0025688409805298,0.022915575710565576,-0.0742895892009065,1.0049324817052323,-0.0013688411563634872,-0.0007871855050325394,-0.0010789179941639304,STATIONARY,0,0.0,0.0,0.0,0.027306145758672302,-0.0888233836015063,1.2017797462239217
1768827060.2108421,0.021820131689310074,-0.07333267480134964,1.0037872791290283,0.022873341849205867,-0.0742561980087049,1.0048950354271229,0.002907009795308113,0.0007399814203381538,-0.0019883359782397747,STATIONARY,0,0.0,0.0,0.0,0.027423329888720305,-0.08920381108873962,1.206927999211719
1768827060.2748966,0.023517252877354622,-0.07526247948408127,1.004762053489685,0.02289465025206298,-0.07429487371243026,1.0048942842665038,-0.0010636411607265472,-0.00017623603343963623,-0.000766271143220365,STATIONARY,0,0.0,0.0,0.0,0.027529197222065545,-0.0895473586020041,1.2115747388210991
1768827060.3379729,0.023274807259440422,-0.07429756969213486,1.0045183897018433,0.022906722480519177,-0.07429689177524838,1.0048839435381358,0.0016850456595420837,0.0013507772237062454,-0.004125464707612991,STATIONARY,0,0.0,0.0,0.0,0.027615248922225333,-0.08982646329973139,1.215349699288633
1768827060.4027274,0.022789916023612022,-0.07405634969472885,1.0064680576324463,0.022900547226256937,-0.07428990622150919,1.0049466056710914,0.0029063913971185684,-0.0007872981950640678,-0.0022922528441995382,STATIONARY,0,0.0,0.0,0.0,0.02770379809743637,-0.09011371887740062,1.2192355100591843
1768827060.4625473,0.022547468543052673,-0.07357389479875565,1.0042747259140015,0.022885624102579938,-0.07426487896675556,1.004925825577671,-0.0013696663081645966,-0.0007872432470321655,-0.003506976645439863,STATIONARY,0,0.0,0.0,0.0,0.027782100050069692,-0.09036781223352276,1.2226738106290829
1768827060.5242937,0.022547468543052673,-0.07453880459070206,1.0042747259140015,0.022870937266356556,-0.07427636059139978,1.0049054954049463,-0.0016749948263168335,0.001350737176835537,-0.0038117426447570324,STATIONARY,0,0.0,0.0,0.0,0.02786575970472622,-0.09063950790580116,1.226349656779546
1768827060.585066,0.023274807259440422,-0.07453880459070206,1.0069553852081299,0.022883745071175614,-0.07428755073626617,1.0049857422191009,-0.00014780648052692413,0.003183158114552498,-0.000763602671213448,STATIONARY,0,0.0,0.0,0.0,0.027964781223176527,-0.09096096167366038,1.230698386146436
1768827060.6588533,0.02375970035791397,-0.07550370693206787,1.006711721420288,0.022914339463034648,-0.07433532000185873,1.0050569337279684,0.00015765056014060974,0.0013504633679986,-0.0010686760069802403,STATIONARY,0,0.0,0.0,0.0,0.028088431844309307,-0.09136209077909072,1.2361218858868388
1768827060.743311,0.022305024787783623,-0.07405634969472885,1.0054932832717896,0.022889143526873653,-0.07432798588295741,1.0050817572730697,-0.0013692565262317657,0.0010447781533002853,-0.0029007841367274523,STATIONARY,0,0.0,0.0,0.0,0.02823487231811033,-0.0918376273782036,1.242552211624935
1768827060.8054981,0.023517252877354622,-0.07478003203868866,1.006224274635315,0.0229113314568077,-0.07434759457618198,1.0051321224553973,0.00015770085155963898,0.0013502147048711777,-0.0032058064825832844,STATIONARY,0,0.0,0.0,0.0,0.02831519040952005,-0.09209826072064028,1.2460758084024688
1768827060.8597682,0.022305024787783623,-0.07478003203868866,1.0050058364868164,0.02288702767779578,-0.07436651458242681,1.005134687335371,0.0007685907185077667,0.00012841075658798218,-0.0028998604975640774,STATIONARY,0,0.0,0.0,0.0,0.02841147444294529,-0.09241111514964592,1.2503043357234787
1768827060.9385524,0.022062579169869423,-0.07429756969213486,1.0054932832717896,0.022852969806944887,-0.0743673817009712,1.005156766106014,-0.0004530400037765503,0.0010445844382047653,-0.002594043267890811,STATIONARY,0,0.0,0.0,0.0,0.028515398663879536,-0.09274930192674674,1.254875301104206
1768827060.9854813,0.02375970035791397,-0.07526247948408127,1.0042747259140015,0.022885747364429544,-0.07440374202156505,1.0051290084112128,0.0013794545084238052,-0.0007880320772528648,0.07559039443731308,STATIONARY,0,0.0,0.0,0.0,0.028571426914468918,-0.09293145509991561,1.2573360300050873
1768827061.0423906,0.023517252877354622,-0.07405634969472885,1.0052495002746582,0.022908175238330723,-0.07439381143420472,1.0051402157008003,-0.0007585249841213226,-0.0007879510521888733,-0.0022946163080632687,STATIONARY,0,0.0,0.0,0.0,0.028655278286442536,-0.09320376064543401,1.2610151701040049
1768827061.101513,0.02375970035791397,-0.07429756969213486,1.0037872791290283,0.022939319487349532,-0.07439314271265687,1.005095047134575,-0.0022854823619127274,0.0013500293716788292,-0.0010725773172453046,STATIONARY,0,0.0,0.0,0.0,0.02871749415927963,-0.09340552924234095,1.2637411823414737
1768827061.1565006,0.02375970035791397,-0.07478003203868866,1.006224274635315,0.022969800893608307,-0.07441062905548289,1.0051431674627476,0.0010740458965301514,0.0019609248265624046,-0.07987378537654877,STATIONARY,0,0.0,0.0,0.0,0.028788215967615403,-0.09363463241439633,1.266835921506544
1768827061.2085094,0.02424459159374237,-0.07502125203609467,1.0071990489959717,0.023017777619419377,-0.07443653740258097,1.0052263076133816,0.000462973490357399,0.00043366290628910065,-0.003515035379678011,STATIONARY,0,0.0,0.0,0.0,0.028850205845814905,-0.09383509972116558,1.2695431271022446
1768827061.2658317,0.02303236350417137,-0.07357389479875565,1.0040310621261597,0.023019086151309057,-0.07440770476764477,1.00518906246146,-0.0016748998314142227,-0.0007880637422204018,-0.001987564144656062,STATIONARY,0,0.0,0.0,0.0,0.028925795113150257,-0.09407943713102282,1.272843931672223
1768827061.3147254,0.02303236350417137,-0.07478003203868866,1.006711721420288,0.023020238825209875,-0.0744242083882839,1.0052517951774245,0.0010740198194980621,-0.0013986686244606972,-0.002292508725076914,STATIONARY,0,0.0,0.0,0.0,0.028981332249784067,-0.0942589881539947,1.2752691370197458
1768827061.3636055,0.022547468543052673,-0.07502125203609467,1.0037872791290283,0.02300335184908686,-0.07444916027349414,1.005204196967241,0.00015766918659210205,-0.0010933857411146164,-0.0795600637793541,STATIONARY,0,0.0,0.0,0.0,0.029035712075423357,-0.09443498565128225,1.2776454354531903
1768827061.4142413,0.021820131689310074,-0.07429756969213486,1.0045183897018433,0.022960077194061995,-0.07444678242735914,1.005184967586521,0.00015766918659210205,-0.00048241298645734787,-0.0025905498769134283,STATIONARY,0,0.0,0.0,0.0,0.029093255121941237,-0.09462156580204202,1.2801646519549477
1768827061.467406,0.023517252877354622,-0.07405634969472885,1.006711721420288,0.0229802969790124,-0.07443573428296056,1.0052470725446243,-0.001980232074856758,-0.0017041144892573357,-0.001979429041966796,STATIONARY,0,0.0,0.0,0.0,0.029158333374450715,-0.09483236149000981,1.283011426427933
1768827061.5216959,0.022547468543052673,-0.07405634969472885,1.0052495002746582,0.022964473822570195,-0.07442496829853804,1.0052542578647647,0.0007685311138629913,-0.0007876837626099586,-0.0028953428845852613,STATIONARY,0,0.0,0.0,0.0,0.029226616091733732,-0.09505365717953404,1.2860004560402671
1768827061.5706348,0.023517252877354622,-0.07550370693206787,1.004762053489685,0.02298444717406373,-0.07446690933190953,1.0052428020837556,0.0010739900171756744,-0.0017038751393556595,-0.002284170826897025,STATIONARY,0,0.0,0.0,0.0,0.029285276823034275,-0.09524371105927366,1.288566029075732
1768827061.6197586,0.022305024787783623,-0.07429756969213486,1.004762053489685,0.022959922521064827,-0.07446399674891009,1.0052313994674424,0.0007684528827667236,-0.002314530313014984,-0.002283735666424036,STATIONARY,0,0.0,0.0,0.0,0.02934165146560123,-0.09542654622332856,1.2910342238525248
1768827061.6745124,0.022789916023612022,-0.07429756969213486,1.0045183897018433,0.02295348391002356,-0.07446145125736395,1.0052124119534567,-0.0019803643226623535,-0.0013980492949485779,-0.001984463771805167,STATIONARY,0,0.0,0.0,0.0,0.029412667195973144,-0.09565692233382764,1.2941442481910355
1768827061.7305682,0.02424459159374237,-0.07381512224674225,1.0057368278503418,0.02299976930518337,-0.07444156006810332,1.0052373359803248,0.0019898731261491776,0.0010453388094902039,-0.0032056812196969986,STATIONARY,0,0.0,0.0,0.0,0.02948025169097443,-0.09587566779938224,1.29709812380636
1768827061.790944,0.023274807259440422,-0.07429756969213486,1.004762053489685,0.023010167764850504,-0.07443963645471861,1.0052271390049137,-0.00045351311564445496,0.00012907013297080994,-0.0019835401326417923,STATIONARY,0,0.0,0.0,0.0,0.029561503301122886,-0.09613852291554749,1.3006476991264426
1768827061.8421783,0.021335240453481674,-0.07381512224674225,1.0042747259140015,0.022950284627778494,-0.07441983291268095,1.0051985353577348,-0.0010644569993019104,-0.001092604361474514,-0.00228863931261003,STATIONARY,0,0.0,0.0,0.0,0.029621282691513765,-0.0963323667966437,1.303265974090787
1768827061.9025285,0.02303236350417137,-0.07453880459070206,1.0032999515533447,0.022952751747681598,-0.07442690132247021,1.0051361083199912,-0.0004534386098384857,0.0004345625638961792,-0.0013720594579353929,STATIONARY,0,0.0,0.0,0.0,0.029705190653640315,-0.09660444788243304,1.3069404321007057
1768827061.969376,0.02375970035791397,-0.07405634969472885,1.0059806108474731,0.022981578884035517,-0.0744166052411189,1.005172107521658,-0.0004535168409347534,-0.0020087407901883125,-0.0032041422091424465,STATIONARY,0,0.0,0.0,0.0,0.02980856404889253,-0.09693918106964074,1.3114617948013128
1768827062.0258741,0.022062579169869423,-0.07429756969213486,1.0059806108474731,0.022948316863236243,-0.07441472760643685,1.0052064830087657,-0.0013697892427444458,-0.0017030732706189156,-0.0032036295160651207,STATIONARY,0,0.0,0.0,0.0,0.029882045922975966,-0.09717746144883008,1.314680525684824
1768827062.0814917,0.02303236350417137,-0.07478003203868866,1.0042747259140015,0.022950886147630502,-0.07443027922403787,1.0051781900066914,0.0010736212134361267,0.0010456191375851631,-0.0025923028588294983,STATIONARY,0,0.0,0.0,0.0,0.029952676099817152,-0.09740651682168658,1.3177739100910033
1768827062.1367235,0.023274807259440422,-0.07429756969213486,1.0040310621261597,0.02296218501068973,-0.07442800193112221,1.0051415676860704,-0.0019804760813713074,0.00012940261512994766,0.07498152554035187,STATIONARY,0,0.0,0.0,0.0,0.030023558058447152,-0.09763626858752852,1.3208766811463208
1768827062.191354,0.022789916023612022,-0.07550370693206787,1.0050058364868164,0.02295574398913006,-0.07446923869169152,1.005140774350611,0.0016845595091581345,-0.0017029838636517525,-0.001064447802491486,STATIONARY,0,0.0,0.0,0.0,0.03009143394348528,-0.0978564603393928,1.323848696328197
1768827062.2445688,0.02400214597582817,-0.07502125203609467,1.0037872791290283,0.02299311064431349,-0.07449209457805024,1.0050959631879834,-0.0007589031010866165,0.00012953858822584152,-0.002292312914505601,STATIONARY,0,0.0,0.0,0.0,0.030156467408108296,-0.09806715297130227,1.3266914988430838
1768827062.3150847,0.02303236350417137,-0.07453880459070206,1.0035436153411865,0.022994932816375376,-0.07449817911071817,1.0050437878971086,-0.00045344606041908264,-0.0010921107605099678,-0.003513529896736145,STATIONARY,0,0.0,0.0,0.0,0.03027093859724126,-0.09843801272632498,1.3316947123097198
1768827062.3790085,0.02400214597582817,-0.07574492692947388,1.0050058364868164,0.023032013385131646,-0.07454758429103776,1.0050450340344108,-0.0013694874942302704,-0.00017583463340997696,-0.001375167747028172,STATIONARY,0,0.0,0.0,0.0,0.030382352285096698,-0.09879862476434768,1.3365564572136566
1768827062.4574306,0.022789916023612022,-0.07333267480134964,1.0018377304077148,0.023024441729133517,-0.07450879049798534,1.0049300360364304,0.000768464058637619,-0.00017567630857229233,-0.0032137432135641575,STATIONARY,0,0.0,0.0,0.0,0.030503770395878628,-0.09919154272020261,1.3418558997746968
1768827062.5190516,0.02424459159374237,-0.07429756969213486,1.0015939474105835,0.0230704132840881,-0.0745048576023747,1.0048071824182125,-0.0035072099417448044,0.0022675832733511925,-0.0019916780292987823,STATIONARY,0,0.0,0.0,0.0,0.030591633199889022,-0.09947529167696077,1.345682670255568
1768827062.5719905,0.02303236350417137,-0.07333267480134964,1.0011066198349,0.023070515122569506,-0.07446492911130458,1.0046693433111984,-0.0010637752711772919,-0.00017597712576389313,-0.0029076409991830587,STATIONARY,0,0.0,0.0,0.0,0.030661703915195966,-0.09970145961557804,1.3487340932150798
1768827062.6415057,0.02303236350417137,-0.07526247948408127,1.0001319646835327,0.023071042343098726,-0.07449772548777088,1.0044962031199227,-0.0016744844615459442,0.00043486710637807846,-0.0013801689492538571,STATIONARY,0,0.0,0.0,0.0,0.030766716288740056,-0.100040550622424,1.3533062546691201
1768827062.708603,0.02303236350417137,-0.07622738927602768,1.0011066198349,0.023071444830863957,-0.07456582862926237,1.0043616764383396,0.0007689744234085083,0.0010455818846821785,-0.002906740875914693,STATIONARY,0,0.0,0.0,0.0,0.030870403913463847,-0.10037566416701599,1.357820054188697
1768827062.7592187,0.022062579169869423,-0.07526247948408127,1.0015939474105835,0.0230354670530814,-0.07459542562409002,1.0042510213044398,0.0001580566167831421,-0.0007867785170674324,-0.00015748711302876472,STATIONARY,0,0.0,0.0,0.0,0.03092848892204334,-0.1005637600249112,1.360352320152917
1768827062.8149295,0.022789916023612022,-0.07357389479875565,1.0015939474105835,0.023027263168860522,-0.0745623730494001,1.0041420168524018,-0.0004527345299720764,-0.00048141926527023315,-0.0019896714948117733,STATIONARY,0,0.0,0.0,0.0,0.031011231503980125,-0.10083168084625241,1.3639604477231067
1768827062.8816814,0.023274807259440422,-0.07502125203609467,1.0013504028320312,0.023037300086869942,-0.07458419266101661,1.0040233682268584,0.00015797652304172516,0.0010455930605530739,-0.002294564386829734,STATIONARY,0,0.0,0.0,0.0,0.031103575284985543,-0.10113064757966231,1.3679850215095422
1768827062.9360743,0.022305024787783623,-0.07405634969472885,1.0020813941955566,0.023011055933268573,-0.0745688670301678,1.003937644684102,0.001074017956852913,0.0007399851456284523,-0.07986751943826675,STATIONARY,0,0.0,0.0,0.0,0.03117019324641951,-0.10134652754285896,1.3708914626346094
1768827063.0319238,0.02303236350417137,-0.07381512224674225,1.0035436153411865,0.02301255555066372,-0.07454717165676725,1.0038959513615606,-0.00045291706919670105,0.0010452158749103546,-0.001981971086934209,STATIONARY,0,0.0,0.0,0.0,0.03138423432147757,-0.1020398949843334,1.3802287554095383
1768827063.1082635,0.02400214597582817,-0.07357389479875565,1.0013504028320312,0.023050935042034985,-0.07451476394019578,1.0037770768515868,0.001990286633372307,0.0010451683774590492,-0.000759958871640265,STATIONARY,0,0.0,0.0,0.0,0.03151840171392289,-0.10247360630920171,1.3860712148478203
1768827063.1730611,0.022789916023612022,-0.07429756969213486,1.0037872791290283,0.02304217118917646,-0.07450974289949817,1.0037571482513818,-0.001674877479672432,-0.0023143552243709564,-0.0013705423334613442,STATIONARY,0,0.0,0.0,0.0,0.031617342671814826,-0.10279354427313027,1.3903812554652393
1768827063.230819,0.02375970035791397,-0.07381512224674225,1.0025688409805298,0.02307050314480188,-0.07448598561855233,1.00369373464038,-0.0010638609528541565,-0.0026196306571364403,-0.0007594468770548701,STATIONARY,0,0.0,0.0,0.0,0.03169647807035433,-0.10304904273887829,1.393824080409448
1768827063.2992468,0.023517252877354622,-0.07429756969213486,1.0018377304077148,0.023089310413970908,-0.07448160987178258,1.003599204739364,-0.00014743395149707794,0.0004347255453467369,-0.0025980998761951923,STATIONARY,0,0.0,0.0,0.0,0.03180937976791214,-0.10341324158417056,1.398731461870879
1768827063.3705528,0.023517252877354622,-0.07405634969472885,1.0030561685562134,0.02310793743939433,-0.07446776860358306,1.0035545326083943,0.0001580752432346344,0.00043472927063703537,-0.0025976889301091433,STATIONARY,0,0.0,0.0,0.0,0.031917838313625685,-0.10376276070098744,1.403441707665702
1768827063.4362917,0.02303236350417137,-0.07453880459070206,1.0052495002746582,0.02310728733480136,-0.07447266469235905,1.0035969514091896,0.0001582801342010498,0.00043465662747621536,-0.0016809545923024416,STATIONARY,0,0.0,0.0,0.0,0.03201569680924096,-0.10407814964412312,1.4076919031320072
1768827063.4993882,0.02303236350417137,-0.07502125203609467,1.006224274635315,0.023106509307282756,-0.0744960057609142,1.0036776018548372,0.00015833042562007904,0.00043458398431539536,-0.0041239019483327866,STATIONARY,0,0.0,0.0,0.0,0.032106484870670915,-0.10437085278925705,1.4116354647735028
1768827063.5586286,0.023274807259440422,-0.07357389479875565,1.0032999515533447,0.02311495473820605,-0.07446274803449869,1.003645101207619,0.0038230065256357193,-0.0007871165871620178,-0.004428769461810589,STATIONARY,0,0.0,0.0,0.0,0.032190058697850646,-0.1046400783579871,1.415264217811875
1768827063.6053216,0.023274807259440422,-0.07478003203868866,1.0045183897018433,0.023122698460026497,-0.07447626476480768,1.0036640704952775,-0.0013691950589418411,0.0016561178490519524,-0.002901067491620779,STATIONARY,0,0.0,0.0,0.0,0.03224092486146402,-0.1048039139879586,1.4174721149961476
1768827063.6600063,0.023517252877354622,-0.07550370693206787,1.0037872791290283,0.023139753995653524,-0.07451722458711356,1.0036524662520796,-0.001674368977546692,-0.0004817778244614601,-0.0010680867126211524,STATIONARY,0,0.0,0.0,0.0,0.032317290853751464,-0.10504983629980211,1.42078437650556
1768827063.71699,0.023274807259440422,-0.07405634969472885,1.0030561685562134,0.023147233475457957,-0.07450223879848887,1.0036132727090123,-0.0016741640865802765,0.0010452857241034508,0.07467322051525116,STATIONARY,0,0.0,0.0,0.0,0.032383860162835926,-0.10526409786878482,1.4236706757353608
1768827063.7709737,0.023274807259440422,-0.07381512224674225,1.0064680576324463,0.023154374566091908,-0.07447834211296848,1.0037050537369325,-0.0013683736324310303,-0.0004818988963961601,-0.002295463113114238,STATIONARY,0,0.0,0.0,0.0,0.03245219314453491,-0.10548389768130184,1.4266328010509208
1768827063.8262186,0.022305024787783623,-0.07478003203868866,1.0059806108474731,0.023124744510298372,-0.07449146149731094,1.0037761280770845,-0.0007574316114187241,0.00012922659516334534,-0.000761626404710114,STATIONARY,0,0.0,0.0,0.0,0.032522431606078615,-0.10571015599310214,1.4296816429933272
1768827063.8853362,0.021092794835567474,-0.07429756969213486,1.0079301595687866,0.023050110886600153,-0.07448620658480631,1.003918470157552,0.003212960436940193,-0.002313947305083275,-0.0019831261597573757,STATIONARY,0,0.0,0.0,0.0,0.03260281051404541,-0.105969899643505,1.4331824448209607
1768827063.9441452,0.021577686071395874,-0.0704379603266716,1.0052495002746582,0.022995249801668935,-0.07433560345094112,1.0039573000085968,-0.0016735251992940903,0.0007404088973999023,-0.0041203852742910385,STATIONARY,0,0.0,0.0,0.0,0.03269234879239969,-0.10625934559477014,1.437091626454528
1768827064.002608,0.03151796758174896,-0.06706079840660095,0.9989133477210999,0.023315750651817322,-0.07406099895834364,1.0037571108816212,0.006878357380628586,-0.0007867245003581047,-0.0044249966740608215,STATIONARY,0,0.0,0.0,0.0,0.03276648031172097,-0.1064948196507944,1.4402830330178586
1768827064.0635264,0.025941714644432068,-0.06826692819595337,1.0028126239776611,0.023420264001984856,-0.0738369077797222,1.0037069498973952,0.002296634018421173,-0.004756729584187269,-0.006256592459976673,STATIONARY,0,0.0,0.0,0.0,0.03286253021429979,-0.10679763552846182,1.4443993809269668
1768827064.1313562,0.03442732244729996,-0.0709204152226448,1.0001319646835327,0.023845044681986484,-0.07371538081723165,1.003555263432977,-0.007477030158042908,0.0007412414997816086,-0.005644470453262329,STATIONARY,0,0.0,0.0,0.0,0.03295825438428197,-0.10709356047797472,1.4484280793800228
1768827064.17567,0.021335240453481674,-0.08298170566558838,1.0013504028320312,0.023762087728415815,-0.07405361355571737,1.0034600122058603,-0.0019792187958955765,0.0004358384758234024,-0.0028949102852493525,STATIONARY,0,0.0,0.0,0.0,0.03301672445573719,-0.10727578016025215,1.4508972386259071
1768827064.2243214,0.011394958011806011,-0.0771922841668129,1.0018377304077148,0.02331275158840375,-0.07416580663644258,1.0033836095104625,0.002602243795990944,-0.0032290159724652767,0.0010756098199635744,STATIONARY,0,0.0,0.0,0.0,0.03306567402319874,-0.10743150541394107,1.4530040338489978
1768827064.2724638,0.01260718796402216,-0.0709204152226448,1.0064680576324463,0.022921102185708326,-0.07404332030886743,1.0034821886403522,-0.001979272812604904,-0.000479990616440773,-0.001672899816185236,STATIONARY,0,0.0,0.0,0.0,0.033124142169216185,-0.10762037834109615,1.4555637599326725
1768827064.3318262,0.01769855059683323,-0.07670983672142029,1.0040310621261597,0.022725687174738354,-0.07413633578869508,1.0034850410970295,0.0010748989880084991,-0.00047985929995775223,-0.0025889165699481964,STATIONARY,0,0.0,0.0,0.0,0.033199731096054716,-0.10786696653087981,1.4589014965111888
1768827064.3927975,0.027638833969831467,-0.07260899990797043,1.0018377304077148,0.022901292593883543,-0.0740760323952151,1.0034064482194378,0.00138048455119133,-0.00047985557466745377,-0.0025820652954280376,STATIONARY,0,0.0,0.0,0.0,0.03327970394431642,-0.10812564499954203,1.4624054590626168
1768827064.4521744,0.03248775377869606,-0.07188531756401062,1.0050058364868164,0.023253292801700614,-0.0739902550399641,1.00344723360227,-0.002284374088048935,-0.00047962088137865067,-0.003803208004683256,STATIONARY,0,0.0,0.0,0.0,0.033358345546294674,-0.1083758767510941,1.4657990729745942
1768827064.5062742,0.02375970035791397,-0.07550370693206787,1.0037872791290283,0.023275420260661997,-0.07404039227869533,1.0034441172178403,0.0007698219269514084,0.0004366552457213402,-0.004107950255274773,STATIONARY,0,0.0,0.0,0.0,0.033426115174741144,-0.10859145566733126,1.4687207403055846
1768827064.5625155,0.022305024787783623,-0.07550370693206787,1.0015939474105835,0.023243617515127435,-0.07408931950991127,1.0033599389763104,-0.00014632195234298706,0.00013122614473104477,-0.0016641579568386078,STATIONARY,0,0.0,0.0,0.0,0.033499975483340445,-0.10882688631831977,1.4719090768319767
1768827064.6146612,0.023517252877354622,-0.07381512224674225,1.0035436153411865,0.023256709543670016,-0.07407557922052971,1.0033506014039069,-0.00045191124081611633,-0.0017012376338243484,-0.0034962170757353306,STATIONARY,0,0.0,0.0,0.0,0.033563895873662535,-0.10903048089511148,1.4746667568017597
1768827064.6701117,0.023274807259440422,-0.07502125203609467,1.0045183897018433,0.023260797952531602,-0.07410605741303054,1.0033765461234185,0.0016858838498592377,0.00013138726353645325,-0.002579562831670046,STATIONARY,0,0.0,0.0,0.0,0.03363394796469742,-0.10925365828957266,1.4776885200832577
1768827064.7235687,0.023274807259440422,-0.07188531756401062,1.0050058364868164,0.023264618104866592,-0.07402168013106725,1.0034198564257772,0.0007696114480495453,-0.00047949980944395065,-0.0037942384369671345,STATIONARY,0,0.0,0.0,0.0,0.03371625569506186,-0.10951553907617696,1.4812385122048886
1768827064.7822313,0.023274807259440422,-0.07502125203609467,1.0035436153411865,0.023268631186535736,-0.07405296864872957,1.0034089099288694,0.0007695592939853668,0.0007421830669045448,-0.001961390022188425,STATIONARY,0,0.0,0.0,0.0,0.03378748260714082,-0.1097422204071433,1.484310017255349
1768827064.8300962,0.022789916023612022,-0.07574492692947388,1.0028126239776611,0.023254256843285342,-0.07411058276066533,1.0033743049679413,-0.001979207620024681,-0.0007847966626286507,-0.00196121446788311,STATIONARY,0,0.0,0.0,0.0,0.03383567831183587,-0.10989581859716856,1.486389564756124
1768827064.8854263,0.02497193031013012,-0.07236777245998383,1.004762053489685,0.02331954567408676,-0.07404433387262774,1.0034091844126196,-0.0007574539631605148,-0.0007846131920814514,-0.0004337728023529053,STATIONARY,0,0.0,0.0,0.0,0.033907813611828,-0.11012486294954436,1.4894934512359062
1768827064.9420211,0.023517252877354622,-0.07453880459070206,1.0042747259140015,0.02333098404043773,-0.07405781987252746,1.0034255869753057,-0.002589767798781395,-0.0004794076085090637,-0.0031822086311876774,STATIONARY,0,0.0,0.0,0.0,0.0339810269188231,-0.1103572585438458,1.492642229933737
1768827065.0134115,0.023274807259440422,-0.07478003203868866,1.0028126239776611,0.023334498718290336,-0.07407900271315868,1.0033852395344105,-0.0007571745663881302,-0.0013955999165773392,-0.0013427644735202193,STATIONARY,0,0.0,0.0,0.0,0.03410000011214578,-0.11073495748725767,1.4977580863967979
1768827065.0905135,0.023274807259440422,-0.07357389479875565,1.0040310621261597,0.023338249879925076,-0.07405547143332744,1.0033891047328563,0.002602430060505867,-0.001395493745803833,-0.002869522199034691,STATIONARY,0,0.0,0.0,0.0,0.03423994050133855,-0.11117900755731663,1.5037745898857287
1768827065.1694064,0.02472948282957077,-0.07405634969472885,1.0042747259140015,0.0233962030982045,-0.07405003477121777,1.0034023262340466,0.001380598172545433,0.003796633332967758,-0.004097212105989456,STATIONARY,0,0.0,0.0,0.0,0.034383484014917046,-0.11163332923195136,1.5099307980035974
1768827065.2455096,0.1520135998725891,0.008497740142047405,1.0527703762054443,0.028251677914062433,-0.07093385679095138,1.0052439920662044,0.00657295249402523,0.0025749020278453827,0.005676631350070238,STATIONARY,0,0.0,0.0,0.0,0.03454682638094142,-0.11204344660744717,1.5157428043770012
1768827065.3254204,0.025941714644432068,-0.05065743625164032,1.0325435400009155,0.028289420068997533,-0.07007906309966264,1.0063110584434978,-0.2716761827468872,0.052971288561820984,0.01728307083249092,STATIONARY,0,0.0,0.0,0.0,0.03472738117548256,-0.11249072021039606,1.522165498301394
1768827065.3894196,0.0021820133551955223,-0.0919070690870285,1.0420477390289307,0.02739066255330438,-0.07083257465712298,1.007717449311107,0.005962086841464043,-0.03743676841259003,-0.23347711563110352,STATIONARY,0,0.0,0.0,0.0,0.03483965655322856,-0.1127810656542448,1.526296170827568
1768827065.4389145,0.01600143127143383,-0.14980128407478333,1.207761526107788,0.02701991847569128,-0.07377857743534912,1.01536350372143,0.17333917319774628,0.8758067488670349,-0.05815878510475159,STATIONARY,0,0.0,0.0,0.0,0.03490952232957141,-0.11297183594078838,1.5289216102611294
1768827065.4922101,-0.009626590646803379,-0.10179732739925385,1.1210054159164429,0.025694920548449327,-0.07483220158287207,1.0195291452405875,0.06491058319807053,1.2291922569274902,-0.11130406707525253,STATIONARY,0,0.0,0.0,0.0,0.03497972012538226,-0.1131762753978743,1.5317069350347887
1768827065.5491943,-0.18611407279968262,-0.05258724465966225,1.0583754777908325,0.017751515207836514,-0.0740077001423802,1.0212553277662242,0.2380908727645874,0.40421879291534424,0.12387906014919281,STATIONARY,0,0.0,0.0,0.0,0.03503778707953318,-0.11341836187222133,1.5350475617699988
1768827065.600808,-0.044924091547727585,-0.0494513064622879,1.1295348405838013,0.01531134882143683,-0.07308658120215698,1.0255718642594238,0.04566832631826401,-0.37921589612960815,0.002622305415570736,STATIONARY,0,0.0,0.0,0.0,0.035081140139381815,-0.11362530163735511,1.5379513998922203
1768827065.6541493,-0.07997474819421768,-0.005306969862431288,1.0181653499603271,0.011622080885546584,-0.07053532051081837,1.0256494255033686,0.04689005762338638,-0.46626418828964233,-0.07404128462076187,STATIONARY,0,0.0,0.0,0.0,0.035115373820977826,-0.11383306853619357,1.540972524612276
1768827065.7133894,-0.05726587027311325,-0.047521501779556274,1.0503334999084473,0.008840035393544778,-0.06961645651913392,1.0269183781316455,0.32239028811454773,-0.7209950089454651,-0.4359789490699768,STATIONARY,0,0.0,0.0,0.0,0.03514348654867363,-0.11405446001237456,1.5442382894474838
1768827065.7657068,-0.061462074518203735,-0.0016885813092812896,0.984535276889801,0.006000759417821437,-0.06702281754777316,1.0256862357745362,0.709984302520752,-1.3095636367797852,-0.3104461431503296,STATIONARY,0,0.0,0.0,0.0,0.03516189727068145,-0.11426009039615365,1.5473851618413355
1768827065.830019,0.07321866601705551,-0.04728027433156967,1.0140225887298584,0.008173945801705435,-0.06615272810870518,1.02563476260524,0.4106603264808655,0.039837680757045746,-0.30006143450737,STATIONARY,0,0.0,0.0,0.0,0.03519244115544029,-0.11450728573520444,1.5512176890874962
1768827065.8935616,0.04994386062026024,0.040789153426885605,1.0103671550750732,0.00945561612051532,-0.062011325964567994,1.0254381193750342,0.5807862877845764,-0.4073156714439392,-0.13665497303009033,STATIONARY,0,0.0,0.0,0.0,0.03523102852098723,-0.11476034737312919,1.5554023931886116
1768827065.953612,-0.025917742401361465,0.11945395171642303,0.9416446089744568,0.007900464762958168,-0.05502227097720939,1.0226495549274892,1.0743653774261475,-0.7066396474838257,0.004149468615651131,STATIONARY,0,0.0,0.0,0.0,0.03525916716153805,-0.1149563170979201,1.5590447065333244
1768827066.0247996,0.13601216673851013,0.11581206321716309,1.0661736726760864,0.01241299296305158,-0.0481954496631252,1.0246235792018117,0.7762631773948669,0.07801676541566849,0.3016408383846283,STATIONARY,0,0.0,0.0,0.0,0.035323649624014894,-0.11520668067129099,1.564367375425141
1768827066.093537,0.06327838450670242,0.23550879955291748,1.0203588008880615,0.014142329605086329,-0.036951049841873,1.0248196292341534,0.8962981700897217,-0.9299108982086182,0.35020461678504944,STATIONARY,0,0.0,0.0,0.0,0.035389246289818134,-0.11537807150542093,1.5691208179345912
1768827066.149628,0.14522510766983032,0.31854385137557983,0.956266462802887,0.018959698231398488,-0.0229399281127178,1.0225251616612874,0.8520104289054871,-1.3248353004455566,0.4494702219963074,STATIONARY,0,0.0,0.0,0.0,0.035449200570928166,-0.11545061205337312,1.5723542428676316
1768827066.205865,0.22208045423030853,0.26537227630615234,0.921417772769928,0.026558383355517173,-0.011261380218095774,1.0189685481391013,-0.5786359310150146,-1.8287991285324097,0.04660460352897644,STATIONARY,0,0.0,0.0,0.0,0.035531524534270297,-0.11548551935325829,1.575512775835579
