timestamp,dt,accel_raw_x_g,accel_raw_y_g,accel_raw_z_g,accel_raw_x_mps2,accel_raw_y_mps2,accel_raw_z_mps2,accel_filt_x_mps2,accel_filt_y_mps2,accel_filt_z_mps2,accel_lin_x_mps2,accel_lin_y_mps2,accel_lin_z_mps2,gyro_x,gyro_y,gyro_z,step_state,step_count,velocity_x,velocity_y,velocity_z,pos_x,pos_y,pos_z
1769098463.3757572,2.04172420501709,0.021092794835567474,0.05754183977842331,1.02157723903656,0.20692031733691693,0.5644854482263327,10.021672714948656,0.20621060555283727,0.564447687493903,10.024795971644052,0.0007854556448278205,0.0012554445465474684,0.009429222384900626,-0.0010868795216083527,0.001699021551758051,-0.004659444559365511,INITIALIZING,0,0.0016036838020122674,0.0025632715187426706,0.019251871577740578,0.003274280035762281,0.005233493503847828,0.03930701219215349
1769098463.418553,0.04286026954650879,0.020850349217653275,0.05754183977842331,1.0218209028244019,0.20454192582517863,0.5644854482263327,10.024063056707382,0.20589394976749117,0.5644548531316131,10.024656890578335,0.00046879985948172775,0.001262610184257662,0.009290141319183931,-0.0004904288798570633,-0.00014931010082364082,-0.004203841555863619,INITIALIZING,0,0.0016237766903530197,0.002617387331572121,0.01965004953880596,0.003343875542394149,0.005345675430386626,0.04014921861198897
1769098463.4709463,0.05224013328552246,0.020365456119179726,0.058513008058071136,1.0223082304000854,0.19978512452915312,0.5740126090496779,10.028843740224838,0.2047347130240196,0.5662685736773932,10.025451405032465,-0.0006904368839898423,0.0030763307300377685,0.010084655773313855,-0.00014854967594146729,0.0016170856542885303,-0.004338787868618965,INITIALIZING,0,0.0015877081755081496,0.0027780952589396427,0.02017687330054249,0.0034268176291012086,0.005490803496993511,0.041203261162494405
1769098463.51978,0.048830509185791016,0.022305024787783623,0.05632787570357323,1.0220645666122437,0.21881229316815734,0.5525764606520533,10.02645339846611,0.20740613470094585,0.5636702998857112,10.025641547581921,0.001980984792936402,0.0004780569383556754,0.010274798322770451,-0.00046913139522075653,0.0009676353074610233,-0.004514659289270639,INITIALIZING,0,0.001684440671636543,0.0028014390226593507,0.020678596934424684,0.003509069724790477,0.0056275991909229125,0.0422130075800501
1769098463.5748963,0.05508017539978027,0.021335240453481674,0.057056255638599396,1.0220645666122437,0.20929870884865523,0.55972186781466,10.02645339846611,0.20776527764679414,0.5629210285680217,10.025795607869858,0.0023401277387846975,-0.0002712143793337507,0.010428858610707081,0.0019438527524471283,0.0021416274830698967,-0.0031629842706024647,INITIALIZING,0,0.0018133353179466954,0.002786500487074705,0.021253020295921937,0.003608948552161597,0.00578108012650256,0.043383627665724574
1769098463.6300402,0.0552060604095459,0.021335240453481674,0.05827021971344948,1.0220645666122437,0.20929870884865523,0.5716308553889394,10.02645339846611,0.20805626809478195,0.5645738424702293,10.025920433020183,0.002631118186772502,0.0013815995228738664,0.010553683761031607,-0.0002230331301689148,0.000889236107468605,-0.0015459684655070305,INITIALIZING,0,0.001958588987510313,0.0028627731537962794,0.02183564759917669,0.003717074534123563,0.005939122554169864,0.04458908774616628
1769098463.6788857,0.048803091049194336,0.020365456119179726,0.05754183977842331,1.0203588008880615,0.19978512452915312,0.5644854482263327,10.009719836711884,0.20648670059895127,0.5645570684013309,10.022846138737075,0.001061550690941826,0.0013648254539754268,0.007479389477923704,-0.00021559931337833405,0.0023812809959053993,-0.004792685154825449,INITIALIZING,0,0.002010395942533682,0.0029293808546929003,0.022200664924860187,0.0038151880703519653,0.006082085394739208,0.04567254881784689
1769098463.7296512,0.05076003074645996,0.022547468543052673,0.057784635573625565,1.0203588008880615,0.22119066640734675,0.5668672749772669,10.009719836711884,0.20927698789230312,0.5649954630587893,10.020355235655087,0.003851837984293671,0.0018032201114338564,0.004988486395935965,0.0004224684089422226,0.0008508851751685143,-0.0022608283907175064,INITIALIZING,0,0.002205915357046811,0.003020912362991918,0.022453880647696194,0.00392716040169975,0.0062354269991670395,0.04681230848990129
1769098463.772852,0.043244123458862305,0.021092794835567474,0.057056255638599396,1.0213334560394287,0.20692031733691693,0.55972186781466,10.019281203746797,0.20882977603184327,0.5639947231229298,10.020151422777296,0.003404626123833826,0.0008024801755742716,0.004784673518145155,-0.0016785655170679092,0.001407981850206852,-0.003676875028759241,INITIALIZING,0,0.002353145429477149,0.0030556149147777413,0.022660789660025212,0.0040289201131687175,0.00636756438778443,0.04779225447563473
1769098463.8237464,0.050829172134399414,0.022789916023612022,0.05729904770851135,1.0203588008880615,0.22356907619163396,0.5621036580204964,10.009719836711884,0.2116267685224869,0.5636358665399521,10.018171880494139,0.006201618614477461,0.0004436235925966425,0.0028051312349877122,0.001314764842391014,0.0010607531294226646,-0.002638281788676977,INITIALIZING,0,0.002668368569544319,0.003078163934728717,0.02280337215842798,0.004164551078508107,0.006524024912280655,0.04895133100432024
1769098463.8768415,0.05311942100524902,0.020607901737093925,0.057784635573625565,1.0193839073181152,0.20216351604089142,0.5668672749772669,10.00015613079071,0.20983098135205566,0.5642490723933772,10.014753134957544,0.004405831444046215,0.001056829446021701,-0.0006136143016064466,0.001306271180510521,0.0010153031907975674,-0.0031408495269715786,INITIALIZING,0,0.0029024037848987745,0.003134302103002688,0.02277077732200611,0.0043187250870853735,0.006690517225247693,0.05016090151150466
1769098463.9268622,0.05004167556762695,0.020850349217653275,0.05681345984339714,1.0206023454666138,0.20454192582517863,0.5573400410637259,10.012109009027482,0.20882730760697316,0.5629379851275534,10.014251374338619,0.0034021576989637092,-0.00025425781980203954,-0.0011153749205323749,-0.0007787980139255524,-0.00025506457313895226,-0.002740910043939948,INITIALIZING,0,0.0030726534567002205,0.003121578615673622,0.022714962092096558,0.004472485814497313,0.0068467262495920745,0.0512975962750483
1769098463.9869235,0.06000638008117676,0.021092794835567474,0.05681345984339714,1.0186527967453003,0.20692031733691693,0.5573400410637259,9.992983936071397,0.208465428996235,0.5618756953756775,10.010215574505263,0.003040279088225545,-0.001316547571677984,-0.005151174753887489,-0.00014719553291797638,-0.000211233738809824,-0.0011228211224079132,INITIALIZING,0,0.003255089599221136,0.003042577361692563,0.022405858741950224,0.0046678119581864625,0.007029300303184182,0.05264209075076292
1769098464.0267406,0.04001903533935547,0.019880564883351326,0.057784635573625565,1.0223082304000854,0.19502834150567652,0.5668672749772669,10.028843740224838,0.2059155499382223,0.5628229188198531,10.01375053471825,0.0004904000302128619,-0.0003693241275023462,-0.0016162145409008843,-0.0019289441406726837,0.00036612339317798615,-0.0022512641735374928,INITIALIZING,0,0.0032747149353606455,0.00302779736638237,0.02234117939512193,0.004798862890910975,0.007150469832989846,0.05353616319849919
1769098464.0720222,0.045711517333984375,0.021092794835567474,0.05729904770851135,1.0206023454666138,0.20692031733691693,0.5621036580204964,10.012109009027482,0.20610621888712255,0.5626864288214947,10.01343903179881,0.000681068979113103,-0.0005058141258608151,-0.0019277174603402614,-0.001289287582039833,0.0024307798594236374,-0.0024714793544262648,STATIONARY,0,0.0,0.0,0.0,0.004949978202235741,0.007287818124513609,0.054553384359508544
1769098464.1327558,0.060925960540771484,0.022547468543052673,0.05729904770851135,1.0181653499603271,0.22119066640734675,0.5621036580204964,9.98820208311081,0.20896870801361947,0.562575839747625,10.008649960730182,0.003543558105610023,-0.000616403199730442,-0.006716788528969175,-0.001597084105014801,-0.0009081093594431877,-0.003274859394878149,STATIONARY,0,0.0,0.0,0.0,0.004963131793070582,0.007285530052683856,0.054528451824073516
1769098464.1990502,0.06600069999694824,0.021577686071395874,0.056570667773485184,1.0208460092544556,0.21167710036039353,0.5549582508578896,10.01449935078621,0.20948266410200347,0.5611302935757977,10.009759965946452,0.004057514193994027,-0.002061949371557792,-0.005606783312698482,-0.0003628414124250412,0.002104963641613722,-0.0016995377372950315,STATIONARY,0,0.0,0.0,0.0,0.0049808066998142855,0.007276548010697048,0.05450402815789614
1769098464.262356,0.06325888633728027,0.020607901737093925,0.057784635573625565,1.0193839073181152,0.20216351604089142,0.5668672749772669,10.00015613079071,0.20809375133525715,0.5622189676461342,10.00793750120791,0.002668601427247702,-0.0009732753012212658,-0.007429248051240123,0.0008454024791717529,-0.00036759115755558014,-0.001337544061243534,STATIONARY,0,0.0,0.0,0.0,0.004991485606654993,0.007272653267868096,0.054474298634773786
1769098464.3306172,0.0682990550994873,0.021820131689310074,0.05681345984339714,1.02157723903656,0.21405549187213183,0.5573400410637259,10.021672714948656,0.20922507665817133,0.5612931217195667,10.010543953975258,0.003799926750161886,-0.0018991212277887914,-0.0048227952838928445,-0.0006691291928291321,-0.001246142666786909,-0.0030947579070925713,STATIONARY,0,0.0,0.0,0.0,0.005009211356486445,0.007263794321368154,0.05445180144777224
1769098464.377421,0.046883344650268555,0.021092794835567474,0.05827021971344948,1.0193839073181152,0.20692031733691693,0.5716308553889394,10.00015613079071,0.20878771569500462,0.5632548541715856,10.008572716323108,0.0033625657869951753,6.261122423012466e-05,-0.006794032936042527,-0.0012423768639564514,-0.00031885039061307907,-0.0011999052949249744,STATIONARY,0,0.0,0.0,0.0,0.005016602437508235,0.007263931943844701,0.05443686783722722
1769098464.4242964,0.046811819076538086,0.019880564883351326,0.05875580012798309,1.02157723903656,0.19502834150567652,0.5763943992555142,10.021672714948656,0.20617667813784202,0.5657482703129083,10.011058627959745,0.000751528229832571,0.0025560273655528265,-0.004308121299406054,0.0014663971960544586,2.1704472601413727e-06,-0.000274154357612133,STATIONARY,0,0.0,0.0,0.0,0.005018249296193125,0.007269533085223937,0.05442742725110437
1769098464.4738567,0.049494266510009766,0.020123012363910675,0.05827021971344948,1.0184091329574585,0.19740675128996374,0.5716308553889394,9.990593594312669,0.20451245939807264,0.5668645747578179,10.007175095850956,-0.0009126905099368088,0.003672331810462448,-0.008191653408195165,0.0005670934915542603,0.0005774614401161671,-0.00023978156968951225,STATIONARY,0,0.0,0.0,0.0,0.005016013494298439,0.007278529131890753,0.05440736030178117
1769098464.5234253,0.0495610237121582,0.019880564883351326,0.05754183977842331,1.0181653499603271,0.19502834150567652,0.5644854482263327,9.98820208311081,0.20271271271825556,0.5664131015555143,10.00357469599589,-0.0027124371897538913,0.003220858608158794,-0.011792053263260271,0.0005936138331890106,-0.0012890053912997246,-0.0005270419642329216,STATIONARY,0,0.0,0.0,0.0,0.005009350948197772,0.00728644051101564,0.05437839553946897
1769098464.5770965,0.05383419990539551,0.022062579169869423,0.05754183977842331,1.0225520133972168,0.21643390165641904,0.5644854482263327,10.031235251426697,0.20531650407922142,0.5660473018345076,10.00882368102152,-0.00010864582878802875,0.0028550588871520954,-0.006543068237631289,0.00027352944016456604,0.0011210236698389053,-0.0013750437647104263,STATIONARY,0,0.0,0.0,0.0,0.005009036079431167,0.007294714817359578,0.05435943293548519
1769098464.6273525,0.04987454414367676,0.021820131689310074,0.057784635573625565,1.0135352611541748,0.21405549187213183,0.5668672749772669,9.942780911922455,0.20697485169190372,0.5662029034368878,9.996291123354004,0.0015497017838942695,0.0030106604895323574,-0.01907562590514722,0.0018971320241689682,0.0008540181443095207,-0.0790865421295166,STATIONARY,0,0.0,0.0,0.0,0.005012890916365491,0.007302203745469731,0.05431198288538605
1769098464.6812267,0.05426383018493652,0.021335240453481674,0.05681345984339714,1.0186527967453003,0.20929870884865523,0.5573400410637259,9.992983936071397,0.20741583674182448,0.5645210488552864,9.99566353738355,0.0019906868338150363,0.0013288059079309411,-0.019703211875601312,-0.0016384702175855637,0.0002804719842970371,0.0003352633211761713,STATIONARY,0,0.0,0.0,0.0,0.005018752619691129,0.007306116498534319,0.054253965531468246
1769098464.7239838,0.042458295822143555,0.020607901737093925,0.05972697585821152,1.0225520133972168,0.20216351604089142,0.585921633169055,10.031235251426697,0.20641913395405992,0.5685821150505654,10.002413777624225,0.0009939840460504723,0.005389872103209958,-0.012952971634925703,0.0010532233864068985,-0.0006600562483072281,-0.0005616678390651941,STATIONARY,0,0.0,0.0,0.0,0.00502054448157365,0.007315832858079306,0.05423061512033214
1769098464.774181,0.05030322074890137,0.019880564883351326,0.056570667773485184,1.021089792251587,0.19502834150567652,0.5549582508578896,10.016890861988069,0.20425756857475355,0.5659967924485863,10.00516101092656,-0.001167581333255896,0.0028045495012307686,-0.010205738332590641,-0.0034258048981428146,-0.0018291594460606575,-0.00023760064505040646,STATIONARY,0,0.0,0.0,0.0,0.005017590017401159,0.00732292952945059,0.05420479037699425
1769098464.8296673,0.05568504333496094,0.022547468543052673,0.0553567074239254,1.0218209028244019,0.22119066640734675,0.5430492998287082,10.024063056707382,0.20747086547268237,0.5616421783325107,10.00874794378861,0.002045715564672923,-0.0015500646148447483,-0.006618805470541389,0.0019978731870651245,0.0011691898107528687,0.0003658703062683344,STATIONARY,0,0.0,0.0,0.0,0.005023933421426045,0.0073181230518119395,0.05418426662580087
1769098464.902626,0.07277846336364746,0.021577686071395874,0.05827021971344948,1.019627571105957,0.21167710036039353,0.5716308553889394,10.002546472549438,0.20826905855290107,0.5635376723122393,10.0075711261447,0.0028439086448916184,0.00034542936488379805,-0.007795623114450478,0.001116182655096054,0.0017510061152279377,-0.0008071454940363765,STATIONARY,0,0.0,0.0,0.0,0.005038996765795918,0.007319952689162653,0.054142975511980586
1769098464.9532886,0.0508267879486084,0.020365456119179726,0.05754183977842331,1.0208460092544556,0.19978512452915312,0.5644854482263327,10.01449935078621,0.20665911103176476,0.56371752631384,10.00888585561528,0.0012339611237553172,0.0005252833664844969,-0.00648089364387161,0.0014549847692251205,0.0014024386182427406,-0.001365699921734631,STATIONARY,0,0.0,0.0,0.0,0.0050421845345329855,0.007321309686446883,0.05412623301519647
1769098464.9976547,0.0442655086517334,0.020365456119179726,0.05802742764353752,1.02157723903656,0.19978512452915312,0.5692490651831031,10.021672714948656,0.20535467402185564,0.5647672147326456,10.011312344603674,-7.047588615380351e-05,0.0015749717852900913,-0.0040544046554771285,-0.001291157677769661,-0.003098325338214636,-0.00014421786181628704,STATIONARY,0,0.0,0.0,0.0,0.005042046441596944,0.0073243957416904955,0.05411828867177164
1769098465.049672,0.051883697509765625,0.020365456119179726,0.05802742764353752,1.0220645666122437,0.19978512452915312,0.5692490651831031,10.02645339846611,0.2042977725449555,0.5656177097980976,10.014185575591208,-0.001127377363053933,0.002425466850742075,-0.001181173667943014,-0.0013137329369783401,-8.795550093054771e-05,0.00043595233000814915,STATIONARY,0,0.0,0.0,0.0,0.005039011634104691,0.007330924899727608,0.0541151090490343
1769098465.0993207,0.04968142509460449,0.020365456119179726,0.05729904770851135,1.0206023454666138,0.19978512452915312,0.5621036580204964,10.012109009027482,0.20344143320209104,0.5649508683383859,10.013791517459405,-0.0019837167059184035,0.001758625391030444,-0.0015752317997463905,0.002003064379096031,-0.001886819489300251,0.00011607538908720016,STATIONARY,0,0.0,0.0,0.0,0.005034115337248737,0.007335265616296266,0.05411122099259686
1769098465.1483457,0.048969268798828125,0.021820131689310074,0.056570667773485184,1.0193839073181152,0.21405549187213183,0.5549582508578896,10.00015613079071,0.20545560226531043,0.5630546266069726,10.01120400830321,3.0452357300980726e-05,-0.0001376163403828956,-0.004162740955941047,0.0013710316270589828,-0.001258661039173603,-0.0004984862171113491,STATIONARY,0,0.0,0.0,0.0,0.005034188361675299,0.007334935613786354,0.05410123878438124
1769098465.2026317,0.05505251884460449,0.021335240453481674,0.057784635573625565,1.0203588008880615,0.20929870884865523,0.5668672749772669,10.009719836711884,0.2061848865690308,0.5637781310302199,10.010922365569106,0.0007597366610213596,0.0005858880828644164,-0.004444383690044518,-0.0022833049297332764,-1.5511177480220795e-05,-0.0019934619776904583,STATIONARY,0,0.0,0.0,0.0,0.005036490956224497,0.007336711311571202,0.05408776883593163
1769098465.2471006,0.04414200782775879,0.022547468543052673,0.056570667773485184,1.0201150178909302,0.22119066640734675,0.5549582508578896,10.007328325510025,0.20903244738053525,0.5621044329344526,10.010240345191793,0.0036072974725258056,-0.0010878100129029233,-0.005126404067357981,-0.00046092085540294647,0.0008657150901854038,-0.0010664964793249965,STATIONARY,0,0.0,0.0,0.0,0.00504351983615095,0.007334591695425951,0.05407777995120051
1769098465.297931,0.05097222328186035,0.020607901737093925,0.05729904770851135,1.0208460092544556,0.20216351604089142,0.5621036580204964,10.01449935078621,0.2077289696599212,0.5621042858834737,10.011048552266487,0.00230381975191174,-0.0010879570638817615,-0.004318196992663559,0.0016464423388242722,0.0011220183223485947,-0.0007306499173864722,STATIONARY,0,0.0,0.0,0.0,0.005049505545862883,0.00733176500069081,0.05406656055191566
1769098465.354207,0.055655717849731445,0.018668334931135178,0.05899859592318535,1.0208460092544556,0.1831363656744361,0.5787762260064483,10.01449935078621,0.20306217219144823,0.5652680243800702,10.011703390518084,-0.0023629777165612154,0.002075781432714696,-0.0036633587410666024,-0.00048529356718063354,-0.00010143546387553215,0.00017441320233047009,STATIONARY,0,0.0,0.0,0.0,0.005042186083137049,0.007338194856003133,0.05405521308233579
1769098465.404003,0.0520472526550293,0.020850349217653275,0.05875580012798309,1.0208460092544556,0.20454192582517863,0.5763943992555142,10.01449935078621,0.20334297655506636,0.5673794127524707,10.012233963868875,-0.002082173352943084,0.004187169805115243,-0.0031327853902762826,6.082095205783844e-05,0.003450019285082817,-0.0004370457027107477,STATIONARY,0,0.0,0.0,0.0,0.005036545649366794,0.00734953754941393,0.05404672662827312
1769098465.4542453,0.04796338081359863,0.021092794835567474,0.05584229528903961,1.0218209028244019,0.20692031733691693,0.5478129167854786,10.024063056707382,0.2040218280062774,0.5636663909878972,10.01447870300043,-0.0014033219017320353,0.0004741480405416887,-0.0008880462587210758,-0.00021626800298690796,-0.0013991035521030426,0.0013389408122748137,STATIONARY,0,0.0,0.0,0.0,0.005033317327120003,0.007350628320295267,0.05404468369037721
1769098465.511586,0.05771684646606445,0.022305024787783623,0.057056255638599396,1.0208460092544556,0.21881229316815734,0.55972186781466,10.01449935078621,0.2068285297860376,0.5629178614393361,10.014482621212363,0.0014033798780281603,-0.00027438150801939454,-0.0008841280467883905,-0.0005043130367994308,-0.0004717600531876087,0.00040855584666132927,STATIONARY,0,0.0,0.0,0.0,0.005037992314398225,0.007349714291186362,0.05404173845264382
1769098465.5772157,0.06598854064941406,0.022547468543052673,0.05681345984339714,1.019627571105957,0.22119066640734675,0.5573400410637259,10.002546472549438,0.2095539501142691,0.5618593904444037,10.01221756671076,0.004128800206259664,-0.0013328525029517868,-0.0031491825483911384,0.0025255829095840454,0.000730020459741354,-0.07884874939918518,STATIONARY,0,0.0,0.0,0.0,0.005055971123274157,0.007343910401626861,0.05402802537661095
1769098465.638198,0.06053447723388672,0.022789916023612022,0.05681345984339714,1.021089792251587,0.22356907619163396,0.5573400410637259,10.016890861988069,0.21221352024099416,0.5610017794219458,10.013104391163447,0.006788370332984711,-0.002190463525409636,-0.0022623580957041867,0.002242043614387512,0.0022223256528377533,-0.0015420096460729837,STATIONARY,0,0.0,0.0,0.0,0.005080846583206695,0.007335883616848303,0.05401973513972018
1769098465.694494,0.056307077407836914,0.019638117402791977,0.05584229528903961,1.0220645666122437,0.1926499317213893,0.5478129167854786,10.02645339846611,0.20850105020604282,0.5584990045714163,10.015637555749167,0.0030759002980333683,-0.004693238375939157,0.00027080649001653967,-0.000765020027756691,-0.001404867973178625,-4.2575993575155735e-06,STATIONARY,0,0.0,0.0,0.0,0.005090598685010978,0.007321003765748061,0.05402059372816714
1769098465.7468963,0.05241513252258301,0.019395673647522926,0.058513008058071136,1.0193839073181152,0.19027155848219993,0.5740126090496779,10.00015613079071,0.20504174407162165,0.5614429323534752,10.012699734490097,-0.0003834058363877957,-0.0017493105938802822,-0.0026670147690541768,0.00039606355130672455,0.00011821882799267769,0.0029685948975384235,STATIONARY,0,0.0,0.0,0.0,0.005089545336475004,0.007316197804079908,0.05401326651549644
1769098465.7994294,0.052411794662475586,0.020607901737093925,0.059969767928123474,1.02157723903656,0.20216351604089142,0.5883034233748913,10.021672714948656,0.2044955592391644,0.5665400937429186,10.014402485549455,-0.0009295906688450428,0.003347850795563101,-0.0009642637096956008,-0.0019741076976060867,-0.0001456444151699543,0.002009127289056778,STATIONARY,0,0.0,0.0,0.0,0.00508699175442178,0.007325394337559578,0.05401061768673107
1769098465.8513107,0.051912784576416016,0.021577686071395874,0.05632787570357323,1.0191402435302734,0.21167710036039353,0.5525764606520533,9.997765789031982,0.20585835912583225,0.5638902951450313,10.011245435029823,0.0004332092178228053,0.0006980521976758247,-0.004121314229328377,0.0031765922904014587,0.0007702019065618515,0.0004507587291300297,STATIONARY,0,0.0,0.0,0.0,0.005088159226059347,0.007327275544396366,0.05399951100369135
1769098465.916974,0.06582880020141602,0.021335240453481674,0.05632787570357323,1.0191402435302734,0.20929870884865523,0.5525764606520533,9.997765789031982,0.2065112145691439,0.5617433336357208,10.008687479887872,0.0010860646611344504,-0.0014489093116346607,-0.006679269371279162,-0.0016482751816511154,-0.001062312163412571,0.0007511749863624573,STATIONARY,0,0.0,0.0,0.0,0.005092865612260357,0.007320996795961931,0.05397056685116826
1769098465.9802928,0.06309199333190918,0.02472948282957077,0.05244319513440132,1.0218209028244019,0.24259622655808927,0.514467744268477,10.024063056707382,0.21335886041824634,0.5527721160733253,10.011605214952445,0.007933710510236891,-0.010420126874030156,-0.003761534306706338,0.0004582870751619339,0.0019205710850656033,0.002823185408487916,STATIONARY,0,0.0,0.0,0.0,0.005124446537323173,0.007279518442859788,0.05395559368912661
1769098466.0326436,0.052289724349975586,0.02618415839970112,0.05050085484981537,1.029862880706787,0.256866593901068,0.4954133860766888,10.102954859733583,0.22161507357064233,0.5418874787205213,10.02894011333336,0.016189923662632888,-0.02130476422683414,0.013573364074209948,0.0022902321070432663,0.0019070273265242577,0.0015531240496784449,STATIONARY,0,0.0,0.0,0.0,0.005168713273863715,0.0072212666311317125,0.05399270618847883
1769098466.0806596,0.0484926700592041,0.009212944656610489,0.0682247132062912,1.021089792251587,0.0903789870813489,0.6692844365537167,10.016890861988069,0.1967111538164751,0.5660628690394163,10.026653595984145,-0.008713996091534337,0.0028706260920607907,0.011286846724994248,0.0019691139459609985,0.001258007250726223,0.0005954121006652713,STATIONARY,0,0.0,0.0,0.0,0.005148221971777536,0.007228017020483623,0.054019247649298045
1769098466.1283662,0.04722285270690918,0.012122295796871185,0.06191210821270943,1.0213334560394287,0.11891972176730634,0.6073577815666795,10.019281203746797,0.18194911973622005,0.5738991678452193,10.025254579375325,-0.023476030171789397,0.010706924897863845,0.009887830116174001,-0.0010540876537561417,-0.0015017585828900337,0.003268165746703744,STATIONARY,0,0.0,0.0,0.0,0.005095870475724344,0.007251893439640977,0.054041297488879675
1769098466.186351,0.05793499946594238,0.019153228029608727,0.05414274334907532,1.024745225906372,0.18789316697046163,0.5311403122544289,10.052750666141511,0.18307708750252957,0.5657850649570633,10.03047235412537,-0.022348062405479874,0.0025928220097077848,0.01510560486621948,-0.001619553193449974,-0.0011665448546409607,0.0022331017535179853,STATIONARY,0,0.0,0.0,0.0,0.00502086000514521,0.007260596153797907,0.05409199891027537
1769098466.231747,0.045626163482666016,0.028851065784692764,0.05462832748889923,1.0181653499603271,0.283028955347836,0.5359038926661015,9.98820208311081,0.20204438043763026,0.5601146862007197,10.022450967131181,-0.0033807694703791857,-0.00307755674663579,0.007084217872030507,0.0005970858037471771,-0.0008021281100809574,-0.0005036471411585808,STATIONARY,0,0.0,0.0,0.0,0.005013822099138498,0.007254189459906793,0.05410674645811951
1769098466.2813566,0.049735069274902344,0.03200286254286766,0.054385535418987274,1.02303946018219,0.3139480815455318,0.5335221024602652,10.036017104387284,0.22327970425089294,0.555068364040067,10.025025335223356,0.017854554342883494,-0.008123878907288495,0.009658585964205102,-0.00332670658826828,0.0013115615583956242,-0.002848878037184477,STATIONARY,0,0.0,0.0,0.0,0.005057986716173493,0.007234094418950361,0.05413063771533136
1769098466.3354256,0.0548250675201416,0.020850349217653275,0.059241387993097305,1.0206023454666138,0.20454192582517863,0.5811580162122846,10.012109009027482,0.2197239434630747,0.5600192477603313,10.022574278050701,0.014298793555065248,-0.0031729951870241857,0.007207528791550288,0.002313215285539627,0.0027441070415079594,-0.0006568742101080716,STATIONARY,0,0.0,0.0,0.0,0.005100965858664561,0.0072245570680024365,0.0541523020190887
1769098466.391656,0.05573105812072754,0.01648632250726223,0.06555400043725967,1.0227956771850586,0.16173082379624248,0.6430847442895175,10.033625593185425,0.20871892161952535,0.5757821108206502,10.024671422766424,0.0032937717115159026,0.012589867873294747,0.009304673507273264,0.0007850863039493561,0.00029567210003733635,0.0002558238338679075,STATIONARY,0,0.0,0.0,0.0,0.005111196151676261,0.007263660578689617,0.05418120187757762
1769098466.436467,0.04502677917480469,0.021577686071395874,0.05608508735895157,1.0201150178909302,0.21167710036039353,0.5501947069913149,10.007328325510025,0.2092802782398866,0.5709265358890157,10.021380322628374,0.00385512833187715,0.00773429294166017,0.006013573369223479,0.002320980653166771,0.001517296303063631,0.0002321557840332389,STATIONARY,0,0.0,0.0,0.0,0.005119012080656913,0.007279341168061369,0.0541933938614307
1769098466.4937613,0.057755470275878906,0.021820131689310074,0.05681345984339714,1.0206023454666138,0.21405549187213183,0.5573400410637259,10.012109009027482,0.2101864431544899,0.568348304657646,10.019620958598946,0.004761293246480447,0.005156061710290483,0.004254209339794812,-0.0013397838920354843,-0.001786098349839449,0.0005247171502560377,STATIONARY,0,0.0,0.0,0.0,0.005134894299622597,0.007296540213960074,0.0542075846034755
1769098466.5496044,0.05468916893005371,0.017940998077392578,0.05729904770851135,1.0218209028244019,0.1760011911392212,0.5621036580204964,10.024063056707382,0.2036993038642331,0.5671632938659885,10.020463910090353,-0.0017258460437763468,0.0039710509186330345,0.005097160831201819,-0.00225154310464859,-0.0017871307209134102,0.00021702249068766832,STATIONARY,0,0.0,0.0,0.0,0.0051297324577188694,0.007308417250795169,0.05422282972830191
1769098466.5990963,0.049479007720947266,0.018425889313220978,0.057056255638599396,1.01719069480896,0.1807579741626978,0.55972186781466,9.978640716075898,0.19934585924983933,0.5657511771060608,10.012527362335373,-0.006079290658170117,0.0025589341587053394,-0.0028393869237781644,0.003529191017150879,0.004884067457169294,0.0016709091141819954,STATIONARY,0,0.0,0.0,0.0,0.00511484930730312,0.007314681962277063,0.05421587842015574
1769098466.6443722,0.045195579528808594,0.019153228029608727,0.06118372827768326,1.0206023454666138,0.18789316697046163,0.6002123744040728,10.012109009027482,0.19717254749447805,0.5722906809506244,10.012447973826562,-0.008252602413531401,0.009098438003268927,-0.0029187754325885606,0.0008199010044336319,-0.0023647770285606384,0.0031116653699427843,STATIONARY,0,0.0,0.0,0.0,0.005097992208134285,0.00733326679940082,0.054209916411512495
1769098466.695743,0.054410696029663086,0.02303236350417137,0.05584229528903961,1.02303946018219,0.22594748597592115,0.5478129167854786,10.036017104387284,0.2026330026028481,0.5676456759764784,10.01692055261081,-0.0027921473051613355,0.004453433029122933,0.0015538033516584449,-0.00011337175965309143,-0.0005396786145865917,0.0018168474780395627,STATIONARY,0,0.0,0.0,0.0,0.005089725989465771,0.007346451294064214,0.054214516483381534
1769098466.7538488,0.0552210807800293,0.02400214597582817,0.05584229528903961,1.0208460092544556,0.23546105202287437,0.5478129167854786,10.01449935078621,0.20886259333747328,0.5638821269663769,10.01646109502135,0.003437443429463838,0.0006898840190213695,0.0010943457621994668,0.0005515683442354202,-0.0014024004340171814,-2.5317305698990822e-05,STATIONARY,0,0.0,0.0,0.0,0.005100208018645046,0.007348555004151692,0.05421785354606983
1769098466.79657,0.04329681396484375,0.018910780549049377,0.06045534834265709,1.0225520133972168,0.1855147571861744,0.5930669672414661,10.031235251426697,0.20443200832461686,0.5694203667881526,10.019264701981882,-0.0009931415833925872,0.006228123840797073,0.0038979527227311905,-0.0012433752417564392,-0.00017464766278862953,0.0014719759346917272,STATIONARY,0,0.0,0.0,0.0,0.005098346261430012,0.0073602303329171215,0.054225160703203074
1769098466.8535979,0.05634641647338867,0.019638117402791977,0.05972697585821152,1.0206023454666138,0.1926499317213893,0.585921633169055,10.012109009027482,0.20219619119448498,0.5725517175071917,10.017906807153645,-0.0032289587135244657,0.009359474559836212,0.0025400578944942964,-0.0039046257734298706,-0.0007896129973232746,0.001453195814974606,STATIONARY,0,0.0,0.0,0.0,0.005088094580192325,0.007389945903245661,0.054233225180382844
1769098466.9052463,0.05173182487487793,0.020365456119179726,0.058513008058071136,1.02157723903656,0.19978512452915312,0.5740126090496779,10.021672714948656,0.20173865689609466,0.5728289425198911,10.018621441885886,-0.0036864930119147876,0.009636699572535656,0.003254692626734723,-0.001107117161154747,0.00013255607336759567,-0.0009774467907845974,STATIONARY,0,0.0,0.0,0.0,0.0050782288550386525,0.007415735462337154,0.05424193532924554
1769098466.9479015,0.04266166687011719,0.023274807259440422,0.05632787570357323,1.0191402435302734,0.22832585921511056,0.5525764606520533,9.997765789031982,0.2067839578552527,0.5689857451436839,10.014663784209644,0.0013588079472432457,0.005793502196328459,-0.000702965049507398,0.0007517673075199127,0.0013646646402776241,-0.0009448674391023815,STATIONARY,0,0.0,0.0,0.0,0.0050807019097167784,0.007426279739575474,0.0542406559203285
1769098466.999504,0.05160212516784668,0.021577686071395874,0.056570667773485184,1.0213334560394287,0.21167710036039353,0.5549582508578896,10.019281203746797,0.20771250145597697,0.5663238279729524,10.015540005443457,0.0022873515479675255,0.0031315850255969613,0.0001732561843059699,-0.0004845801740884781,-0.0013481858186423779,-0.000933562230784446,STATIONARY,0,0.0,0.0,0.0,0.005086792622120481,0.007434618459426211,0.05424111726331345
1769098467.0535085,0.054028987884521484,0.018668334931135178,0.0609409362077713,1.0213334560394287,0.1831363656744361,0.5978305841982365,10.019281203746797,0.203048829064154,0.5723026844730097,10.016249951197123,-0.002376320843855445,0.009110441525654212,0.000883201937972089,-0.0011194981634616852,-0.0019240360707044601,-1.6688951291143894e-05,STATIONARY,0,0.0,0.0,0.0,0.005079855829015448,0.007461213036552603,0.05424369544593956
1769098467.1077058,0.05452561378479004,0.019880564883351326,0.059241387993097305,1.0223082304000854,0.19502834150567652,0.5811580162122846,10.028843740224838,0.20152682712178493,0.5739831100093916,10.018639802340488,-0.0038983227862245118,0.010790867062036136,0.003273053081336741,0.0009795352816581726,-8.839229121804237e-05,0.002971719019114971,STATIONARY,0,0.0,0.0,0.0,0.00506826594946481,0.007493294743572319,0.054253426372046956
1769098467.1577752,0.04968833923339844,0.021335240453481674,0.05754183977842331,1.02157723903656,0.20929870884865523,0.5644854482263327,10.021672714948656,0.20300165256075173,0.5721807931830908,10.019215340778397,-0.0024234973472577193,0.008988550235735304,0.003848591519245659,0.0009115561842918396,-0.0003756512887775898,-0.000710734399035573,STATIONARY,0,0.0,0.0,0.0,0.005062282501600582,0.007515486854395704,0.05426292827916981
1769098467.2151945,0.057469844818115234,0.020850349217653275,0.05487111955881119,1.0218209028244019,0.20454192582517863,0.5382856828719378,10.024063056707382,0.20329394138772697,0.5657487124206363,10.020135264038196,-0.0021312085202824793,0.002556469473280809,0.004768514779044608,-0.0012057796120643616,-8.301902562379837e-05,-0.0006971390685066581,STATIONARY,0,0.0,0.0,0.0,0.00505524358219518,0.007523930318474202,0.054278677649019696
1769098467.2696376,0.054364919662475586,0.020123012363910675,0.056570667773485184,1.021089792251587,0.19740675128996374,0.5549582508578896,10.016890861988069,0.20217676307424393,0.5637010683917891,10.019519592461359,-0.003248386833765521,0.0005088254444336471,0.00415284320220799,0.0006059221923351288,0.0011310395784676075,0.00174867978785187,STATIONARY,0,0.0,0.0,0.0,0.005045642830387557,0.0075254341747128225,0.054290951561863435
1769098467.3192658,0.04960203170776367,0.020365456119179726,0.057784635573625565,1.0232830047607422,0.19978512452915312,0.5668672749772669,10.038406276702881,0.20172291553884997,0.5643019012635945,10.023103610252162,-0.0037022343691594795,0.0011096583162389928,0.007736860993011518,-0.0018318090587854385,-0.0013141008093953133,0.0008096849778667092,STATIONARY,0,0.0,0.0,0.0,0.005036533995298299,0.007528164335367222,0.05430998703716476
1769098467.3675933,0.04833078384399414,0.020850349217653275,0.05827021971344948,1.0227956771850586,0.20454192582517863,0.5716308553889394,10.033625593185425,0.20225786295944856,0.5656926748709319,10.025100306630685,-0.003167286948560888,0.002500431923576407,0.009733557371534474,0.0015173982828855515,-0.001590787898749113,0.001082996721379459,STATIONARY,0,0.0,0.0,0.0,0.005029135641624985,0.007534005005949681,0.0543327233099129
1769098467.4196754,0.052031755447387695,0.020123012363910675,0.05729904770851135,1.023526668548584,0.19740675128996374,0.5621036580204964,10.04079661846161,0.20133729530944316,0.5650116077191246,10.028078905739594,-0.004087854598566282,0.0018193647717691386,0.012712156480443326,0.0005507823079824448,0.0014248513616621494,-0.0010249132756143808,STATIONARY,0,0.0,0.0,0.0,0.005018068578256464,0.007538930578700405,0.05436713897659756
1769098467.4727945,0.053154945373535156,0.021335240453481674,0.05827021971344948,1.0206023454666138,0.20929870884865523,0.5716308553889394,10.012109009027482,0.2028480871138487,0.5662677044011564,10.025048389996249,-0.002577062794160756,0.0030754614538008873,0.009681640737097652,0.002634519711136818,0.0004663676954805851,-0.002827877178788185,STATIONARY,0,0.0,0.0,0.0,0.005010787220777896,0.00754762013578354,0.054394493951162255
1769098467.5250025,0.05227255821228027,0.019880564883351326,0.058513008058071136,1.0201150178909302,0.19502834150567652,0.5740126090496779,10.007328325510025,0.20136417882053176,0.567737410554625,10.021685754948155,-0.004060971087477688,0.004545167607269529,0.006319005689004342,0.0016458109021186829,-0.0001396811567246914,0.0014301927294582129,STATIONARY,0,0.0,0.0,0.0,0.00499969094076997,0.007560039444211699,0.05441176013084846
1769098467.5694993,0.044342994689941406,0.015516539104282856,0.05827021971344948,1.0213334560394287,0.15221724861301483,0.5716308553889394,10.019281203746797,0.19203784763530923,0.5684762472596417,10.02122945705201,-0.013387302272700213,0.005284004312286261,0.005862707792859467,-0.0001906510442495346,-0.00011483719572424889,0.002283420879393816,STATIONARY,0,0.0,0.0,0.0,0.004973367472539951,0.007570429388115886,0.054423287980088254
1769098467.6282852,0.05879855155944824,0.017940998077392578,0.05948418006300926,1.0203588008880615,0.1760011911392212,0.5835398064181209,10.009719836711884,0.18899466327049427,0.5713347725214837,10.019045342384931,-0.016430486637515174,0.008142529574128199,0.0036785931257803384,-0.0010347235947847366,0.0014056283980607986,0.0028079107869416475,STATIONARY,0,0.0,0.0,0.0,0.004916562849498846,0.007598580308612867,0.054436005868513694
1769098467.6773794,0.049158573150634766,0.01721366122364998,0.057056255638599396,1.0206023454666138,0.1688660166040063,0.55972186781466,10.012109009027482,0.1851749653904977,0.5691310581722667,10.017729074169814,-0.02025018451751176,0.0059388152249112425,0.0023623249106634603,-0.0013207215815782547,-0.0007180827669799328,0.001813422772102058,STATIONARY,0,0.0,0.0,0.0,0.0048676269559875494,0.007612931843492867,0.05444171458095369
1769098467.7240167,0.04658365249633789,0.023274807259440422,0.05608508735895157,1.024745225906372,0.22832585921511056,0.5501947069913149,10.052750666141511,0.19336346312672376,0.5655376153711084,10.02437492089885,-0.012061686781285691,0.0023453724237528784,0.00900817163969947,0.001370476558804512,-0.0007294779643416405,0.0011624748585745692,STATIONARY,0,0.0,0.0,0.0,0.0048414526532507,0.007618021387680436,0.054461262643830666
1769098467.7769382,0.053046226501464844,0.02472948282957077,0.05754183977842331,1.0220645666122437,0.24259622655808927,0.5644854482263327,10.02645339846611,0.20270608239075258,0.5653379516441379,10.024769341670838,-0.002719067517256868,0.0021457086967824335,0.009402592411687394,0.0004138033837080002,0.000165451318025589,0.0008436173666268587,STATIONARY,0,0.0,0.0,0.0,0.00483380146332865,0.0076240592019871,0.054487720618796295
1769098467.8265057,0.049504995346069336,0.020850349217653275,0.05948418006300926,1.0218209028244019,0.20454192582517863,0.5835398064181209,10.024063056707382,0.2030544598743793,0.5687920132730273,10.024635314022468,-0.002370690033630135,0.005599770325671827,0.0092685647633175,0.0004101041704416275,0.0028575840406119823,0.0011309392284601927,STATIONARY,0,0.0,0.0,0.0,0.004827991507615294,0.007637782808673589,0.054510435503508065
1769098467.8776085,0.05114340782165527,0.021092794835567474,0.05899859592318535,1.0225520133972168,0.20692031733691693,0.5787762260064483,10.031235251426697,0.2037880614820129,0.5706866600837728,10.025887746306106,-0.0016370884259965524,0.007494417136417297,0.01052099704695486,0.0019282139837741852,-0.001986933406442404,0.0004976924974471331,STATIONARY,0,0.0,0.0,0.0,0.004823709460280165,0.0076573855670938025,0.0545379547301133
1769098467.9282289,0.05063319206237793,0.020123012363910675,0.05875580012798309,1.0227956771850586,0.19740675128996374,0.5763943992555142,10.033625593185425,0.20257711683103682,0.5717697850238201,10.027356113147174,-0.0028480330769726225,0.008577542076464661,0.011989363888023519,-0.000503120943903923,-0.00047472771257162094,-0.0013055508024990559,STATIONARY,0,0.0,0.0,0.0,0.004816407900525828,0.007679375984453428,0.05456869210375994
1769098467.9816332,0.053354501724243164,0.020365456119179726,0.057056255638599396,1.02303946018219,0.19978512452915312,0.55972186781466,10.036017104387284,0.20204729645845176,0.5694835208459695,10.028999659801187,-0.003377853449557683,0.006291277898614056,0.013632910542035859,0.0019412767142057419,0.000727151520550251,-0.0003459964646026492,STATIONARY,0,0.0,0.0,0.0,0.00480679215546976,0.007697285383204244,0.054607500949111584
1769098468.0322983,0.05100393295288086,0.021335240453481674,0.05729904770851135,1.0223082304000854,0.20929870884865523,0.5621036580204964,10.028843740224838,0.2034233554152596,0.5680830865864693,10.028970071837072,-0.002001794492749842,0.004890843639113851,0.013603322577921517,-0.0026127761229872704,0.0010334965772926807,0.001141797169111669,STATIONARY,0,0.0,0.0,0.0,0.004801584684920885,0.007710008429601904,0.054642888648472304
1769098468.090435,0.0578150749206543,0.020850349217653275,0.05802742764353752,1.0208460092544556,0.20454192582517863,0.5692490651831031,10.01449935078621,0.20363562010916514,0.5683043476601757,10.026224046064161,-0.0017895297988443082,0.005112104712820198,0.010857296805010463,0.0004015956073999405,0.0007037967443466187,0.0005334237357601523,STATIONARY,0,0.0,0.0,0.0,0.0047956030332375575,0.0077270960633370545,0.05467918006298355
1769098468.1410394,0.05083322525024414,0.022305024787783623,0.05972697585821152,1.0213334560394287,0.21881229316815734,0.585921633169055,10.019281203746797,0.20651561034742333,0.5716474789309727,10.024906542681038,0.0010904604394138817,0.008455235983617193,0.0095397934218866,-0.0007827039808034897,-0.0017271027900278568,-0.00039534782990813255,STATIONARY,0,0.0,0.0,0.0,0.0047984208013211165,0.0077489445350765705,0.05470383104935256
1769098468.2015636,0.06026268005371094,0.022789916023612022,0.057784635573625565,1.02157723903656,0.22356907619163396,0.5668672749772669,10.021672714948656,0.20975174879284475,0.5707403670316754,10.024292877731858,0.004326598884835303,0.007548124084319929,0.008926128472706907,-0.0022883955389261246,0.0016085202805697918,-0.0024539832957088947,STATIONARY,0,0.0,0.0,0.0,0.004814133237192648,0.007776356231603589,0.0547362470936732
1769098468.2544463,0.052918195724487305,0.018183445557951927,0.05754183977842331,1.0213334560394287,0.1783796009235084,0.5644854482263327,10.019281203746797,0.20379843614878354,0.5695534069495505,10.023341841091732,-0.0016267137592259062,0.006361164002194997,0.007975091832580716,-0.0001604948192834854,0.0006842906586825848,-0.0024731308221817017,STATIONARY,0,0.0,0.0,0.0,0.00480957789300401,0.007794169624590542,0.054758580025959146
1769098468.3097296,0.05529451370239258,0.01697121374309063,0.057056255638599396,1.0220645666122437,0.16648760681971908,0.55972186781466,10.02645339846611,0.19671817397068014,0.5676877321323176,10.023932303496052,-0.008706975937329303,0.00449548918496212,0.008565554236900752,0.0022522956132888794,-0.0011302190832793713,0.0003170417621731758,STATIONARY,0,0.0,0.0,0.0,0.004782956459955922,0.007807914507454268,0.05478476906452761
1769098468.3573148,0.04768800735473633,0.019638117402791977,0.05559949949383736,1.0191402435302734,0.1926499317213893,0.5454310900345445,9.997765789031982,0.19594616696234013,0.5634642167591631,10.018966834059315,-0.009478982945669318,0.00027197381180765756,0.0036000848001638275,-0.00044976361095905304,0.000964124221354723,0.0012275606859475374,STATIONARY,0,0.0,0.0,0.0,0.004761399868374995,0.00780853301562286,0.054792956183139244
1769098468.4082074,0.05125927925109863,0.023274807259440422,0.05511391535401344,1.0201150178909302,0.22832585921511056,0.5406675096228719,10.007328325510025,0.20209067552777507,0.559138216339852,10.0167582610157,-0.0033344743802343757,-0.004054026607503536,0.0013915117565499457,0.0019878093153238297,0.006958163809031248,2.0777108147740364e-05,STATIONARY,0,0.0,0.0,0.0,0.004752638491227479,0.007797881005133607,0.05479661239935629
1769098468.4564545,0.04776430130004883,0.02424459159374237,0.06045534834265709,1.0181653499603271,0.23783944353461267,0.5930669672414661,9.98820208311081,0.20887451428408585,0.5655766808842961,10.011339318847785,0.0034493643760764026,0.002384437936940653,-0.004027430411365884,0.0019922126084566116,-0.0006903945468366146,-0.004754422232508659,STATIONARY,0,0.0,0.0,0.0,0.00476050796934841,0.007803320929748592,0.05478742410491989
1769098468.5122185,0.055753469467163086,0.019638117402791977,0.05754183977842331,1.0225520133972168,0.1926499317213893,0.5644854482263327,10.031235251426697,0.20579566826699422,0.5653696039188514,10.015114855909536,0.0003705183589847727,0.002177360971495901,-0.0002518933496151732,-0.0019074231386184692,-0.0030394953209906816,-0.0016938999760895967,STATIONARY,0,0.0,0.0,0.0,0.004761659706903385,0.007810089146061758,0.054786641107199094
1769098468.5608082,0.04859638214111328,0.02424459159374237,0.059969767928123474,1.0213334560394287,0.23783944353461267,0.5883034233748913,10.019281203746797,0.21187643179197516,0.5697216233570138,10.015905479852863,0.006451281883965709,0.006529380409658336,0.0005387305937123443,-0.0076151443645358086,0.004188244696706533,-0.00016622664406895638,STATIONARY,0,0.0,0.0,0.0,0.004776895108115245,0.00782550898540458,0.054787913377871485
1769098468.6049345,0.04816484451293945,0.019880564883351326,0.023793673142790794,0.9309219717979431,0.19502834150567652,0.2334159335307777,9.132344543337823,0.20867926628875683,0.5059028206454158,9.84823718640156,0.0032541163807473794,-0.057289422301939674,-0.16712956285759084,0.38333860039711,0.4366808235645294,-0.048424579203128815,STATIONARY,0,0.0,0.0,0.0,0.0047844441773129765,0.007692605990350634,0.05440019748594359
1769098468.6624405,0.05357193946838379,0.036609333008527756,0.05802742764353752,0.9962327480316162,0.3591375568136573,0.5692490651831031,9.773043258190155,0.23723087350151068,0.5179236743061436,9.83396806573306,0.03180572359350123,-0.04526856864121187,-0.18139868352609057,-0.023192208260297775,0.1498796045780182,-0.10034812986850739,STATIONARY,0,0.0,0.0,0.0,0.0048757250995648425,0.007562687339625894,0.05387959184467092
1769098468.7080986,0.04574894905090332,-0.032335471361875534,0.09153279662132263,1.0220645666122437,-0.317210974059999,0.8979367348551751,10.02645339846611,0.13201762271510814,0.5900365741846435,9.870494903803847,-0.0734075271929013,0.02684433123728802,-0.14487184545530418,-0.027299214154481888,0.0016410262323915958,0.005388254299759865,STATIONARY,0,0.0,0.0,0.0,0.004722085616101629,0.007618871621305541,0.05357637994862618
1769098468.7615001,0.0530853271484375,0.054550331085920334,0.06045534834265709,0.543687641620636,0.5351387479528785,0.5930669672414661,5.333575764298439,0.20851560755062865,0.5906116345017374,9.009549768941069,0.0030904576426191988,0.02741939155438189,-1.005816980318082,-0.8452478051185608,0.20994608104228973,0.8236422538757324,STATIONARY,0,0.0,0.0,0.0,0.004730794686313939,0.007696140891375056,0.05074193543739187
1769098468.8215933,0.060092926025390625,-0.12489883601665497,-0.062236279249191284,1.072509765625,-1.2252575813233852,-0.6105378994345665,10.52132080078125,-0.06356331065383874,0.36267637365909206,9.296429890642152,-0.2689884605618482,-0.20051586928826343,-0.7189368586169991,-0.22705213725566864,-0.09334851801395416,0.4604828655719757,STATIONARY,0,0.0,0.0,0.0,0.00375943438208779,0.006972046053302126,0.04814573958480053
1769098468.8727946,0.05120515823364258,-0.010860768146812916,-0.01978052407503128,1.0371737480163574,-0.10654413552023471,-0.19404694117605686,10.174674468040466,-0.07171953537887248,0.257030181907865,9.463089329102658,-0.2771446852868819,-0.3061620610394905,-0.5522774201564928,-0.08502598106861115,0.4833082854747772,0.4849174916744232,STATIONARY,0,0.0,0.0,0.0,0.0030327698222264083,0.006169298856107197,0.046697685735151644
1769098468.9163086,0.04357337951660156,0.09770569950342178,0.27824029326438904,1.070560336112976,0.9584929121285678,2.7295372769236566,10.502196897268297,0.1237779745576388,0.7262236784002022,9.660274815090585,-0.08164717535037065,0.1630314354528467,-0.3550919341685663,-0.08869117498397827,-0.2943231761455536,0.5075194835662842,STATIONARY,0,0.0,0.0,0.0,0.002877751278003548,0.0064788367633037474,0.04602349419743005
1769098468.9693172,0.05299830436706543,0.009455390274524689,0.22215521335601807,1.030106544494629,0.0927573785930872,2.1793426430225376,10.10534520149231,0.11789137390309504,1.001973733558739,9.7447332707213,-0.08753377600491441,0.4387814906113836,-0.27063347853785125,0.1394670009613037,-0.23109862208366394,0.5108792781829834,STATIONARY,0,0.0,0.0,0.0,0.002631884634020338,0.007711295106383961,0.04526333339831329
1769098469.0194721,0.050112247467041016,0.029578402638435364,0.01772385649383068,1.0037872791290283,0.29016412988305096,0.173871032204479,9.847153208255769,0.15058258716252168,0.8448294314508119,9.764168915091824,-0.054842562745487766,0.2816371885034564,-0.25119783416732666,-0.0419599786400795,-0.21643786132335663,0.46323177218437195,STATIONARY,0,0.0,0.0,0.0,0.0024941619422926644,0.008418552932232034,0.044632516015868255
1769098469.0693684,0.04994678497314453,0.017940998077392578,0.18160885572433472,1.0264511108398438,0.1760011911392212,1.7815828746557236,10.069485397338868,0.15540612991385422,1.022591761943029,9.822107073542817,-0.05001901999415523,0.45939951899567344,-0.19325967571633385,-0.04440344125032425,-0.07380083203315735,0.6700096726417542,STATIONARY,0,0.0,0.0,0.0,0.002369380427010688,0.009564608334892656,0.04415039471118045
1769098469.1232162,0.05383634567260742,0.035881996154785156,0.06239769235253334,1.1188122034072876,0.3520023822784424,0.6121213619783521,10.975547715425492,0.19271307363513884,0.944699147376111,10.040988891456404,-0.012712076272870604,0.38150690442875557,0.02562214219725334,0.044477447867393494,-0.32028496265411377,0.5796015858650208,STATIONARY,0,0.0,0.0,0.0,0.0023325363538543357,0.010670349678375997,0.04422465670121844
1769098469.167782,0.04459524154663086,0.0009697836940176785,0.05608508735895157,1.0179216861724854,0.009513578038313427,0.5501947069913149,9.985811741352082,0.15794835564181875,0.8698363014255261,10.030518240012727,-0.0474767942661907,0.30664405847817067,0.015151490753575914,0.1101454570889473,-0.40672239661216736,0.5411170721054077,STATIONARY,0,0.0,0.0,0.0,0.002238117564413946,0.011280183624372114,0.04425478900979742
1769098469.2281125,0.06029462814331055,0.04000357538461685,0.08691974729299545,1.0788459777832031,0.39243507452309134,0.8526827209442854,10.583479042053224,0.20244555596723068,0.8665811647993946,10.135450441281469,-0.002979593940778763,0.30338892185203914,0.12008369202231783,0.2872963845729828,-0.5233976244926453,0.6660390496253967,STATIONARY,0,0.0,0.0,0.0,0.0022272854229136063,0.012383136508709734,0.044691346329258544
1769098469.2765107,0.04843401908874512,0.15177114307880402,0.042974285781383514,0.9643084406852722,1.4888749136030675,0.4215777435153723,9.45986580312252,0.4465638800425331,0.7821354167551531,10.007248617637245,0.24113873013452367,0.2189431738077976,-0.008118131621905889,0.35937848687171936,-0.3493010401725769,0.4516253173351288,STATIONARY,0,0.0,0.0,0.0,0.0027929617270094826,0.012896745273662271,0.04467230237605583
1769098469.3313773,0.05479145050048828,0.19080494344234467,0.08691974729299545,0.9616277813911438,1.8717964951694013,0.8526827209442854,9.43356853544712,0.7170221025302715,0.7955227742221278,9.898384637358525,0.5115969526222621,0.23233053127477232,-0.1169821119006258,0.42687907814979553,0.07341769337654114,0.7976804971694946,STATIONARY,0,0.0,0.0,0.0,0.004328828497797407,0.013594225469733517,0.04432111002136363
1769098469.3767276,0.045377254486083984,0.157589852809906,0.10173008590936661,1.1180812120437622,1.545956456065178,0.9979721427708864,10.968376690149308,0.8743242225046427,0.8339404302456593,10.101430894932445,0.6688990725966333,0.27074818729830386,0.08606414567329423,0.4119128882884979,-0.0710519403219223,0.7427026033401489,STATIONARY,0,0.0,0.0,0.0,0.005706155383983935,0.014151721769294237,0.04449832429273695
1769098469.4289582,0.052345991134643555,0.14740711450576782,0.041517529636621475,0.8741406202316284,1.4460637933015823,0.4072869657352567,8.575319484472276,0.9828199630612662,0.7529768482977068,9.811829481794302,0.7773948131532568,0.18978460535035135,-0.20353726746484924,-0.07891732454299927,0.7768290042877197,0.13489167392253876,STATIONARY,0,0.0,0.0,0.0,0.007836297078779439,0.014671751095509198,0.043940611258721445
1769098469.4829845,0.05389976501464844,0.13625460863113403,0.07793641835451126,1.1568288803100586,1.336657710671425,0.7645562640577556,11.348491315841676,1.0499657238669085,0.755174207641487,10.103432988330816,0.844540573958899,0.19198196469413153,0.08806623907166511,0.1251116693019867,0.6403006315231323,0.11045707762241364,STATIONARY,0,0.0,0.0,0.0,0.01028984340628446,0.015229494155992885,0.04419645994629673
1769098469.5371811,0.054297685623168945,0.01648632250726223,0.11314133554697037,1.0427788496017456,0.16173082379624248,1.1099165017157793,10.229660514593125,0.881410479147574,0.8224916190438463,10.127386462324877,0.6759853292395646,0.2592993760964908,0.11201971306572567,-0.0016428735107183456,-0.040814109146595,0.006609984673559666,STATIONARY,0,0.0,0.0,0.0,0.012282809490267277,0.01599397060216006,0.04452672079549093
1769098469.5842004,0.05096292495727539,0.07273378223180771,0.12163908034563065,1.029862880706787,0.7135184036940336,1.1932793781906368,10.102954859733583,0.8495505625171229,0.892853886364066,10.122750217167955,0.6441254126091135,0.32966164341671056,0.10738346790880371,-0.0640210509300232,0.011471988633275032,0.12783777713775635,STATIONARY,0,0.0,0.0,0.0,0.013955744714178197,0.016850174323435774,0.04480561925596723
1769098469.6367583,0.0485539436340332,0.06982442736625671,0.1347498744726181,1.006711721420288,0.6849776324629784,1.3218962685763838,9.875841987133027,0.8183205010803933,0.9742707995286017,10.075895857883665,0.6128953511723839,0.41107855658124626,0.06052910862451455,-0.08234700560569763,0.24512794613838196,-0.08321616798639297,STATIONARY,0,0.0,0.0,0.0,0.01540063658229207,0.017819286036265803,0.044948315748392
1769098469.6874275,0.05072140693664551,0.07297622412443161,0.1498030126094818,0.9362832903862,0.7158967586606741,1.4695675536990167,9.184939078688622,0.7988841346786089,1.0682604250220882,9.906824097767482,0.5934589847705994,0.5050681820747327,-0.10854265149166942,0.06212262436747551,0.48764145374298096,-0.16079604625701904,STATIONARY,0,0.0,0.0,0.0,0.016927405439695058,0.01911865531206322,0.04466907228886044
1769098469.7421448,0.05466651916503906,0.12049561738967896,0.10707152634859085,1.0669047832489014,1.1820620065927505,1.0503716734796762,10.466335923671723,0.8715976026659438,1.0648657791984275,10.012999449277705,0.6661724527579344,0.501673536251072,-0.00236729998144547,-0.20787982642650604,0.23382693529129028,-0.5615236759185791,STATIONARY,0,0.0,0.0,0.0,0.018918214061936296,0.02061787071399728,0.04466199778255958
1769098469.7983773,0.056159257888793945,0.01575898379087448,0.13912014663219452,1.1734004020690918,0.15459563098847867,1.3647686384618283,11.511057944297791,0.7355362490862482,1.1217766254522157,10.297277421480667,0.5301110991782387,0.5585843825048602,0.28191067222151567,-0.3111160397529602,0.3636358082294464,-0.5193739533424377,STATIONARY,0,0.0,0.0,0.0,0.02059011144414881,0.022379568909530943,0.04555110520859831
1769098469.8519456,0.05404782295227051,-0.029373442754149437,0.006798191927373409,1.070560336112976,-0.288153473418206,0.06669026280753315,10.502196897268297,0.5412765192786507,0.9215589352427245,10.336163815593748,0.3358513693706413,0.358366692295369,0.32079706633459715,-0.1697007417678833,0.3840997815132141,-0.6256645321846008,STATIONARY,0,0.0,0.0,0.0,0.021571189436970156,0.02342641792440919,0.04648820706568555
1769098469.9056058,0.05431723594665527,-0.012588618323206902,0.23526600003242493,1.180954933166504,-0.1234943457506597,2.307959460318089,11.585167894363403,0.415126763365677,1.184648214626478,10.57318015905843,0.20970161345766755,0.6214559716791226,0.5578134097992784,0.04135320335626602,-0.17820167541503906,-0.13880489766597748,STATIONARY,0,0.0,0.0,0.0,0.022189885134004047,0.025259938083048817,0.04813395862047883
1769098469.9575806,0.05164790153503418,-0.03900003433227539,0.13280753791332245,0.9418883323669434,-0.3825903367996216,1.3028419469296932,9.239924540519715,0.26374856259416657,1.2070771615988105,10.320175883907405,0.05832341268615712,0.643884918651455,0.304809134648254,-0.1996331363916397,0.15899594128131866,-0.17209705710411072,STATIONARY,0,0.0,0.0,0.0,0.0223454631717109,0.02697750479492616,0.048947038734615464
1769098470.009623,0.0513157844543457,-0.008886083029210567,0.0922611802816391,1.079089641571045,-0.08717247451655567,0.9050821785628796,10.585869383811952,0.19715628921844736,1.1497693050108935,10.370595016158552,-0.00826886068956209,0.586577062063538,0.3552282668994007,0.026387006044387817,-0.21485358476638794,-0.09421174228191376,STATIONARY,0,0.0,0.0,0.0,0.02232368870036662,0.028522143882295903,0.04988246478769217
1769098470.0527995,0.04329037666320801,-0.007158233784139156,0.1107134148478508,0.9974511861801147,-0.07022227342240513,1.0860985996574164,9.784996136426926,0.14641739227232728,1.1376868802812932,10.259469274001066,-0.05900775763568217,0.5744946373339377,0.24410252474191552,0.2649298906326294,-0.19591675698757172,-0.1330016851425171,STATIONARY,0,0.0,0.0,0.0,0.0222131048161305,0.029598779413194148,0.050339926762513615
1769098470.109149,0.0563044548034668,-0.01456330344080925,0.10998503863811493,0.9867285490036011,-0.14286600675433875,1.0789532290399075,9.679807065725328,0.09152174010610264,1.126541332006322,10.149470099950719,-0.1139034098019068,0.5633490890589665,0.13410335069156787,0.8247878551483154,-0.40177834033966064,0.059726301580667496,STATIONARY,0,0.0,0.0,0.0,0.021852009179666523,0.03138470398050016,0.050765060082526944
1769098470.1667686,0.05770158767700195,0.007273377384990454,0.07186660170555115,1.000862956047058,0.07135183214675636,0.7050113627314568,9.818465598821641,0.0876942123071121,1.0465500063761246,10.086657273426368,-0.11773093760089735,0.4833577634287691,0.07129052416721748,0.7560655474662781,-0.4845505952835083,0.22221645712852478,STATIONARY,0,0.0,0.0,0.0,0.021460027175706248,0.03299403070973128,0.05100241997361331
1769098470.2189357,0.0520632266998291,-0.01826583780348301,-0.10324468463659286,0.9957453608512878,-0.17918786885216834,-1.012830356284976,9.768261989951133,0.03704952980541244,0.6557532014195556,10.026237225847309,-0.168375620102597,0.09256095847220014,0.010870476588157985,0.954596757888794,-0.5548000335693359,0.2866627275943756,STATIONARY,0,0.0,0.0,0.0,0.021003631659029586,0.03324492455315271,0.05103188526541714
1769098470.2728462,0.05406665802001953,0.086553193628788,0.12285304069519043,0.9128884077072144,0.8490868294984103,1.2051883292198182,8.955435279607773,0.19114519274332614,0.7600163557004831,9.823037279436754,-0.014279957164683305,0.1968241127531276,-0.19232946982239696,0.6232023239135742,-0.443928062915802,0.20358507335186005,STATIONARY,0,0.0,0.0,0.0,0.020961888438130936,0.033820281490297775,0.05046966708426093
1769098470.3192859,0.04840207099914551,0.035639550536870956,0.14883184432983398,0.825401246547699,0.3496239907667041,1.4600403928756716,8.097186228632927,0.22121880568234853,0.8928559039844934,9.49553241986164,0.015793655774339083,0.32966366103713796,-0.5198343293975114,0.7673665285110474,-0.16354089975357056,0.05147961899638176,STATIONARY,0,0.0,0.0,0.0,0.0209988891906665,0.03459260448608079,0.04925181976275735
1769098470.3751864,0.053902387619018555,-0.05652536079287529,0.18039488792419434,0.9153253436088562,-0.5545137893781066,1.7696738505363465,8.97934162080288,0.07401247840701075,1.059244618888168,9.397577851255637,-0.1314126715009987,0.4960523759408124,-0.6177888980035142,0.25790491700172424,-0.13177591562271118,0.21702410280704498,STATIONARY,0,0.0,0.0,0.0,0.020617073958852088,0.03603386848862024,0.04745685426506721
1769098470.4266243,0.05129742622375488,0.1733488291501999,0.22239799797534943,0.8980228900909424,1.7005520139634611,2.181724360138178,8.809604551792145,0.3826715610883808,1.2722511641881087,9.286001529078227,0.17724641118037135,0.7090589212407532,-0.7293652201809238,0.07067473232746124,0.08294322341680527,-0.04106646403670311,STATIONARY,0,0.0,0.0,0.0,0.02108348476250447,0.03789970452496314,0.045537583707004975
1769098470.477896,0.05124211311340332,0.13140568137168884,0.26367270946502686,0.9053338170051575,1.2890897342562677,2.5866292798519135,8.881324744820596,0.5546773412983346,1.521673163843633,9.20920833574913,0.34925219139032515,0.9584809208962775,-0.8061584135100208,-0.7124544978141785,0.8040696382522583,-0.11039967089891434,STATIONARY,0,0.0,0.0,0.0,0.022000535155653866,0.0404164397867665,0.0434208099020732
1769098470.525821,0.0480344295501709,0.09576613456010818,0.2908655107021332,1.106627345085144,0.9394657800346613,2.8533906599879266,10.856014255285263,0.6276964373181062,1.7743855583259514,9.521713253930772,0.4222712874100968,1.2111933153785959,-0.4936534953283793,-0.4436737895011902,0.2124466598033905,-0.34130674600601196,STATIONARY,0,0.0,0.0,0.0,0.02297484440901021,0.043211033901877756,0.04228180002195545
1769098470.5816762,0.05601358413696289,-0.03949370235204697,0.7596979737281799,1.0637367963790894,-0.3874332200735808,7.452637122273446,10.435257972478867,0.43506110199194736,2.8519148040952507,9.69507139780091,0.22963595208393792,2.288722561147895,-0.32029535145824006,-1.8795125484466553,1.7652661800384521,0.11928566545248032,STATIONARY,0,0.0,0.0,0.0,0.023695332170617048,0.05039195039189569,0.04127686643585535
1769098470.6332145,0.051346778869628906,-0.137981116771698,-0.044144339859485626,0.8156533241271973,-1.3535947555303574,-0.433055974021554,8.001559109687806,0.09563813430698315,2.228544732330125,9.373703279822891,-0.1097870156010263,1.6653524893827694,-0.64166346943626,0.2808123826980591,0.05973034352064133,-0.32725682854652405,STATIONARY,0,0.0,0.0,0.0,0.02340587961518571,0.05478263840820494,0.03958512602430956
1769098470.688245,0.05524730682373047,-0.112557053565979,0.05608508735895157,0.6867377161979675,-1.104184695482254,0.5501947069913149,6.736896995902062,-0.1320453654956927,1.9100538700332506,8.873331668182328,-0.33747051540370215,1.346861627085895,-1.1420350810768234,-0.4427575170993805,0.8110946416854858,0.2918550968170166,STATIONARY,0,0.0,0.0,0.0,0.02237583020242896,0.058893616892902526,0.036099332418893196
1769098470.7381225,0.04968619346618652,0.07200643420219421,0.23113854229450226,1.3958956003189087,0.7063831195235253,2.2674690999090674,13.693735839128495,0.02705840138042523,1.9778785091386748,9.788072132236701,-0.17836674852758422,1.4146862661913193,-0.22729461702244969,-0.9946742653846741,-0.8614544868469238,0.7154901623725891,STATIONARY,0,0.0,0.0,0.0,0.02193549303163667,0.06238607808959837,0.03553820614719629
1769098470.7902012,0.0535430908203125,-0.013575960882008076,0.023793673142790794,1.0342494249343872,-0.13318017625249923,0.2334159335307777,10.145986858606339,-0.0033491548462518325,1.6468418472017068,9.855991557928135,-0.2087743047542613,1.0836496042543513,-0.15937519133101574,-0.5261406302452087,-0.3733731210231781,0.3462221026420593,STATIONARY,0,0.0,0.0,0.0,0.021336965790800164,0.06549275258400686,0.03508129937585093
1769098470.8486521,0.05694699287414551,0.018183445557951927,0.026707183569669724,1.0288881063461304,0.1783796009235084,0.26199747081846,10.09339232325554,0.031136469281864664,1.3840478692338272,9.901041740141347,-0.17428868062614478,0.8208556262864717,-0.1143250091178043,-0.1196097880601883,-0.8067820072174072,-0.03953929990530014,STATIONARY,0,0.0,0.0,0.0,0.02077175457152856,0.06815475454370117,0.03471054794457859
1769098470.9015636,0.05282258987426758,0.14086107909679413,0.10610035806894302,0.9545605182647705,1.3818471859395505,1.040844512656331,9.3642386841774,0.2874530983325257,1.3189201358472933,9.799175701712896,0.08202794842451624,0.7557278928999378,-0.21619104754625518,-0.20085486769676208,-0.48760491609573364,0.034986257553100586,STATIONARY,0,0.0,0.0,0.0,0.02100063108603339,0.07026340616017046,0.03410732606252618
1769098470.9514446,0.04993152618408203,0.21723154187202454,0.16582731902599335,1.0654425621032715,2.1310414257645607,1.6267659996449948,10.451991534233093,0.6373002859033956,1.3773382805341643,9.923056819645037,0.4318751359953862,0.8141460375868088,-0.09230992961411388,0.289059042930603,-0.36023950576782227,0.181288480758667,STATIONARY,0,0.0,0.0,0.0,0.02207736373708286,0.07229320030280346,0.03387718288699348
1769098471.011231,0.059816837310791016,0.21941354870796204,0.11119899898767471,1.0400981903076172,2.152446912825108,1.090862180069089,10.203363246917725,0.9248209749307525,1.3229753533216781,9.976248963346654,0.7193958250227431,0.7597831103743227,-0.03911778591249693,0.9222208857536316,-0.12749984860420227,0.49221888184547424,STATIONARY,0,0.0,0.0,0.0,0.02465140086499642,0.07501174531966302,0.03373721733562632
1769098471.0620766,0.05077552795410156,0.27469122409820557,0.25808849930763245,1.0332746505737305,2.6947209084033967,2.5318481782078743,10.136424322128297,1.2606847384368716,1.552376218810115,10.006644522894359,1.055259588528862,0.9891839758627594,-0.008722226364792363,0.5034727454185486,0.3095742166042328,0.5710204839706421,STATIONARY,0,0.0,0.0,0.0,0.02737202284642623,0.07756201418020203,0.03371473009075026
1769098471.1151657,0.053105831146240234,0.13916395604610443,0.1682552546262741,0.8985102772712708,1.3651984088122846,1.650584047883749,8.814385820031166,1.2805176984852125,1.5710125555061218,9.780396424093158,1.075092548577203,1.0078203125587664,-0.23497032516599248,0.5046944618225098,-0.075270876288414,0.2503162622451782,STATIONARY,0,0.0,0.0,0.0,0.030404030353998444,0.08040429855656195,0.0330520598946794
1769098471.163169,0.0480349063873291,0.20729126036167145,0.1811232715845108,1.0074427127838135,2.033527264147997,1.776819294244051,9.883013012409211,1.4234120067433012,1.610067320422587,9.799869385755102,1.2179868568352916,1.0468750774752316,-0.21549736350404913,-0.08479046821594238,0.10523980110883713,0.29949089884757996,STATIONARY,0,0.0,0.0,0.0,0.0332143550462249,0.08281980810282216,0.03255483157208591
1769098471.216155,0.05302262306213379,0.15710493922233582,0.1850079447031021,1.0340057611465454,1.5411994537711144,1.8149279375374319,10.14359651684761,1.4457638552881615,1.6489425452627722,9.86509651282854,1.240338705380152,1.0857503023154167,-0.150270236430611,0.06975844502449036,-0.02426362782716751,0.21274805068969727,STATIONARY,0,0.0,0.0,0.0,0.036701441491964214,0.08587228493535078,0.03213236204631664
1769098471.277185,0.0610044002532959,0.19104738533496857,0.0883764997124672,0.9494429230690002,1.8741748501360418,0.8669734621793033,9.314035075306894,1.5270609536923034,1.500552755409208,9.760524743075448,1.321635803784294,0.9373605124618525,-0.25484200618370245,0.10977010428905487,0.38623782992362976,-0.07741294801235199,STATIONARY,0,0.0,0.0,0.0,0.04161995783837618,0.08936070662446022,0.031183958129308704
1769098471.3208094,0.04356980323791504,0.1588020622730255,0.042974285781383514,0.9184934496879578,1.5578482308983803,0.4215777435153723,9.010420741438866,1.5329032787836723,1.295801853185772,9.61818180704496,1.3274781288756627,0.7326096102384165,-0.39718494221419043,0.07678338885307312,0.5578908920288086,-0.29854616522789,STATIONARY,0,0.0,0.0,0.0,0.0441399464135019,0.09075143978056259,0.030429970929956904
1769098471.3748653,0.05646347999572754,0.1595294177532196,0.18549352884292603,1.0366864204406738,1.5649835881590843,1.8196915179491044,10.16989378452301,1.5389909751768385,1.3952173913987924,9.72287702603602,1.333565825268829,0.8320251484514369,-0.29248972322313094,0.3192968964576721,0.7173267602920532,-0.4760025143623352,STATIONARY,0,0.0,0.0,0.0,0.04839152039105843,0.09340403960188423,0.029497477255932606
1769098471.4265451,0.049286842346191406,0.04145825281739235,0.23672275245189667,1.0318124294281006,0.40670546013861897,2.3222502015531066,10.122079932689667,1.3241236444017912,1.5711350930855663,9.798631472994051,1.1186984944937817,1.0079428501382108,-0.21673527626509959,0.24324417114257812,0.7466483116149902,-0.6250536441802979,STATIONARY,0,0.0,0.0,0.0,0.05110905475108985,0.09585252714493582,0.028970985477155493
1769098471.4725895,0.04678153991699219,-0.03208863362669945,0.20273180305957794,1.1141819953918457,-0.3147894958779216,1.9887989880144596,10.930125374794008,1.013116493690192,1.650392775951404,10.013348583863207,0.8076913437821825,1.0872005330040486,-0.002018165395943683,0.0630389153957367,0.4543492794036865,-0.7527244687080383,STATIONARY,0,0.0,0.0,0.0,0.0528766973345262,0.09823187907642181,0.028966568697005812
1769098471.5288434,0.05558037757873535,-0.06368359178304672,0.27993983030319214,0.9699134826660156,-0.6247360353916884,2.746209735274315,9.514851264953613,0.7023106090851018,1.8583396779832602,9.918751605548064,0.49688545917709237,1.2951474350359047,-0.09661514371108737,0.5874667167663574,0.6296676397323608,-0.5245662927627563,STATIONARY,0,0.0,0.0,0.0,0.0544116651482754,0.10223282052102022,0.028668107284665675
1769098471.5716658,0.0427861213684082,-0.12391149997711182,0.19860433042049408,1.0064680576324463,-1.215571814775467,1.948308481425047,9.873451645374299,0.33836505676441503,1.8754125420195975,9.910155291811396,0.13293990685640558,1.312220299072242,-0.10521145744775495,0.9326055645942688,0.5804929733276367,-0.521511971950531,STATIONARY,0,0.0,0.0,0.0,0.054655031878804,0.10463503947445628,0.028475501700543616
1769098471.6283572,0.05670285224914551,-0.14513936638832092,0.3573906719684601,0.8851069808006287,-1.4238171842694283,3.5060024920105937,8.682899481654168,0.003965835506734183,2.1848402486271103,9.67726599259807,-0.20145931440127526,1.6216480056797549,-0.3381007566610812,0.2911970913410187,0.3129339814186096,-0.269835501909256,STATIONARY,0,0.0,0.0,0.0,0.054007297180870904,0.109848983958654,0.02738843559919372
1769098471.681609,0.05318641662597656,-0.1572342962026596,0.30737540125846863,0.8773086667060852,-1.5424684457480908,3.0153526863455773,8.606398020386695,-0.2894921323107178,2.34244183258981,9.474053516817367,-0.4949172822187272,1.7792495896424545,-0.5413132324417838,-0.11258484423160553,0.12264946103096008,0.004748430103063583,STATIONARY,0,0.0,0.0,0.0,0.052607277690321405,0.11488211614770281,0.025857171480645688
1769098471.7295642,0.04796767234802246,-0.2949686050415039,0.15757237374782562,0.941400945186615,-2.8936420154571536,1.5457849864661695,9.235143272280693,-0.7836667259960732,2.191264830149329,9.428716889388484,-0.9890918759040827,1.6280725872019737,-0.5866498598706666,-0.3984697759151459,-0.2512000799179077,-0.35780009627342224,STATIONARY,0,0.0,0.0,0.0,0.0503314785762832,0.11862814444073416,0.024507350231609597
1769098471.7776327,0.048044443130493164,-0.3569243550300598,0.4394545555114746,0.9813672304153442,-3.501427922844887,4.311049189567566,9.627212530374527,-1.2994006873469708,2.5935241552732715,9.466384269199231,-1.5048258372549803,2.030331912325916,-0.5489824800599195,-0.06646451354026794,-0.5095961093902588,0.42655089497566223,STATIONARY,0,0.0,0.0,0.0,0.046857936474506756,0.12331469567041602,0.023240151257205847
1769098471.8376431,0.060045719146728516,-0.10046210885047913,0.44139689207077026,0.7537543177604675,-0.9855332878232003,4.330103511214256,7.394329857230187,-1.2398398703469393,2.923064863808693,9.073182382566053,-1.4452650202549489,2.3598726208613376,-0.9421843666930982,-3.4628751277923584,-4.970439434051514,0.7005239725112915,STATIONARY,0,0.0,0.0,0.0,0.041647050226614926,0.1318231890017315,0.01984311646388215
1769098471.886439,0.04878735542297363,0.17577329277992249,-0.20190608501434326,1.6386176347732544,1.7243360021710397,-1.9806986939907074,16.074838997125628,-0.6773452086941879,1.992505766812084,10.401846617684425,-0.8827703586021973,1.4293135238647285,0.3864798684252744,0.859912633895874,-4.594757556915283,0.8309436440467834,STATIONARY,0,0.0,0.0,0.0,0.039545874879044166,0.13522524969739133,0.020763018184589466
1769098471.938381,0.05228376388549805,0.6795759201049805,0.31514474749565125,0.5088390707969666,6.666639776229859,3.091569972932339,4.991711284518242,0.7162807186933856,2.201068880252146,9.375196251915195,0.5108555687853762,1.6378766373047906,-0.6401704973439557,1.4445106983184814,-0.7218717336654663,0.13150297105312347,STATIONARY,0,0.0,0.0,0.0,0.04094234555767986,0.13970253611448333,0.01901305325615771
1769098472.000502,0.061760663986206055,0.4017328917980194,0.22118403017520905,1.0330308675765991,3.9409996685385704,2.169815336018801,10.134032810926438,1.3282171464322499,2.19513807434013,9.51919631529476,1.1227919965242403,1.6319458313927746,-0.49617043396439087,0.09755280613899231,0.3779911398887634,0.34958186745643616,STATIONARY,0,0.0,0.0,0.0,0.04522510046224901,0.14592739702819194,0.017120470866773606
1769098472.0562136,0.055748939514160156,0.4085213840007782,0.20783044397830963,0.8834010362625122,4.007594777047634,2.0388166554272176,8.666164165735244,1.8366672784727232,2.1654738548666064,9.357321294721908,1.6312421285647136,1.602281611919251,-0.658045454537243,0.15711216628551483,0.04812390357255936,0.19869814813137054,STATIONARY,0,0.0,0.0,0.0,0.05029491006742229,0.15090719896197854,0.015075302275530235
1769098472.1093848,0.057405710220336914,0.4046422243118286,0.18427956104278564,0.8824263215065002,3.969540220499039,1.8077824938297273,8.656602213978768,2.2414103488811152,2.0975968159338123,9.224349852004705,2.0359851989731057,1.5344045729864568,-0.7910168972544458,0.12717977166175842,-0.28449222445487976,-0.024267667904496193,STATIONARY,0,0.0,0.0,0.0,0.05700432738406291,0.15596369967618826,0.01246857287942699
1769098472.163164,0.04966473579406738,0.083643838763237,0.3260704278945923,0.8665859699249268,0.820546058267355,3.1987508976459504,8.501208364963531,1.9717810782925442,2.3065565130836507,9.087123437792393,1.7663559283845347,1.7433642701362952,-0.9282433114667583,0.09358218312263489,-0.7649377584457397,0.8226969838142395,STATIONARY,0,0.0,0.0,0.0,0.06136119615534594,0.16026385754554487,0.010178980939947034
1769098472.2163742,0.05381488800048828,0.6073270440101624,0.3355393409729004,0.6891747117042542,5.957878301739693,3.291640934944153,6.7608039218187335,2.7281998960171583,2.4934903363129464,8.645671120078791,2.5227747461091488,1.9302980933655909,-1.3696956291803595,-0.5908923149108887,-0.22768175601959229,0.4696168899536133,STATIONARY,0,0.0,0.0,0.0,0.06866725820676332,0.1658540822255772,0.0062122846370842
1769098472.2682,0.05135393142700195,0.6805456876754761,0.4093482792377472,1.064224123954773,6.67615319609642,4.0157066193223,10.440038655996323,3.477380360084065,2.782352593445586,8.98617796022766,3.2719552101760554,2.2191603504982305,-1.0291887890314904,-1.4995542764663696,0.533761739730835,0.24420760571956635,STATIONARY,0,0.0,0.0,0.0,0.07729614445114902,0.1717065102059315,0.0034980809227638113
1769098472.3189645,0.050531625747680664,0.46307170391082764,0.2690141797065735,0.7939643263816833,4.54273341536522,2.639029102921486,7.788790041804314,3.6795463016960412,2.755154916325044,8.758956519595499,3.4741211517880317,2.1919626733776885,-1.2564102296636523,-0.019122455269098282,1.3602625131607056,0.5279545187950134,STATIONARY,0,0.0,0.0,0.0,0.08616712243284524,0.17730356677438933,0.00028990625171417027
1769098472.3727765,0.054107666015625,0.06279349327087402,-0.05162234231829643,1.168526291847229,0.6160041689872742,-0.506415178142488,11.463242923021317,3.098195474515488,2.136225458139489,9.272133446649754,2.8927703246074783,1.5730332151921336,-0.7432333026093971,2.4970314502716064,-0.1516290307044983,0.4183042049407959,STATIONARY,0,0.0,0.0,0.0,0.09463611116224675,0.18190884098406723,-0.0018860129388178133
1769098472.4228272,0.05005145072937012,0.5091363787651062,0.3119884431362152,0.5112760066986084,4.994627875685692,3.0606066271662713,5.0156176257133485,3.4580705790036,2.3116399730913986,8.464398841994415,3.2526454290955904,1.748447730144043,-1.5509679072647362,1.4558117389678955,0.12539835274219513,0.015133139677345753,STATIONARY,0,0.0,0.0,0.0,0.10278446844328663,0.18628896082897706,-0.005771416655672924
1769098472.4787483,0.05576467514038086,0.7333989143371582,0.45596444606781006,0.8056617975234985,7.194643349647523,4.473011215925217,7.9035422337055214,4.167138571848039,2.7217910026627457,8.357968298840719,3.961713421940029,2.15859875971539,-1.657398450418432,-0.5142287015914917,0.5639996528625488,1.4115711450576782,MOVING,0,0.22092366197377233,0.12037355859395778,-0.0924242861657545,0.11510420468407737,0.19300155321946072,-0.010925426948787821
1769098472.516182,0.03743267059326172,0.3401516377925873,0.1935056746006012,1.0193839073181152,3.3368875667452813,1.8982906678318978,10.00015613079071,4.009586598454025,2.565520065264514,8.669596869016718,3.804161448546015,2.0023278223171586,-1.3457698802424325,0.02424897626042366,0.6537967920303345,1.3712539672851562,MOVING,0,0.36332358436078066,0.19532603638647905,-0.14280004678720276,0.1287043767362176,0.20031312839780324,-0.016270814060875542
1769098472.5573003,0.04117083549499512,0.3117854595184326,0.2891659438610077,0.8704851269721985,3.058615357875824,2.8367179092764854,8.539459095597268,3.8291262380651734,2.616983725340421,8.644901369837166,3.623701088157164,2.0537914823930654,-1.3704653794219848,1.0071312189102173,0.13578306138515472,1.310472846031189,MOVING,0,0.5125143857443341,0.27988234764910613,-0.19922325147497136,0.14980502220051606,0.21183611849081763,-0.02447300177412963
1769098472.6102579,0.053067684173583984,0.18983514606952667,0.26124483346939087,0.9350647926330566,1.8622827829420567,2.5628118163347247,9.172985615730287,3.455889631536289,2.6067038327369643,8.745112889663575,3.2504644816282795,2.043511589789609,-1.2702538595955755,0.5294345021247864,0.4711480736732483,1.0768169164657593,MOVING,0,0.685009008272836,0.3883267753011196,-0.26663268211626545,0.1861568639075989,0.23244372115864376,-0.03862258073903122
1769098472.6635044,0.053079843521118164,0.4160372018814087,0.291836678981781,1.0071990489959717,4.08132495045662,2.8629178208112718,9.880622670650483,3.5745749063755734,2.655324092374303,8.96059207090293,3.369149756467564,2.0921318494269476,-1.054774678356221,0.4356667101383209,0.6990008354187012,0.8599597811698914,MOVING,0,0.8638429501453476,0.49937680649424954,-0.3226199569934514,0.232009512528135,0.25895056390543425,-0.055747197573033494
1769098472.7220874,0.05901050567626953,0.4698601961135864,0.23453761637210846,0.9160564541816711,4.609328523874283,2.300814016610384,8.986513815522194,3.7709341681067166,2.5880507477093917,8.965511091769487,3.565509018198707,2.024858504762036,-1.0498556574896636,-0.10250556468963623,0.8865364789962769,0.32514724135398865,MOVING,0,1.0742454403025525,0.6188647307831523,-0.38457247022900887,0.29540127918081543,0.29547008461415647,-0.07844101351041942
1769098472.7636635,0.04097247123718262,0.2434156984090805,0.2884375751018524,0.8212583661079407,2.38790800139308,2.8295726117491724,8.056544571518899,3.508485221364009,2.633882967198917,8.79302172634337,3.3030600714559997,2.0706907242515613,-1.2223450229157802,0.14520029723644257,0.5349835157394409,-0.13483427464962006,MOVING,0,1.2095799740749698,0.7037060469236502,-0.434654966522339,0.3449607598776742,0.32430266038116723,-0.09624990162435453
1769098472.8201993,0.05665135383605957,0.2380818873643875,0.2857668697834015,1.0681232213974,2.3355833150446417,2.8033729925751687,10.478288801908494,3.2859103508700596,2.6660461176251244,9.112825197606115,3.08048520096205,2.102853874677769,-0.9025415516530355,0.4420807957649231,0.4693154990673065,-0.9100222587585449,MOVING,0,1.384093631181416,0.8228355658435494,-0.48578516731678134,0.4233715379199692,0.37091740917066446,-0.1237702890263269
1769098472.8668385,0.047054290771484375,0.14813445508480072,0.33456817269325256,1.0386359691619873,1.4531990043818952,3.2821137741208077,10.189018857479097,2.9381272256149753,2.7829537448710653,9.317048298602096,2.7327020757069658,2.21976150192371,-0.6983184506570552,1.0016334056854248,0.10310177505016327,-0.7673852443695068,MOVING,0,1.5126789892435706,0.9272848689984146,-0.5186440467450909,0.49454957492375123,0.41455014102451365,-0.14817471680876976
1769098472.9172976,0.050490379333496094,0.00048489184700883925,0.4399401545524597,1.180223822593689,0.0047567890191567135,4.31581291615963,11.57799569964409,2.3814783349290396,3.073835641896576,9.746095324844656,2.17605318502103,2.5106433989492207,-0.2692714244144945,0.7908848524093628,0.6880052089691162,-0.7533353567123413,MOVING,0,1.6225487400051448,1.0540482065824988,-0.5322396631074495,0.5764726762936971,0.46776943481065525,-0.17504769929539704
1769098472.966657,0.04915189743041992,0.1760157346725464,0.43071404099464417,0.7084267139434814,1.7267143571376802,4.225304742157459,6.949666063785553,2.2572275286375425,3.29234333165948,9.215432975954036,2.051802378729533,2.7291510887121246,-0.7999337733051153,0.16016648709774017,1.565513253211975,-0.49432846903800964,MOVING,0,1.7233987200719505,1.188191160966996,-0.5715579258840713,0.6611809934143906,0.5261712848822366,-0.20314085584399447
1769098473.0208914,0.05407118797302246,0.07734024524688721,0.4389689564704895,1.013778805732727,0.7587078058719635,4.306285462975502,9.945170084238052,1.9728620318895467,3.484753316970369,9.353911003396783,1.7674368819815371,2.9215610740230136,-0.6614557458623676,-0.2668282985687256,0.630278468132019,0.4888591468334198,MOVING,0,1.8189661319480268,1.3461634389751598,-0.6073236238544312,0.7595346530515139,0.5989599412334728,-0.2359795656698846
1769098473.0697076,0.04909348487854004,-0.002221520757302642,0.43751221895217896,0.9601655602455139,-0.021793118629138918,4.2919948679208755,9.419224146008492,1.594347759370408,3.6379389181635364,9.366305104028756,1.3889226094623985,3.074746675216181,-0.649061645230395,1.2554479837417603,-0.5951172113418579,0.35019272565841675,MOVING,0,1.8871531830731314,1.4971134683802265,-0.6391883219197899,0.8521815793082034,0.6724584586548561,-0.26735954788659316
1769098473.1164763,0.04721713066101074,0.18110710382461548,0.3549627363681793,0.5580657720565796,1.776660688519478,3.4821844437718394,5.474625223875046,1.6289442387316393,3.6083822845015003,8.627803324244566,1.4235190888236298,3.045190041554145,-1.3875634250145854,0.42314398288726807,-0.3990294635295868,-0.3086254298686981,MOVING,0,1.9543676698885597,1.6408986044598972,-0.7047050854591432,0.9444612129369866,0.7499369824631092,-0.30063369998419626
1769098473.1709695,0.05377197265625,0.05939924716949463,0.7524141669273376,1.070560336112976,0.5827066147327423,7.381182977557183,10.502196897268297,1.430405722924977,4.324325042486671,8.98349624666433,1.2249805730169674,3.7611327995393156,-1.0318705025948205,-1.0407944917678833,0.1773219108581543,-0.9992086291313171,MOVING,0,2.0202372917652656,1.8431421345132504,-0.7601907979094629,1.053093357348925,0.849046370921738,-0.34151065878291675
1769098473.2202728,0.04937386512756348,-0.3608736991882324,0.5062225461006165,0.6618806719779968,-3.54017098903656,4.966043177247047,6.493049392104149,0.48716787670406514,4.446100213938237,8.510898424852227,0.2817427267960557,3.882907970990882,-1.5044683244069237,-0.7720139026641846,0.39143016934394836,-0.11681375652551651,MOVING,0,2.034148019158766,2.0348563089756952,-0.8344722140474218,1.1535271072963702,0.9495150918750755,-0.38271177733199346
1769098473.271508,0.05131816864013672,0.11273735016584396,0.5421558618545532,0.7652081251144409,1.1059534051269293,5.318549004793168,7.506691707372666,0.604591258924017,4.611659819213757,8.320335873211777,0.3991661090160076,4.048467576266401,-1.6950308760473742,-1.0197197198867798,0.2735331654548645,-0.6629272699356079,MOVING,0,2.054632492856677,2.24261625078866,-0.9214580943946596,1.2589670840582936,1.064602050828159,-0.4299993192149576
1769098473.329708,0.05820274353027344,-0.18882927298545837,0.27993983030319214,1.2289632558822632,-1.8524151679873468,2.746209735274315,12.056129540205003,0.13833923535224069,4.25766405144433,9.02925602002304,-0.06708591455576876,3.6944718084969743,-0.9861107292361115,-0.7875909209251404,-0.2670825719833374,-0.436296284198761,MOVING,0,2.0507279085772936,2.457644645938435,-0.97885244426084,1.3783250745715918,1.2076437118442636,-0.48697121698225254
1769098473.3730655,0.04303431510925293,-0.27843061089515686,0.3561767339706421,0.9033842086791992,-2.731404292881489,3.494093760251999,8.862199087142944,-0.4062355417080613,4.112765694847333,8.997554583610864,-0.6116606916160707,3.5495734518999775,-1.0178121656482872,0.3907681107521057,-1.1473393440246582,-0.16965359449386597,MOVING,0,2.024405509634344,2.610398108370937,-1.0226532937193795,1.465443979182104,1.3199804066004963,-0.5309804010716878
1769098473.4274006,0.0548398494720459,-0.029373442754149437,0.4712603986263275,1.029862880706787,-0.288153473418206,4.623064510524273,10.102954859733583,-0.38382778457537237,4.209602175545817,9.207320056730488,-0.5892529344833818,3.646409932598462,-0.8080466925286629,-0.14099007844924927,0.46259596943855286,-0.5511389374732971,MOVING,0,1.9920909674063139,2.8103666801880096,-1.066966452704036,1.5746899479692884,1.4741004923032601,-0.5894926807296998
1769098473.4678304,0.04084897041320801,-0.0678798034787178,0.4159036874771118,1.0593502521514893,-0.6659008721262217,4.080015174150467,10.39222597360611,-0.43735517726968004,4.185011193215693,9.432172859488483,-0.6427803271776895,3.621818950268337,-0.5831938897706674,0.5385975241661072,0.01910780556499958,-0.4466809928417206,MOVING,0,1.9658340528392402,2.958314255329517,-1.0907893226524417,1.6549922450309953,1.594944583792187,-0.6340503014977726
1769098473.5206048,0.0527498722076416,-0.07207600772380829,0.3624893128871918,0.7530232667922974,-0.7070656357705594,3.5560201594233516,7.3871582472324375,-0.4885365847243554,4.065651170750126,9.044102160627169,-0.6939617346323649,3.5024589278027705,-0.971264588631982,-0.275991290807724,0.027354486286640167,-0.2728898227214813,MOVING,0,1.9292276600203897,3.143068516183627,-1.1420234055825862,1.7567587575565182,1.760741046360735,-0.6942918902003897
1769098473.5714266,0.05011630058288574,-0.14020265638828278,0.3930811583995819,0.9908714294433594,-1.3753880591690542,3.8561261638998987,9.720448722839356,-0.6568293046938547,4.02589081141089,9.172448570230852,-0.8622544546018641,3.4626985684635345,-0.8429181790282989,0.06517694890499115,-0.4286564290523529,-0.34130674600601196,MOVING,0,1.8860146565946305,3.3166061584686735,-1.184267346409547,1.8512788349901428,1.926957077513601,-0.753642988503547
1769098473.6212144,0.04968547821044922,-0.02172153629362583,0.3333542048931122,1.0651990175247192,-0.21308827104046943,3.270204750001431,10.449602361917496,-0.5726231127129876,3.882488599899354,9.414806723332967,-0.778048262620997,3.3192963569519986,-0.6005600259261836,0.009893644601106644,-0.690412163734436,-0.34710994362831116,MOVING,0,1.847356956595497,3.4815269852860355,-1.2141064584917691,1.9430656488039901,2.0999384106801213,-0.8139664484921055
1769098473.6723146,0.0511326789855957,0.06521795690059662,0.5348719954490662,0.9048464298248291,0.6397881571948528,5.247094275355339,8.876543476581574,-0.342550776798764,4.141441995621113,9.312663592870084,-0.5479759267067734,3.5782497526737576,-0.7027031563890667,0.11618418991565704,-0.631769061088562,-0.2884669005870819,MOVING,0,1.8193374794433652,3.66449248121979,-1.2500375534095762,2.0360932481068303,2.287313728367462,-0.8778842174305368
1769098473.7188,0.046500444412231445,0.06376327574253082,0.4950540363788605,0.9937956929206848,0.6255177350342274,4.856480096876622,9.749135747551918,-0.15884596526286274,4.2771306767697395,9.395490411361138,-0.3642711151708722,3.713938433822384,-0.6198763378980132,-0.5429394245147705,-0.028234250843524933,0.10920638591051102,MOVING,0,1.8023987107013806,3.8371922689121973,-1.2788620786024605,2.1199055891624776,2.465744874167058,-0.9373518724275013
1769098473.7772458,0.05840778350830078,0.0872805267572403,0.2471628487110138,0.9935520887374878,0.8562219674885273,2.4246675458550455,9.746745990514755,0.03377765693217549,3.9255993686213775,9.462146168862402,-0.17164749297583395,3.362407125674022,-0.5532205803967489,0.06823126971721649,0.4558764696121216,-0.2893831729888916,MOVING,0,1.7923731610919056,4.033583016375333,-1.3111744664946103,2.2245941327216223,2.701337517750267,-1.0139346668081304
1769098473.829728,0.05283188819885254,-0.012094946578145027,0.3488929271697998,1.0054932832717896,-0.11865142593160272,3.4226396155357364,9.863889108896256,0.004852063755861669,3.830155579755863,9.538382623392936,-0.20057308615214778,3.2669633368085074,-0.4769841258662151,0.033106524497270584,0.41219958662986755,-0.27747130393981934,MOVING,0,1.7817765062286166,4.20618285813535,-1.3363744385050016,2.3187287498940345,2.923558100255204,-1.084537851735031
1769098473.8717706,0.041726112365722656,-0.10268362611532211,0.32170018553733826,0.8975354433059692,-1.00732637219131,3.1558788201212886,8.80482269883156,-0.18722323519617856,3.7022019447211174,9.39917916202151,-0.392648385104188,3.139009701773762,-0.6161875872376417,-0.3266931176185608,0.7881871461868286,-0.2783876061439514,MOVING,0,1.7653928155915397,4.337161529668656,-1.3620855510084429,2.3923917288870467,3.104530989590448,-1.1413723864881367
1769098473.9252348,0.05342888832092285,-0.010613933205604553,0.3051902949810028,0.9323841333389282,-0.10412268474698068,2.9939167937636375,9.146688348054886,-0.17145372015442376,3.5677947322357593,9.35126542778956,-0.3768788700624332,3.004602489288404,-0.664101321469591,-0.2512512505054474,0.2536800503730774,-0.37826406955718994,MOVING,0,1.7452565965324585,4.497694100517613,-1.3975677463470189,2.485638848674533,3.344837785388677,-1.2160428775286354
1769098473.982198,0.056806087493896484,-0.1009557768702507,0.3668595850467682,0.9250732660293579,-0.9903761710971595,3.598892529308796,9.074968739748002,-0.326855938772301,3.573695982902065,9.298834189313926,-0.5322810886803104,3.0105037399547094,-0.7165325599452252,-0.09303714334964752,-0.1461312472820282,-0.7456995248794556,MOVING,0,1.7150197904375384,4.6687090393701824,-1.4382711576394929,2.583062412943892,3.610048879562685,-1.2977454347494521
1769098474.0280516,0.04599928855895996,0.14474020898342133,0.12333863228559494,1.3225427865982056,1.4199014501273632,1.2099519827216865,12.974144736528396,0.004616196726838662,3.125141835375814,9.996276801235615,-0.20080895318117079,2.5619495924284585,-0.019089948023536252,-0.7216175198554993,0.18098708987236023,-0.2548693120479584,MOVING,0,1.705782721454935,4.786556897945809,-1.4391492816672031,2.6615272045669855,3.8302270915151744,-1.3639452778362817
1769098474.0772283,0.04918241500854492,-0.14859506487846375,0.3365105092525482,1.1663330793380737,-1.4577175864577294,3.301168095767498,11.441727508306505,-0.2728825017215282,3.158545329648544,10.270571695120875,-0.4783076516295377,2.5953530867011887,0.25520494586172404,-0.29859331250190735,0.0508727990090847,-0.4457646906375885,MOVING,0,1.6822583960307287,4.914202630549656,-1.4265976861075986,2.744264735152178,4.071919444726951,-1.4341087972846556
1769098474.1308103,0.05354881286621094,0.015274092555046082,0.2986348569393158,1.0505770444869995,0.14983884796500208,2.9296079465746883,10.306160806417466,-0.19266509466081508,3.1151011949648613,10.277325236738598,-0.3980902445688245,2.551908952017506,0.26195848747944694,0.09480391442775726,0.13578306138515472,-0.20080772042274475,MOVING,0,1.6609411360204485,5.05085432547285,-1.412570120082846,2.833206161226729,4.342386697816188,-1.509750250305373
1769098474.1734312,0.04266786575317383,-0.04591142758727074,0.45766401290893555,1.0564258098602295,-0.45039110463112597,4.489683966636658,10.363537194728853,-0.2415722820249091,3.3759478870366184,10.293685185751663,-0.4469974319329185,2.812755644089263,0.278318436492512,0.31776973605155945,0.2072543054819107,-0.293964684009552,MOVING,0,1.6418687096027211,5.170868605691332,-1.4006948663979502,2.9032611949123948,4.5630166253111275,-1.5695149108260005
1769098474.2243388,0.0507664680480957,-0.012588618323206902,0.47878697514533997,1.0956610441207886,-0.1234943457506597,4.696900226175785,10.748434842824937,-0.21916530900113276,3.626617439390918,10.37998042108628,-0.4245904589091422,3.0634251964435624,0.36461367182712934,-0.006905149668455124,-0.2719694972038269,-0.3709337115287781,MOVING,0,1.6203137516369839,5.326387883044315,-1.3821847180772393,2.9855188012127636,4.833418525587461,-1.6396835471528348
1769098474.2861962,0.06193256378173828,0.05091363936662674,0.34816452860832214,1.0400981903076172,0.4994628021866083,3.4154940256476403,10.203363246917725,-0.08279537224925995,3.586553759539284,10.346464792493833,-0.2882205221572694,3.0233615165919283,0.3310980432346824,0.38282686471939087,0.10004744678735733,-0.6766717433929443,MOVING,0,1.602463515765273,5.513632413005898,-1.3616789673965985,3.084763475110805,5.174891916675008,-1.7240158166513762
1769098474.3337831,0.04781317710876465,-0.027892427518963814,0.47101759910583496,0.9757621884346008,-0.27362471396103505,4.620682647228241,9.572227068543434,-0.11900796239776543,3.7827944698760176,10.199542138338927,-0.3244331123057749,3.219602226928662,0.18417538907977615,-0.1040327250957489,-0.05358516052365303,-0.7246246933937073,MOVING,0,1.586951337906649,5.667571824501811,-1.3528729568994515,3.1606406604931268,5.445876532096557,-1.7887009709452677
1769098474.3868341,0.0531916618347168,-0.030360786244273186,0.4076487123966217,0.924342155456543,-0.29783931305631994,3.999033868610859,9.067796545028687,-0.15294376256880537,3.8238289808694645,9.984777265414817,-0.3583689124768148,3.260636737922109,-0.030589483844334353,-0.0182061567902565,-0.052363429218530655,-0.8522955179214478,MOVING,0,1.5678890999021071,5.841010511231218,-1.3545000623797978,3.2440392872894583,5.756569587982995,-1.8607490802184767
1769098474.4410253,0.05396461486816406,-0.05652536079287529,0.30907493829727173,0.9148379564285278,-0.5545137893781066,3.032025144696236,8.97456035256386,-0.2291474043480312,3.6735729063048774,9.793074193455297,-0.43457255425604063,3.110380663357522,-0.222292555803854,-0.017900723963975906,-0.1467421054840088,-0.7670798301696777,MOVING,0,1.5444375593794055,6.008861005822691,-1.3664959945418127,3.3273842653692953,6.080835457958545,-1.9344915102828144
1769098474.491952,0.05098223686218262,-0.02172153629362583,0.3321402370929718,0.9165438413619995,-0.21308827104046943,3.2582957258820535,8.991295083761216,-0.22609995468756283,3.594768136567778,9.640925168423085,-0.43152510459557225,3.0315758936204227,-0.3744415808360664,-0.2598033547401428,-0.4396519958972931,-0.751197338104248,MOVING,0,1.522437444284936,6.16341752609693,-1.385585863907047,3.4050015317616857,6.395060270154547,-2.0051317769894155
1769098474.5323198,0.04024028778076172,-0.025917742401361465,0.27362722158432007,1.016459584236145,-0.254253052957356,2.68428304374218,9.971468521356583,-0.2314424067439895,3.4219906003301057,9.703650485498132,-0.43686755665199895,2.8587983573827502,-0.3117162637610189,-0.1339651197195053,-0.05358516052365303,-0.6500990986824036,MOVING,0,1.5048577680831814,6.278456394705181,-1.3981294160667344,3.4655574414184676,6.647707162296447,-2.061392907046689
1769098474.5976546,0.06535720825195312,-0.062449418008327484,0.24740563333034515,0.9838041663169861,-0.6126287906616926,2.427049262970686,9.651118871569635,-0.3037779614714776,3.233186286756459,9.693681862287633,-0.509203111379487,2.6699940438091034,-0.32168488697151787,0.005312154069542885,-0.07588174194097519,-0.5709920525550842,MOVING,0,1.4715776742902098,6.452959751457887,-1.419153842216038,3.5617356499359776,7.0694545966139515,-2.154144840253962
1769098474.6341698,0.03660154342651367,-0.030607620254158974,0.2779974937438965,0.8807203769683838,-0.30026075469329955,2.727155413627625,8.639866898059845,-0.3031105213053941,3.1371597090471353,9.493705438066765,-0.5085356712134036,2.5739674660997798,-0.5216613111923856,-0.06768624484539032,-0.028539683669805527,-0.6601783633232117,MOVING,0,1.4529644838363611,6.547170933446772,-1.4382474513515782,3.614916392588296,7.3090911578553115,-2.2067869168026792
1769098474.6884198,0.05397820472717285,-0.044924091547727585,0.17189714312553406,0.9392076730728149,-0.4407053380832076,1.6863109740614892,9.213627272844315,-0.3292211008516957,2.8618404623514846,9.44055661034579,-0.5346462507597052,2.298648219404129,-0.5748101389133602,-0.2197916954755783,-0.1464366763830185,-0.33672523498535156,STATIONARY,0,0.0,0.0,0.0,3.6917870367351133,7.669193139420587,-2.2860957257786643
1769098474.747429,0.058965444564819336,-0.03406331688165665,0.21098674833774567,0.9530983567237854,-0.3341611386090517,2.069780001193285,9.349894879460335,-0.3301585434955815,2.7115356895347356,9.423352253441035,-0.5355836934035909,2.14834344658738,-0.5920144958181162,-0.002629093825817108,-0.07924149930477142,-0.4143051207065582,STATIONARY,0,0.0,0.0,0.0,3.689924853123504,7.676662765564207,-2.2881541149819316
1769098474.8096316,0.062195539474487305,-0.026905084028840065,0.10925665497779846,0.9362832903862,-0.26393887432292107,1.071807785332203,9.184939078688622,-0.31759241651527126,2.4003739257445593,9.3781099520954,-0.5230175664232807,1.8371816827972038,-0.6372567971637508,-0.0813993588089943,-0.004387713968753815,-0.04941348358988762,STATIONARY,0,0.0,0.0,0.0,3.6879016720483064,7.683769508149839,-2.2906192059747243
1769098474.8523917,0.04296588897705078,-0.017772166058421135,0.10100170969963074,1.085425853729248,-0.17434494903311135,0.9908267721533776,10.648027625083923,-0.2904091658515567,2.1328922433674076,9.619094948436974,-0.49583431575956616,1.569700000420052,-0.39627180082217706,-0.10377547889947891,0.05398259311914444,-0.012849953956902027,STATIONARY,0,0.0,0.0,0.0,3.6869863283752853,7.6866672804868035,-2.291350750513193
1769098474.9042218,0.051633358001708984,-0.03677850961685181,0.2566317319869995,1.1088205575942993,-0.3607971793413162,2.5175572907924653,10.877529670000078,-0.3037662956357279,2.2058879241254443,9.857900890918518,-0.5091914455437373,1.6426956811780888,-0.15746585834063254,-0.19907045364379883,0.312684029340744,-0.0018543796613812447,STATIONARY,0,0.0,0.0,0.0,3.6856288221185722,7.69104671318268,-2.291770555067623
1769098474.9608366,0.0566709041595459,-0.06047473102807999,0.19423405826091766,0.8760901689529419,-0.5932571113854647,1.9054361115396024,8.59444455742836,-0.35870130808436573,2.148872906146816,9.61814202593057,-0.5641264579923752,1.5856806631994607,-0.3972247233285806,-0.22961372137069702,0.3493359386920929,0.22905267775058746,STATIONARY,0,0.0,0.0,0.0,3.6838170784498354,7.696139271529286,-2.293046278564297
1769098475.014384,0.053708553314208984,0.037336669862270355,0.26877138018608093,1.026938557624817,0.3662727313488722,2.636647239625454,10.074267250299455,-0.2211271409106687,2.241435044991801,9.704698294784723,-0.4265522908186782,1.6782428020444455,-0.3106684544744276,-0.1599750816822052,-0.27466291189193726,0.28586313128471375,STATIONARY,0,0.0,0.0,0.0,3.6825866420011164,7.700980345315274,-2.2939424354906115
1769098475.064597,0.050237417221069336,-0.0446772500872612,0.21390026807785034,1.0530141592025757,-0.4382838233560324,2.098361629843712,10.330068901777269,-0.26233571957505697,2.2142848232416776,9.823371289612467,-0.4677608694830664,1.6510925802943222,-0.19199545964668374,-0.08697668462991714,0.12331579625606537,0.19942571222782135,STATIONARY,0,0.0,0.0,0.0,3.6814061080125855,7.705147369614255,-2.2944269932647727
1769098475.1124547,0.047727346420288086,-0.05010763928294182,0.19083496928215027,1.0237704515457153,-0.4915559413656593,1.8720910486578943,10.043188129663468,-0.3058335269404974,2.1493486724421387,9.865084671134944,-0.5112586768485069,1.5861564294947832,-0.15028207812420646,-0.1645565778017044,0.10193551331758499,0.15880317986011505,STATIONARY,0,0.0,0.0,0.0,3.680241512078976,7.708760474704705,-2.2947693207498663
1769098475.1681676,0.055732011795043945,-0.13650010526180267,0.3093177378177643,1.2131229639053345,-1.3390660326182844,3.0344070079922676,11.900736275911331,-0.5019041360019462,2.317301118723714,10.251378605745138,-0.7073292859099556,1.7541088757763585,0.23601185648598744,-0.07292678207159042,0.46295687556266785,-0.030870478600263596,STATIONARY,0,0.0,0.0,0.0,3.6780445069010477,7.714208837100407,-2.294036254438205
1769098475.2182896,0.050103187561035156,-0.1416836678981781,0.3192722499370575,0.9011909365653992,-1.3899167820811273,3.1320607718825344,8.840683087706566,-0.6704172048555028,2.471913387071534,9.9836790048304,-0.8758423547635122,1.9087211441241787,-0.03168774442875133,-0.18288253247737885,-0.7346444129943848,-0.13349585235118866,STATIONARY,0,0.0,0.0,0.0,3.675845854084812,7.719000355912112,-2.294115801114784
1769098475.2695465,0.051191091537475586,-0.08762665092945099,0.30664700269699097,1.1436693668365479,-0.8596174456179142,3.0082070964574816,11.219396488666534,-0.7063206498565133,2.5736827697199716,10.21817402734684,-0.9117457997645227,2.010490526772616,0.20280727808768972,-0.1703597903251648,0.07902806997299194,0.09252430498600006,STATIONARY,0,0.0,0.0,0.0,3.6734565988218573,7.724268902335306,-2.293584338993805
1769098475.3234062,0.05390739440917969,-0.09355070441961288,0.22846780717372894,0.891686737537384,-0.9177324103564024,2.241269188374281,8.747446895241739,-0.7464390476190524,2.510602550121197,9.939082571193047,-0.9518641975270619,1.9474103071738416,-0.07628417806610344,0.05321688950061798,-0.04955906420946121,-0.05347249284386635,STATIONARY,0,0.0,0.0,0.0,3.670690474637086,7.729928090654755,-2.293806021362374
1769098475.372243,0.04917407035827637,-0.07701272517442703,0.1850079447031021,1.0325435400009155,-0.7554948339611293,1.8149279375374319,10.129252127408982,-0.7481575122761981,2.3785883672065697,9.97516995763057,-0.9535826621842075,1.8153961242592143,-0.04019679162858125,-0.02905862219631672,-0.15022729337215424,0.022200731560587883,STATIONARY,0,0.0,0.0,0.0,3.668384626704546,7.734317880408562,-2.293903220789909
1769098475.417994,0.04554271697998047,-0.003208863316103816,0.18937821686267853,1.0281569957733154,-0.031478949130978436,1.8578003074228764,10.086220128536224,-0.6121575300795596,2.279761402788977,9.996243311910657,-0.8175826799875691,1.7165691598416215,-0.019123437348493866,-0.21201276779174805,0.27065885066986084,0.1898832470178604,STATIONARY,0,0.0,0.0,0.0,3.666688846525095,7.737878283569207,-2.2939428854584647
1769098475.481662,0.06361961364746094,0.09576613456010818,0.16291381418704987,0.8331995010375977,0.9394657800346613,1.5981845171749594,8.173687105178834,-0.31771487000425835,2.1504224646988694,9.65038726930753,-0.5231400199122678,1.587230221751514,-0.3649794799516215,-0.21842685341835022,-0.5204116702079773,0.911620557308197,STATIONARY,0,0.0,0.0,0.0,3.6645714607099062,7.744302526848356,-2.2954201235673253
1769098475.523801,0.042138099670410156,0.002424459205940366,0.12819448113441467,0.9928209781646729,0.02378394481027499,1.257587859928608,9.739573795795442,-0.25291059773591257,1.9809943603888847,9.667311685131137,-0.45833574764392204,1.4178021174415292,-0.34805506412801357,-1.018965721130371,0.42642948031425476,0.41620880365371704,STATIONARY,0,0.0,0.0,0.0,3.663757630844586,7.746820003855594,-2.2960381369067155
1769098475.5805225,0.0568537712097168,-0.1009557768702507,0.3003344237804413,0.9794176816940308,-0.9903761710971595,2.946280697286129,9.608087457418442,-0.3928552116889333,2.1641712145374896,9.65607304297169,-0.5982803615969428,1.6009789715901341,-0.3592937062874615,-0.05868558585643768,0.7388870716094971,0.25524580478668213,STATIONARY,0,0.0,0.0,0.0,3.6618237785395547,7.751994930316913,-2.297199500385591
1769098475.6244497,0.04404854774475098,-0.2135128378868103,0.21438585221767426,1.122711420059204,-2.094560939669609,2.1031252102553846,11.013799030780794,-0.7157781517774802,2.152586864282744,9.913720919810077,-0.9212033016854896,1.5893946213353884,-0.1016458294490743,-0.38274961709976196,-0.04210415482521057,0.13704340159893036,STATIONARY,0,0.0,0.0,0.0,3.66003639121016,7.755078792263983,-2.297396721202441
1769098475.6822433,0.057767629623413086,-0.2675698399543762,0.2522614896297455,1.0883501768112183,-2.624860129952431,2.4746852132678034,10.676715234518051,-1.0780536939735248,2.213709621373859,10.05850997665172,-1.2834788438815343,1.6505173784265037,0.04314322739256937,-0.173528254032135,0.2327852100133896,0.06587759405374527,STATIONARY,0,0.0,0.0,0.0,3.6557532952022553,7.760586732210337,-2.2972527479800586
1769098475.7349026,0.052674055099487305,-0.0794810801744461,0.23210971057415009,1.0993164777755737,-0.7797093965113163,2.2769962607324126,10.78429464697838,-1.0214386070574852,2.22571916410146,10.1962379726027,-1.2268637569654948,1.6625269211541047,0.18087122334354966,-0.5473777651786804,-0.046991076320409775,-0.2792612910270691,STATIONARY,0,0.0,0.0,0.0,3.65234929290527,7.765199506388626,-2.296750910627521
1769098475.7882297,0.053238630294799805,-0.0678798034787178,0.1330503225326538,1.0327872037887573,-0.6659008721262217,1.3052236640453339,10.13164246916771,-0.9539702494039757,2.0510420102735,10.183980054243056,-1.1593953993119852,1.4878497673261446,0.16861330498390537,-0.515612781047821,-0.07997779548168182,-0.4558013379573822,STATIONARY,0,0.0,0.0,0.0,3.6490631585197186,7.769416595988814,-2.296273001210511
1769098475.848069,0.05980944633483887,-0.12514567375183105,0.13159357011318207,0.9806361198425293,-1.2276790595054627,1.2909329228103161,9.620040335655213,-1.0059104011192748,1.906800466465039,10.076964446923457,-1.2113355510272843,1.3436082235176836,0.061597697664305784,-0.5858622789382935,0.24988944828510284,-0.39654740691185,STATIONARY,0,0.0,0.0,0.0,3.644730005483058,7.774222910844248,-2.2960526557823107
1769098475.8966298,0.04825472831726074,-0.12267731875181198,0.06919588893651962,0.9231236577033997,-1.2034644969552757,0.6788116704672575,9.055843082070352,-1.0433991093047952,1.673772072730972,9.883192099622914,-1.2488242592128047,1.1105798297836165,-0.13217464963623726,-0.4731576442718506,-0.23055608570575714,-0.49398040771484375,STATIONARY,0,0.0,0.0,0.0,3.641822094711375,7.776808916862323,-2.2963604269395295
1769098475.9551501,0.05876564979553223,-0.15600013732910156,0.11921115219593048,0.8780397176742554,-1.5303613471984865,1.169461403042078,8.613569630384445,-1.1358071414263835,1.5780719281664877,9.642263122404579,-1.341232291334393,1.0148796852191322,-0.3731036268545722,-0.18666185438632965,-0.2827850878238678,-0.46801865100860596,STATIONARY,0,0.0,0.0,0.0,3.63719028097602,7.780313703986896,-2.2976489035999417
1769098476.015081,0.059871673583984375,-0.09108235687017441,-0.024122590199112892,0.8907119631767273,-0.893517920896411,-0.2366426098532975,8.737884358763695,-1.0898293050949837,1.233703954078413,9.470644349248593,-1.2952544550029932,0.6705117111310575,-0.5447224000105582,-0.4832369089126587,-0.527131199836731,-0.1839662790298462,STATIONARY,0,0.0,0.0,0.0,3.632547289451632,7.782717231864958,-2.29960152493749
1769098476.078715,0.06386160850524902,-0.038506362587213516,0.07696525007486343,0.974299967288971,-0.37774741698056463,0.7550291032344103,9.557882679104805,-0.9547016075661174,1.1428685718855012,9.48719906696645,-1.160126757474127,0.5796763289381457,-0.5281676822927004,-0.2764590382575989,-0.3078305423259735,-0.223061665892601,STATIONARY,0,0.0,0.0,0.0,3.627815938648568,7.785081328759344,-2.3017555538586127
1769098476.13765,0.0585780143737793,-0.03998737409710884,-0.002894710749387741,0.9728378057479858,-0.39227613989263777,-0.02839711245149374,9.54353887438774,-0.8479733509613078,0.9206041978566555,9.497890349223633,-1.0533985008693172,0.3574119549093,-0.5174764000355179,-0.32838261127471924,-0.2586559057235718,-0.4368645250797272,STATIONARY,0,0.0,0.0,0.0,3.6242013241314766,7.7863077463399,-2.3035312139780046
1769098476.193686,0.05619096755981445,-0.040481045842170715,-0.13050320744514465,1.0374175310134888,-0.39711905971169476,-1.2802364650368692,10.177065979242325,-0.7624173168668417,0.5029632827194915,9.626773614805858,-0.9678424667748511,-0.06022896022786395,-0.38859313445329313,-0.08622770756483078,0.01686154119670391,-0.026220278814435005,STATIONARY,0,0.0,0.0,0.0,3.6211454342902156,7.786117577925071,-2.3047581675915576
1769098476.2365346,0.04274868965148926,-0.061462074518203735,-0.03739001601934433,0.9521235823631287,-0.6029429510235786,-0.3667960571497679,9.340332342982293,-0.7321547807302483,0.3379140391388504,9.572417296824998,-0.9375799306382577,-0.2252782038085051,-0.44294945243415285,-0.30491745471954346,-0.13768737018108368,-0.2110070288181305,STATIONARY,0,0.0,0.0,0.0,3.6194320534081967,7.785705893166335,-2.30556763577523
1769098476.294381,0.0578000545501709,0.00315179699100554,-0.2822343111038208,1.0508208274841309,0.030919128481764348,-2.768718591928482,10.308552317619323,-0.5873506196958899,-0.25161382487658585,9.712109419445477,-0.7927757696038993,-0.8148060678239413,-0.3032573298136736,-0.4441947340965271,-0.3029264211654663,0.05044331029057503,STATIONARY,0,0.0,0.0,0.0,3.616783511406827,7.782983751324537,-2.3065807719053066
1769098476.343878,0.04947686195373535,-0.016044316813349724,-0.0634424090385437,0.9877033233642578,-0.1573947479389608,-0.6223700326681137,9.689369602203369,-0.5057603588575257,-0.32197010487700195,9.707794214695234,-0.7111855087655351,-0.8851623478243574,-0.3075725345639171,-0.47718146443367004,-0.14501774311065674,-0.09860780835151672,STATIONARY,0,0.0,0.0,0.0,3.615042557822105,7.780816909419699,-2.3073336971266607
1769098476.3959641,0.05254673957824707,-0.018759509548544884,-0.14304696023464203,0.9686949253082275,-0.18403078867122533,-1.4032906799018383,9.502897217273713,-0.44470758280483536,-0.5271661111686512,9.668912086172819,-0.6501327327128448,-1.0903583541160067,-0.3464546630863321,-0.605768620967865,-0.19571955502033234,0.03578254207968712,STATIONARY,0,0.0,0.0,0.0,3.613247437429671,7.777806255720774,-2.3082903138288606
1769098476.4443777,0.04798603057861328,0.02618415839970112,-0.14931882917881012,0.9923335909843445,0.256866593901068,-1.4648177142441274,9.73479252755642,-0.31157387342905973,-0.7050988803103382,9.681413839840399,-0.5169990233370692,-1.2682911232576937,-0.3339529094187519,-0.519331157207489,-0.04514127969741821,-0.00361826503649354,STATIONARY,0,0.0,0.0,0.0,3.6120569649080254,7.7748858135854295,-2.3090592935449545
1769098476.4928474,0.04856252670288086,0.09140210598707199,-0.20045872032642365,0.9340900778770447,0.8966546597331763,-1.966500046402216,9.16342366397381,-0.0822952714873425,-0.9444677479634276,9.583117813813434,-0.2877204213953519,-1.507659990910783,-0.43224893544571685,-0.6912897229194641,-0.41135498881340027,-0.1102142482995987,STATIONARY,0,0.0,0.0,0.0,3.6113784283716277,7.771330270383674,-2.3100786744220456
1769098476.5458155,0.05284595489501953,0.03491221368312836,-0.2619713246822357,0.988434374332428,0.3424888162314892,-2.5699386951327323,9.696541212201119,-0.001686430455954735,-1.2529240507528059,9.604641521867029,-0.20711158036396418,-1.8161162937001614,-0.41072522739212225,-0.21328768134117126,0.0852784514427185,-0.02805287390947342,STATIONARY,0,0.0,0.0,0.0,3.610800028907314,7.766258411583886,-2.3112257046899147
1769098476.5936666,0.047963857650756836,0.11419202387332916,-0.2528047561645508,0.9216614961624146,1.1202237541973592,-2.4800146579742433,9.041499277353287,0.2112120333539095,-1.4857820003521192,9.497777246630537,0.0057868834459000595,-2.0489742432994746,-0.5175895026286135,-0.1305154412984848,-0.09889741986989975,-0.257432758808136,STATIONARY,0,0.0,0.0,0.0,3.6108133418157826,7.76154468150611,-2.312416435717628
1769098476.6396744,0.04603290557861328,0.0848560705780983,-0.32179534435272217,1.0266947746276855,0.8324380523711443,-3.1568123281002047,10.071875739097596,0.32909853348257745,-1.8028838456011629,9.606720626228759,0.123673383574568,-2.3660760885485184,-0.40864612303039216,-0.06148766353726387,0.3290136754512787,-0.04821142926812172,STATIONARY,0,0.0,0.0,0.0,3.6110754092274076,7.756530899087356,-2.3132823684562487
1769098476.6955829,0.05591011047363281,0.09091722220182419,-0.27041423320770264,0.9925772547721863,0.8918979497998953,-2.652763627767563,9.737182869315149,0.4358977521776738,-1.9641606594864036,9.631477698156816,0.23047260226966435,-2.5273529024337593,-0.38388905110233473,-0.11218947917222977,-0.01856864243745804,-0.23483076691627502,STATIONARY,0,0.0,0.0,0.0,3.6117958528581906,7.748630544410192,-2.31448238277062
1769098476.7517326,0.056123971939086914,0.11273735016584396,-0.27885714173316956,0.9426194429397583,1.1059534051269293,-2.7355885604023933,9.24709673523903,0.5630503719964288,-2.110550109632837,9.558535926487062,0.3576252220884194,-2.6737423525801924,-0.45683082277208875,-0.12165789306163788,-0.09278877079486847,-0.20214948058128357,STATIONARY,0,0.0,0.0,0.0,3.6129223366261485,7.740208522768947,-2.315921354282614
1769098476.7956913,0.04390454292297363,0.10037261247634888,-0.36111515760421753,0.9962327480316162,0.9846553283929825,-3.542539696097374,9.773043258190155,0.6430559275028065,-2.3822905638334833,9.599241753049867,0.43763077759479707,-2.9454828067808387,-0.4161249962092839,-0.10608083009719849,-0.058274880051612854,0.0015740894014015794,STATIONARY,0,0.0,0.0,0.0,3.613765917603261,7.734530783927389,-2.3167234805243564
1769098476.8512697,0.05556440353393555,0.15492293238639832,-0.2694493234157562,0.956266462802887,1.5197939667105675,-2.6432978627085686,9.380974000096321,0.8094294788479031,-2.4318204225813465,9.557822332904928,0.6040043289398936,-2.995012665528702,-0.4575444163542226,0.05492483824491501,-0.05730060487985611,-0.019096018746495247,STATIONARY,0,0.0,0.0,0.0,3.6156307223442523,7.725283973018253,-2.3181361045006263
1769098476.902464,0.05127215385437012,0.12946611642837524,-0.27933961153030396,0.9928209781646729,1.270062602162361,-2.740321589112282,9.739573795795442,0.8968411858410901,-2.4903629203110405,9.59231226603317,0.6914160359330807,-3.053555163258396,-0.4230544832259806,-0.1619323343038559,-0.077764593064785,0.014807003550231457,STATIONARY,0,0.0,0.0,0.0,3.6174483401623174,7.717256684114412,-2.3192482444088167
1769098476.9577084,0.05562996864318848,0.11370714008808136,-0.26341867446899414,0.9928209781646729,1.1154670442640782,-2.5841371965408326,9.739573795795442,0.9383285616079391,-2.5081579271015118,9.620257242283088,0.7329034116999297,-3.0713501700488672,-0.3951095069760626,-0.07083357870578766,0.04042242094874382,0.07839834690093994,STATIONARY,0,0.0,0.0,0.0,3.6197164515215823,7.707751796979545,-2.320470987196775
1769098477.0066597,0.04850578308105469,0.12073806673288345,-0.2460504174232483,1.0574005842208862,1.1844404346495867,-2.413754594922066,10.373099731206894,0.985031800791142,-2.490243547969864,9.763119845346274,0.7796066508831326,-3.0534357909172196,-0.2522469039128765,0.009035320952534676,0.12773074209690094,0.038041822612285614,STATIONARY,0,0.0,0.0,0.0,3.621550718619455,7.700567639686373,-2.321064476485076
1769098477.0628572,0.056267499923706055,0.10861577093601227,-0.2735501825809479,1.01572847366333,1.0655207128822803,-2.683527291119099,9.96429632663727,1.000305720194259,-2.5269218958080275,9.801295952852387,0.7948805702862495,-3.090114138755383,-0.21407079640676407,0.04934173822402954,0.14144083857536316,0.14530488848686218,STATIONARY,0,0.0,0.0,0.0,3.6240673355816067,7.69078424083719,-2.3217422313799334
1769098477.1140738,0.05144238471984863,0.078310027718544,-0.2250637710094452,0.9701571464538574,0.7682213719189167,-2.2078755936026573,9.517241606712341,0.9562644039658993,-2.4663783081368535,9.747392588074199,0.7508392540578899,-3.029570551084209,-0.2679741611849522,0.16082464158535004,0.04522956535220146,0.07749883830547333,STATIONARY,0,0.0,0.0,0.0,3.626054295724769,7.682767030890627,-2.3224513764796257
1769098477.1558125,0.041559457778930664,0.04945896565914154,-0.3454355001449585,0.9974511861801147,0.48519245311617853,-3.388722256422043,9.784996136426926,0.8668717805173364,-2.6414062313880553,9.75452839786326,0.661446630609327,-3.204598474335411,-0.2608383513958916,0.1278379261493683,0.011631975881755352,0.18653827905654907,STATIONARY,0,0.0,0.0,0.0,3.6271967387589457,7.677232085159684,-2.32290189348857
1769098477.211651,0.05593705177307129,0.04921652376651764,-0.34133464097976685,1.0476528406143188,0.4828140981495381,-3.348492828011513,10.277474366426468,0.7939913559441807,-2.7755860010887803,9.85376485625861,0.5885662060361713,-3.3387782440361358,-0.1616018930005403,0.08293932676315308,0.05530884116888046,0.3380328416824341,STATIONARY,0,0.0,0.0,0.0,3.6290383352029574,7.66678520241565,-2.323407538339469
1769098477.2619612,0.05029153823852539,0.04873162880539894,-0.2605239748954773,0.9530983567237854,0.47805727858096364,-2.5557401937246325,9.349894879460335,0.7340383573388596,-2.733867122605357,9.75814833945748,0.5286132074308502,-3.2970593655527125,-0.25721840980167165,-0.07893995940685272,-0.14230605959892273,0.41469645500183105,STATIONARY,0,0.0,0.0,0.0,3.630375324247109,7.658446151881735,-2.324058105126346
1769098477.315709,0.05918765068054199,0.018668334931135178,-0.25183984637260437,0.9287286400794983,0.1831363656744361,-2.470548892915249,9.110827959179879,0.6294968447119879,-2.683898731765336,9.635310061991886,0.42407169480397844,-3.2470909747126915,-0.38005668726726505,-0.09665505588054657,-0.25806504487991333,0.5387020707130432,MOVING,0,0.02509980733556329,-0.1921876863392354,-0.022494662444778876,3.6318609228758354,7.647071014237587,-2.325389511349304
1769098477.347431,0.026419878005981445,0.04873162880539894,-0.25883540511131287,0.9275102019309998,0.47805727858096364,-2.539175324141979,9.098875080943108,0.6007590264531311,-2.6564354004026187,9.533513871029907,0.39533387654512164,-3.219627643349974,-0.48185287822924394,-0.11437014490365982,-0.20155999064445496,0.5032718777656555,MOVING,0,0.035544480125517135,-0.27724985590122725,-0.03522515670442653,3.6328000037045376,7.6397461068675,-2.326320155692177
1769098477.4002306,0.052453041076660156,0.051883429288864136,-0.30732178688049316,0.9767369627952576,0.5089764413237572,-3.014826729297638,9.581789605021477,0.5833419714643843,-2.724445268222923,9.542674880303814,0.37791682155637485,-3.2876375111702787,-0.4726918689553372,0.027350589632987976,-0.24126623570919037,0.5548900365829468,MOVING,0,0.055367366690174516,-0.4496964413198107,-0.06001928272334409,3.635704190463844,7.616158160958925,-2.329468349594256
1769098477.4594674,0.05924224853515625,0.02618415839970112,-0.1963578760623932,0.9945268034934998,0.256866593901068,-1.9262707641720773,9.756307942271233,0.5213886107535589,-2.5729802685383576,9.583214801711083,0.3159634608455495,-3.136172511485713,-0.43215194754806774,0.2490946650505066,-0.18323403596878052,0.5182381272315979,MOVING,0,0.07408575256561467,-0.6354903526943725,-0.08562093580493853,3.64009319703025,7.578510283542911,-2.334540726353025
1769098477.5051463,0.048630475997924805,0.030063293874263763,-0.2547345459461212,0.9623588919639587,0.29492091290652755,-2.4989458957314494,9.440740730166436,0.47841313407661934,-2.5589311900512164,9.556178313960537,0.2729879841686099,-3.122123432998572,-0.4591884352986142,0.020325638353824615,-0.15574510395526886,0.4687580168247223,MOVING,0,0.08736128817744813,-0.7873207013653681,-0.10795148798625243,3.644341618058111,7.540222503072493,-2.339790458598481
1769098477.5590506,0.05107688903808594,0.010182728059589863,-0.2764448821544647,0.9891654849052429,0.09989256226457656,-2.711924293935299,9.703713406920434,0.40658345522927236,-2.5879638142630106,9.584175202730126,0.20115830532126291,-3.151156057210366,-0.4311915465290248,0.12386730313301086,-0.15207991003990173,0.44615599513053894,MOVING,0,0.0976358286174317,-0.9482719496411944,-0.1299754107624761,3.649328552442545,7.491787721922741,-2.3464291982316756
1769098477.5995207,0.04039621353149414,-0.0012341781985014677,-0.27837470173835754,1.0266947746276855,-0.0121072881272994,-2.730855824053288,10.071875739097596,0.32713091322425497,-2.615079611758382,9.676723337520405,0.12170576331624552,-3.1782718547057374,-0.33864341173874557,0.22130030393600464,-0.00027989596128463745,0.3865966498851776,MOVING,0,0.10255228062036824,-1.0766620981450252,-0.14365532233410816,3.653471276268627,7.448294649904808,-2.3522323293076197
1769098477.6590693,0.059699058532714844,-0.027892427518963814,-0.2178269922733307,0.9801487326622009,-0.27362471396103505,-2.136882794201374,9.615259067416192,0.21312896199640097,-2.524334943201769,9.665059615358524,0.007703812088391521,-3.0875271861491247,-0.3503071339006265,0.03773529827594757,0.1802307814359665,0.36521634459495544,MOVING,0,0.10301219094915816,-1.2609845643522901,-0.16456832842526925,3.659621007085684,7.373015058588691,-2.3620569035789107
1769098477.699843,0.04085826873779297,0.006061147898435593,-0.22409886121749878,0.9487118124961853,0.05945986088365317,-2.1984098285436633,9.306862880587579,0.1839680576660277,-2.462486002727798,9.597086674549534,-0.02145709224198175,-3.0256782456751536,-0.41828007470961737,0.11409345269203186,-0.1487201452255249,0.1743209809064865,MOVING,0,0.10213549130800366,-1.3846085392281795,-0.1816585281254189,3.663794086437213,7.316442350796263,-2.369479156539571
