timestamp,dt,accel_raw_x_g,accel_raw_y_g,accel_raw_z_g,accel_raw_x_mps2,accel_raw_y_mps2,accel_raw_z_mps2,accel_filt_x_mps2,accel_filt_y_mps2,accel_filt_z_mps2,accel_lin_x_mps2,accel_lin_y_mps2,accel_lin_z_mps2,gyro_x,gyro_y,gyro_z,step_state,step_count,velocity_x,velocity_y,velocity_z,pos_x,pos_y,pos_z
1769184114.0677493,2.033827066421509,0.021092794835567474,-0.0007236776873469353,1.0179216861724854,0.20692031733691693,-0.007099278112873435,9.985811741352082,0.20721880096044906,-0.06508540663477438,9.983026290935623,0.0017112352630269945,-0.06511673731283639,0.002913348243229308,-0.0018509775400161743,0.000744442455470562,0.0010321089066565037,INITIALIZING,0,0.003480356594959231,-0.13243618282390604,0.005925246510991319,0.007078443443626684,-0.26935229320080745,0.012050926729273754
1769184114.1106384,0.04284214973449707,0.019880564883351326,-0.0,1.0174343585968018,0.19502834150567652,-0.0,9.981031057834626,0.20490548735784592,-0.052734522153530736,9.982647666988754,-0.0006020783395761509,-0.052765852831592734,0.00253472429636048,0.0011682864278554916,0.0001392187550663948,-0.0010942933149635792,INITIALIZING,0,0.0034545622645832125,-0.13469678539178556,0.0060338395488316625,0.007226444317433102,-0.27512299304931775,0.01230942938669873
1769184114.1606283,0.049956321716308594,0.021092794835567474,-0.0007236776873469353,1.0179216861724854,0.20692031733691693,-0.007099278112873435,9.985811741352082,0.20528783009191676,-0.044074583519631554,9.983248095240986,-0.00021973560550531124,-0.04410591419769355,0.0031351525485927567,-0.002133570611476898,-0.00254792720079422,-0.00019225082360208035,INITIALIZING,0,0.003443585081982061,-0.13690015463103744,0.006190460238178867,0.0073984731616460785,-0.28196202121707825,0.012618682009929211
1769184114.2108262,0.0502161979675293,0.021577686071395874,-0.0009649035637266934,1.0181653499603271,0.21167710036039353,-0.009465703960158863,9.98820208311081,0.20650028528096123,-0.037507054858975694,9.98418818511774,0.0009927195835391645,-0.03753838553703769,0.004075242425345849,-0.0006114300340414047,-0.00039118947461247444,0.0004248497716616839,INITIALIZING,0,0.003493435685115307,-0.13878518963054676,0.006395103418575709,0.00757390021959666,-0.28893128577452687,0.012939819789219232
1769184114.2646356,0.05390453338623047,0.020607901737093925,-0.0012061294401064515,1.0179216861724854,0.20216351604089142,-0.01183212980744429,9.985811741352082,0.20567732144505127,-0.032634871526765766,9.984496278076453,0.0001697557476292022,-0.032666202204827764,0.004383335384058995,-0.0020925477147102356,-0.001899835653603077,0.00012553096166811883,INITIALIZING,0,0.00350258628948089,-0.14054604601789825,0.006631385067128763,0.007762705499176136,-0.2965073548044013,0.013297281506967224
1769184114.3154085,0.05068659782409668,0.021092794835567474,0.00024279257922898978,1.0181653499603271,0.20692031733691693,0.00238179520223639,9.98820208311081,0.20591319764933222,-0.02598995943279967,9.985199507452373,0.00040563195191015144,-0.02602129011086167,0.005086564759979595,-0.0002462398260831833,0.001762031577527523,0.00013648804451804608,INITIALIZING,0,0.003523146393091963,-0.14186497668461165,0.006889205729424071,0.007941281803478206,-0.3036980078229391,0.013646471907102005
1769184114.3679922,0.05253934860229492,0.020850349217653275,-0.0016885813092812896,1.0181653499603271,0.20454192582517863,-0.01656498264404945,9.98820208311081,0.20565297925678927,-0.024201435621164422,9.985769289021253,0.00014541355936720235,-0.02423276629922642,0.00565634632885903,-0.0005282368510961533,-0.0012845499441027641,-0.0007538179634138942,INITIALIZING,0,0.003530786326779057,-0.14313815044080466,0.007186386481011307,0.008126787017141066,-0.31121839300723625,0.014024039971618678
1769184114.4110608,0.043032169342041016,0.022547468543052673,-0.0,1.0174343585968018,0.22119066640734675,-0.0,9.981031057834626,0.20860147706950335,-0.01960886793061314,9.984870142053333,0.003093911372081287,-0.01964019860867514,0.004757199360939879,-0.0007856935262680054,0.001115236897021532,0.0013582614483311772,INITIALIZING,0,0.0036639240448717255,-0.1439833107932445,0.007391099089505121,0.008284453617096363,-0.31741430721971886,0.014342094999262069
1769184114.461102,0.050063371658325195,0.020365456119179726,-0.0,1.0181653499603271,0.19978512452915312,-0.0,9.98820208311081,0.20692844839223293,-0.01588780548142244,9.98550242540573,0.00142088269481086,-0.01591913615948444,0.005389482713336946,-0.0022963322699069977,0.00021249614655971527,-0.0013442810159176588,INITIALIZING,0,0.0037350582233049243,-0.14478027642327626,0.007660914765629028,0.00847144322509516,-0.3246624960070924,0.014725626222416506
1769184114.511156,0.05003809928894043,0.020123012363910675,-0.0014473553746938705,1.0184091329574585,0.19740675128996374,-0.01419855622574687,9.990593594312669,0.20512157052120053,-0.015567246334670048,9.986468547341435,-0.00038599517622153745,-0.015598577012732049,0.006355604649041169,0.002234227955341339,-0.0006652022711932659,-0.0010244108270853758,INITIALIZING,0,0.003715743758352099,-0.14556079956860554,0.007978937142099001,0.008657371980207842,-0.33194608174848383,0.01512487707135307
1769184114.564846,0.05376243591308594,0.021820131689310074,-0.0007236776873469353,1.0179216861724854,0.21405549187213183,-0.007099278112873435,9.985811741352082,0.20681690955763077,-0.01396032855223781,9.986343909034316,0.0013093438602087004,-0.01399165923029981,0.006230966341922439,0.0012740008533000946,-0.0009837057441473007,-0.0016110528958961368,INITIALIZING,0,0.003786137273724762,-0.14631302525129228,0.008313929070733202,0.008860923942744616,-0.33981222639180614,0.015571854150204305
1769184114.6149087,0.05006217956542969,0.022062579169869423,-0.0,1.0181653499603271,0.21643390165641904,-0.0,9.98820208311081,0.20864187101382461,-0.01131115703770089,9.986696524075866,0.003134305316402547,-0.01134248771576289,0.006583581383472037,0.002447875216603279,-0.0006455718539655209,-0.0010072268778458238,INITIALIZING,0,0.003943047429287387,-0.14688085490803748,0.008643517504136198,0.009058321491184608,-0.34716540212493613,0.016004567475573307
1769184114.6614356,0.046480655670166016,0.019880564883351326,-0.0009649035637266934,1.0181653499603271,0.19502834150567652,-0.009465703960158863,9.98820208311081,0.20605850956567928,-0.010960955987192293,9.98698222538253,0.0005509438682572143,-0.010992286665254293,0.0068692826901362025,4.2673200368881226e-06,-0.0003187078982591629,-0.001609582919627428,INITIALIZING,0,0.00396865566152144,-0.14739178359955293,0.00896280626755745,0.00924278720846124,-0.3540162688670386,0.01642116458753405
1769184114.7115738,0.05016446113586426,0.021335240453481674,0.00024279257922898978,1.0186527967453003,0.20929870884865523,0.00238179520223639,9.992983936071397,0.20667338360748733,-0.008428978588213242,9.988121135612039,0.0011658179100652588,-0.008460309266275242,0.00800819291964494,0.0014904793351888657,-0.0002979910932481289,-0.0012606816599145532,INITIALIZING,0,0.004027138288762403,-0.14781619045493838,0.009364532950043483,0.009444806430636613,-0.36143138840836686,0.01689093133676203
1769184114.761599,0.050367116928100586,0.020850349217653275,-0.0014473553746938705,1.0203588008880615,0.20454192582517863,-0.01419855622574687,10.009719836711884,0.20626890908382542,-0.009523838259392917,9.992219797294004,0.0007613433864033514,-0.009555168937454917,0.012106854601610095,-5.060248076915741e-05,0.001208390574902296,-0.0009587390231899917,STATIONARY,0,0.0,0.0,0.0,0.009649573186992805,-0.3689007037534439,0.017393309094164353
1769184114.813113,0.05136585235595703,0.021092794835567474,-0.0004824517818633467,1.0191402435302734,0.20692031733691693,-0.004732851980079431,9.997765789031982,0.20639252309347905,-0.008614680259980361,9.993272228350847,0.0008849573960569845,-0.008646010938042362,0.013159285658453257,0.0008267462253570557,0.0011580195277929306,-0.0003211376315448433,STATIONARY,0,0.0,0.0,0.0,0.009651908103532003,-0.3689235158278186,0.017428029221782756
1769184114.8650963,0.05199098587036133,0.019880564883351326,-0.0,1.0188965797424316,0.19502834150567652,-0.0,9.995375447273254,0.20423600750462456,-0.006979921775164816,9.993671344147959,-0.0012715581927975061,-0.007011252453226815,0.013558401455565416,0.0005190782248973846,-6.158789619803429e-05,-0.0006056860438548028,STATIONARY,0,0.0,0.0,0.0,0.00964847100212236,-0.36894246768218664,0.01746467842983269
1769184114.9171515,0.05206561088562012,0.020850349217653275,-0.00024122589093167335,1.0188965797424316,0.20454192582517863,-0.0023664259900397157,9.995375447273254,0.20429405987048074,-0.006104445129278111,9.993994722028392,-0.0012135058269413246,-0.00613577580734011,0.01388177933599799,-6.85378909111023e-05,-7.972307503223419e-05,-4.0470119699875795e-08,STATIONARY,0,0.0,0.0,0.0,0.009645181396746456,-0.3689591007140461,0.01750230954368232
1769184114.9691002,0.051944732666015625,0.022062579169869423,-0.00024122589093167335,1.0191402435302734,0.21643390165641904,-0.0023664259900397157,9.997765789031982,0.20659776804826124,-0.005395102667357557,9.994710335794066,0.0010902023508391756,-0.005426433345419556,0.014597393101672296,0.001480666920542717,-8.715968579053879e-05,-0.07540544867515564,STATIONARY,0,0.0,0.0,0.0,0.009648123040965071,-0.3689737426163186,0.017541697036280675
1769184115.0211847,0.05207085609436035,0.021577686071395874,-0.00024122589093167335,1.019627571105957,0.21167710036039353,-0.0023664259900397157,10.002546472549438,0.2075616438212287,-0.00482036805776224,9.996197354541417,0.0020540781238066186,-0.004851698735824239,0.01608441184902354,0.0008509047329425812,-6.406614556908607e-05,-0.00028024206403642893,STATIONARY,0,0.0,0.0,0.0,0.00965369241509567,-0.3689868973863907,0.017585307893248393
1769184115.0731387,0.05202484130859375,0.022062579169869423,-0.0,1.0191402435302734,0.21643390165641904,-0.0,9.997765789031982,0.20924528132579484,-0.0039056344466997417,9.996494987362828,0.003737715628372773,-0.0039369651247617415,0.01638204467043458,-0.001584898680448532,-0.0006372937932610512,0.0024166512303054333,STATIONARY,0,0.0,0.0,0.0,0.009663808856835024,-0.3689975531136515,0.01762964727509487
1769184115.1251779,0.05202794075012207,0.019880564883351326,-0.00024122589093167335,1.0198713541030884,0.19502834150567652,-0.0023664259900397157,10.004937983751297,0.20654741416210937,-0.0036135476821898592,9.998097166383614,0.0010398484646872985,-0.0036448783602518586,0.017984223691220436,-4.0668994188308716e-05,0.0008602091111242771,0.0005494470824487507,STATIONARY,0,0.0,0.0,0.0,0.009666623629526529,-0.3690074194590092,0.01767832888923678
1769184115.1844962,0.05935549736022949,0.020850349217653275,0.00048558515845797956,1.0181653499603271,0.20454192582517863,0.00476359040447278,9.98820208311081,0.20616684413791167,-0.0020238662137711536,9.996219433159629,0.0006592784404896024,-0.002055196891833153,0.016106490467235446,-0.0024164728820323944,0.00024103326722979546,0.0005866510327905416,STATIONARY,0,0.0,0.0,0.0,0.00966894631696235,-0.3690146600719364,0.017735073264216843
1769184115.2297735,0.04524564743041992,0.019395673647522926,0.00024279257922898978,1.0188965797424316,0.19027155848219993,0.00238179520223639,9.995375447273254,0.20315048690699328,-0.0011878291045936131,9.996059274796558,-0.0023570787904287904,-0.0012191597826556127,0.015946332104164185,5.132518708705902e-05,-0.00034741126000881195,0.0035145729780197144,STATIONARY,0,0.0,0.0,0.0,0.009664120979247992,-0.3690171558975757,0.017767718094767414
1769184115.2797904,0.04990220069885254,0.020607901737093925,-0.0012061294401064515,1.019627571105957,0.20216351604089142,-0.01183212980744429,10.002546472549438,0.2029631951040553,-0.0032077370250012003,9.997290313122898,-0.0025443705933667626,-0.0032390677030631997,0.01717737043050427,-0.0005661267787218094,0.0014861524105072021,0.0031223646365106106,STATIONARY,0,0.0,0.0,0.0,0.009657784912195015,-0.36902522191995835,0.017810493691657762
1769184115.329167,0.04950881004333496,0.021335240453481674,-0.0004824517818633467,1.0186527967453003,0.20929870884865523,-0.004732851980079431,9.992983936071397,0.2041654492257508,-0.0034971493465142103,9.996473116638374,-0.001342116471671262,-0.0035284800245762096,0.016360173945979994,0.0012242570519447327,0.0011413651518523693,0.0021527244243770838,STATIONARY,0,0.0,0.0,0.0,0.009654495220619808,-0.36903387065593257,0.017850594478389027
1769184115.379905,0.05066180229187012,0.022062579169869423,-0.0007236776873469353,1.0169469118118286,0.21643390165641904,-0.007099278112873435,9.976249204874039,0.2064935631082545,-0.0041807046714355004,9.992635340846915,0.0009859974108324399,-0.0042120353494975,0.012522398154521497,-0.001779165118932724,-4.7404784709215164e-05,0.002681570593267679,STATIONARY,0,0.0,0.0,0.0,0.009657025899530904,-0.3690446813425679,0.01788273469354358
1769184115.4326105,0.05275607109069824,0.022305024787783623,0.062154900282621384,1.0206023454666138,0.21881229316815734,0.6097395717725158,10.012109009027482,0.2088312178882155,0.11231942657305746,9.996330747214643,0.003323652190793419,0.11228809589499546,0.01621780452224897,-0.0008628666400909424,-0.001269135158509016,0.08026145398616791,STATIONARY,0,0.0,0.0,0.0,0.00966627629840201,-0.3687321607730622,0.01792787213634219
1769184115.4835138,0.050809383392333984,0.020850349217653275,-0.00024122589093167335,1.0184091329574585,0.20454192582517863,-0.0023664259900397157,9.990593594312669,0.20801726352400354,0.09055614982826796,9.995242040599638,0.002509697826581475,0.09052481915020595,0.015129097907244926,-0.0011293590068817139,0.0008651670068502426,0.07887326180934906,STATIONARY,0,0.0,0.0,0.0,0.009672755317849275,-0.36849846249372264,0.01796692931626338
1769184115.5336454,0.05025029182434082,0.021092794835567474,-0.0009649035637266934,1.0181653499603271,0.20692031733691693,-0.009465703960158863,9.98820208311081,0.20780910233489286,0.07157557606197203,9.99390610822719,0.0023015366374707913,0.07154424538391002,0.013793165534796259,0.0006999839097261429,-0.0015408294275403023,0.0012603593058884144,STATIONARY,0,0.0,0.0,0.0,0.009678566909205388,-0.36831780670433245,0.018001758325843494
1769184115.5801678,0.04651498794555664,0.019638117402791977,-0.0004824517818633467,1.0181653499603271,0.1926499317213893,-0.004732851980079431,9.98820208311081,0.2049324334353732,0.05709496315005827,9.992823688082135,-0.0005751322620488608,0.05706363247199627,0.012710745389741263,-0.0004690270870923996,-0.001219454687088728,0.0006379397818818688,STATIONARY,0,0.0,0.0,0.0,0.009677322527677829,-0.3681943413124058,0.018029259855158054
1769184115.630753,0.05074453353881836,0.020850349217653275,-0.00024122589093167335,1.0181653499603271,0.20454192582517863,-0.0023664259900397157,9.98820208311081,0.20485832904497392,0.045811316226183264,9.991946672602474,-0.0006492366524481485,0.045779985548121266,0.011833729910080137,-0.0007385518401861191,-0.0009037447161972523,0.0021181730553507805,STATIONARY,0,0.0,0.0,0.0,0.009675650738308993,-0.3680764574978427,0.018059731800607746
1769184115.6809702,0.05010223388671875,0.021092794835567474,0.00048558515845797956,1.0184091329574585,0.20692031733691693,0.00476359040447278,9.990593594312669,0.205249620741719,0.038021924624367,9.99168990669264,-0.0002579449557030544,0.037990593946305,0.011576964000246548,-0.001014234498143196,-0.0023953067138791084,-0.00033463386353105307,STATIONARY,0,0.0,0.0,0.0,0.009675003236152217,-0.3679810922233003,0.018088792687410715
1769184115.731707,0.05100893974304199,0.020607901737093925,-0.0,1.0193839073181152,0.20216351604089142,-0.0,10.00015613079071,0.20466398834533817,0.030806721968796497,9.993296493502712,-0.0008435773520839018,0.030775391290734498,0.013183550810317968,-0.0006548948585987091,-0.0014499002136290073,0.0011527810711413622,STATIONARY,0,0.0,0.0,0.0,0.009672808322172823,-0.36790101736543634,0.018123095125592743
1769184115.7852924,0.05347037315368652,0.020607901737093925,-0.00024122589093167335,1.0201150178909302,0.20216351604089142,-0.0023664259900397157,10.007328325510025,0.20418948805137718,0.024511643862917657,9.995959233817988,-0.001318077646044885,0.02448031318485566,0.015846291125594547,-0.0016096718609333038,0.0006651920266449451,0.07712036371231079,STATIONARY,0,0.0,0.0,0.0,0.00966903983167526,-0.3678310261719044,0.018168400952383455
1769184115.8354514,0.05019688606262207,0.021092794835567474,-0.0004824517818633467,1.0179216861724854,0.20692031733691693,-0.004732851980079431,9.985811741352082,0.20470770186899936,0.01896208354602652,9.994033602348495,-0.0007998638284227033,0.018930752867964522,0.013920659656101009,-0.002512434497475624,0.002475098706781864,-0.0016201685648411512,STATIONARY,0,0.0,0.0,0.0,0.009667024392894205,-0.367783325835761,0.01820347721953273
1769184115.8819911,0.0465853214263916,0.020365456119179726,-0.0007236776873469353,1.0188965797424316,0.19978512452915312,-0.007099278112873435,9.995375447273254,0.20377357258844347,0.014016568354284468,9.994288236567044,-0.0017339931089785932,0.013985237676222468,0.014175293874650663,0.002060655504465103,0.0024531655944883823,-0.0015762608963996172,STATIONARY,0,0.0,0.0,0.0,0.009663261294622104,-0.3677529751824269,0.01823424033134097
1769184115.9321587,0.05019235610961914,0.019638117402791977,-0.0,1.0184091329574585,0.1926499317213893,-0.0,9.990593594312669,0.201662703033141,0.011356724534936977,9.993587125487883,-0.003844862664281079,0.011325393856874977,0.013474182795489398,-0.0006602518260478973,0.0009153257124125957,-0.0003073842090088874,STATIONARY,0,0.0,0.0,0.0,0.009653575037415714,-0.36772444342786503,0.018268185471024503
1769184115.9820673,0.04976177215576172,0.021577686071395874,-0.0009649035637266934,1.0193839073181152,0.21167710036039353,-0.009465703960158863,10.00015613079071,0.203563077801209,0.007405371654789511,9.994833687963972,-0.0019444878962130707,0.0073740409767275115,0.014720745271578295,-0.0003682281821966171,0.0015257922932505608,-1.702766166999936e-05,STATIONARY,0,0.0,0.0,0.0,0.009648760030436587,-0.36770618357711643,0.018304637480501467
1769184116.0324197,0.05057024955749512,0.020850349217653275,-0.00024122589093167335,1.0186527967453003,0.20454192582517863,-0.0023664259900397157,9.992983936071397,0.20374882817896392,0.00555103363762652,9.99448267115198,-0.0017587375184581477,0.00551970295956452,0.014369728459586284,0.0017309989780187607,8.768867701292038e-06,-0.0009072639513760805,STATIONARY,0,0.0,0.0,0.0,0.009644262322796995,-0.36769206776397834,0.01834138590759377
1769184116.0859656,0.053484201431274414,0.019880564883351326,-0.00024122589093167335,1.0203588008880615,0.19502834150567652,-0.0023664259900397157,10.009719836711884,0.20209399141768522,0.004048582715026472,9.99737414070533,-0.0034135742797368474,0.004017252036964473,0.01726119801293713,-0.000108303502202034,0.00027849385514855385,0.0006042844033800066,STATIONARY,0,0.0,0.0,0.0,0.009634497589428708,-0.3676805761742839,0.018390762596776734
1769184116.1360958,0.05020022392272949,0.020850349217653275,-0.0004824517818633467,1.0186527967453003,0.20454192582517863,-0.004732851980079431,9.992983936071397,0.2025585218961421,0.0023821801970634066,9.996541036741073,-0.0029490438012799713,0.0023508495190014073,0.016428094048679398,0.0016971006989479065,-0.001837930642068386,3.732624463737011e-06,STATIONARY,0,0.0,0.0,0.0,0.009627065814787646,-0.36767465188661047,0.01843216242023781
1769184116.1834023,0.04724264144897461,0.020607901737093925,-0.0009649035637266934,1.0191402435302734,0.20216351604089142,-0.009465703960158863,9.997765789031982,0.20248356389956704,0.00013387514468588034,9.996773450961792,-0.0030240017978550304,0.00010254446662388089,0.016660508269398022,0.0013990793377161026,-0.0006161103956401348,-0.000591795367654413,STATIONARY,0,0.0,0.0,0.0,0.009620316644449737,-0.36767442302098186,0.018469346461697723
1769184116.2327843,0.04938459396362305,0.020123012363910675,-0.0014473553746938705,1.0193839073181152,0.19740675128996374,-0.01419855622574687,10.00015613079071,0.201520166276103,-0.0025859081883875695,9.99741536271996,-0.0039873994213190656,-0.002617238866449569,0.017302420027565546,-0.0016274284571409225,-5.157198756933212e-06,-0.001783046405762434,STATIONARY,0,0.0,0.0,0.0,0.009610592022737563,-0.367680806042901,0.018511544263245673
1769184116.2866466,0.054007530212402344,0.020365456119179726,-0.0009649035637266934,1.0181653499603271,0.19978512452915312,-0.009465703960158863,9.98820208311081,0.20119091735081068,-0.0038914475900004714,9.995667011468433,-0.004316648346611385,-0.003922778268062471,0.015554068776038932,-0.0001345127820968628,0.0012063938193023205,-0.000567282026167959,STATIONARY,0,0.0,0.0,0.0,0.009598001165343949,-0.3676922480548033,0.018556912578226274
1769184116.338751,0.05286216735839844,0.022305024787783623,-0.0019298071274533868,1.0201150178909302,0.21881229316815734,-0.018931407920317726,10.007328325510025,0.20453482481599577,-0.006745494637514618,9.997879912179577,-0.0009727408814262928,-0.006776825315576617,0.017766969487183815,-0.00043255090713500977,-0.0006156777963042259,-0.002059244317933917,STATIONARY,0,0.0,0.0,0.0,0.00959528292972525,-0.36771118527467983,0.01860656075300597
1769184116.381715,0.04175114631652832,0.020607901737093925,-0.0007236776873469353,1.0186527967453003,0.20216351604089142,-0.007099278112873435,9.992983936071397,0.20408483514450118,-0.006812630099386267,9.99695083086225,-0.0014227305529208867,-0.006843960777448266,0.01683788816985654,0.0013937558978796005,-9.699258953332901e-06,-0.0008095987141132355,STATIONARY,0,0.0,0.0,0.0,0.009592802885268868,-0.3677231153811578,0.01863591185615555
1769184116.4362571,0.054482460021972656,0.022305024787783623,-0.0004824517818633467,1.0169469118118286,0.21881229316815734,-0.004732851980079431,9.976249204874039,0.20687958042086174,-0.006417962529091752,9.993022401981271,0.001372014723439674,-0.006449293207153752,0.012909459288877656,-0.0007598418742418289,-0.0011802911758422852,0.0007138354703783989,STATIONARY,0,0.0,0.0,0.0,0.009596875489326483,-0.3677422590661602,0.01867423150053203
1769184116.4897006,0.053386688232421875,0.020607901737093925,-0.0007236776873469353,1.01719069480896,0.20216351604089142,-0.007099278112873435,9.978640716075898,0.2059846399207589,-0.0065472518814311854,9.99029327189748,0.000477074223336843,-0.006578582559493185,0.01018032920508638,0.0010824203491210938,0.0012412555515766144,-0.0016921635251492262,STATIONARY,0,0.0,0.0,0.0,0.009598235216928435,-0.36776100893745967,0.018703246848542847
1769184116.5398247,0.050167083740234375,0.021092794835567474,0.061426520347595215,1.017678141593933,0.20692031733691693,0.6025941646099091,9.983422569036485,0.20616219805976732,0.10904602250714711,9.988989458005415,0.0006546323623452532,0.1090146918290851,0.008876515313021471,-0.0022773388773202896,0.00032495753839612007,-0.0016921635251492262,STATIONARY,0,0.0,0.0,0.0,0.009599882753952012,-0.36748664770628126,0.018725586696768742
1769184116.582962,0.043190956115722656,0.019153228029608727,-0.0009649035637266934,1.0181653499603271,0.18789316697046163,-0.009465703960158863,9.98820208311081,0.2026953887666422,0.0865567316053616,9.9888400423857,-0.0028121769307798694,0.0865254009272996,0.008727099693306428,-0.00012457184493541718,0.0009046308696269989,0.00045119188143871725,STATIONARY,0,0.0,0.0,0.0,0.009594636754058137,-0.36732523814519924,0.018741866740731777
1769184116.6333416,0.050420284271240234,0.021820131689310074,-0.0009649035637266934,1.0179216861724854,0.21405549187213183,-0.009465703960158863,9.985811741352082,0.20485113040529018,0.06833510450648812,9.988265379059856,-0.000656435292131885,0.06830377382842612,0.008152436367462101,-0.0031335074454545975,-0.000902081374078989,-0.00042436833609826863,STATIONARY,0,0.0,0.0,0.0,0.009592967960932983,-0.3671515959453462,0.018762591905765322
1769184116.6865218,0.05308890342712402,0.021335240453481674,-0.0004824517818633467,1.0174343585968018,0.20929870884865523,-0.004732851980079431,9.981031057834626,0.20569512186843827,0.054469417303975316,9.986892563395442,0.00018755617101620659,0.05443808662591332,0.006779620703047939,-4.625879228115082e-05,-0.0020984471775591373,-0.001911720260977745,STATIONARY,0,0.0,0.0,0.0,0.009593496575184735,-0.3669981659181037,0.018781699803445684
1769184116.7370658,0.05069160461425781,0.021577686071395874,-0.00024122589093167335,1.019627571105957,0.21167710036039353,-0.0023664259900397157,10.002546472549438,0.20683028763206351,0.04368400516300868,9.989863115991445,0.0013227219346414465,0.04365267448494668,0.009750173299051923,-0.002131672576069832,0.00036379648372530937,-7.648722385056317e-05,STATIONARY,0,0.0,0.0,0.0,0.009596895492760988,-0.3668859943129677,0.018806754226850738
1769184116.790712,0.05357694625854492,0.021820131689310074,-0.0007236776873469353,1.01719069480896,0.21405549187213183,-0.007099278112873435,9.978640716075898,0.208201373218472,0.03404715263724484,9.987733505497697,0.0026938075210499457,0.03401582195918284,0.0076205628053038765,-0.0009098947048187256,0.0009573167189955711,0.0014426999259740114,STATIONARY,0,0.0,0.0,0.0,0.00960462803807728,-0.3667883522644119,0.018828628969855647
1769184116.840368,0.049666643142700195,0.022062579169869423,-0.0012061294401064515,1.0181653499603271,0.21643390165641904,-0.01183212980744429,9.98820208311081,0.20976361294290374,0.02534090423448921,9.987822424784973,0.004256047245481676,0.025309573556427212,0.007709482092579378,-0.002095906063914299,-0.00023541226983070374,0.0008192498353309929,STATIONARY,0,0.0,0.0,0.0,0.009615126750898444,-0.36672591922993913,0.018847646530944947
1769184116.8816245,0.04110836982727051,0.020123012363910675,-0.0012061294401064515,1.0181653499603271,0.19740675128996374,-0.01183212980744429,9.98820208311081,0.20741872214914123,0.018286790678041738,9.987894470368879,0.0019111564517191593,0.01825545999997974,0.0077815276764852115,0.0009567588567733765,-0.0026451018638908863,-0.0006843178416602314,STATIONARY,0,0.0,0.0,0.0,0.009618356410497396,-0.36669506936332086,0.018860796519545968
1769184116.936606,0.05505537986755371,0.020607901737093925,-0.0009649035637266934,1.0193839073181152,0.20216351604089142,-0.009465703960158863,10.00015613079071,0.20642147181417228,0.013020358876114385,9.990221295370803,0.0009139061167502127,0.012989028198052385,0.010108352678409815,0.002711525186896324,-0.001100864727050066,-0.0006615088786929846,STATIONARY,0,0.0,0.0,0.0,0.009621126546623419,-0.36665569838681256,0.01889143589531534
1769184116.9869614,0.05026817321777344,0.021092794835567474,-0.06127138063311577,1.0181653499603271,0.20692031733691693,-0.6010722440108657,9.98820208311081,0.20651613486913295,-0.10351247376952148,9.989838121036406,0.0010085691717108825,-0.10354380444758349,0.009725178344012875,-0.0009536668658256531,0.00042629847303032875,-0.07793596386909485,STATIONARY,0,0.0,0.0,0.0,0.009623675089209851,-0.3669173421120003,0.0189160103438168
1769184117.0371435,0.05030226707458496,0.019880564883351326,-0.00024122589093167335,1.017678141593933,0.19502834150567652,-0.0023664259900397157,9.983422569036485,0.2043361621822812,-0.08431856815456795,9.98862067851386,-0.001171403515140862,-0.08434989883262996,0.0085077358214658,0.001144884154200554,0.0004625599831342697,-0.00033916078973561525,STATIONARY,0,0.0,0.0,0.0,0.009620711065724898,-0.367130774185459,0.018937537621524825
1769184117.0836518,0.04641389846801758,0.021092794835567474,-0.0004824517818633467,1.0188965797424316,0.20692031733691693,-0.004732851980079431,9.995375447273254,0.20482654249096724,-0.06921604306251497,9.989902492256116,-0.0006810232064548283,-0.06924737374057698,0.009789549563722133,-0.001255294308066368,-0.0007691960781812668,0.0008985762251541018,STATIONARY,0,0.0,0.0,0.0,0.009619243971502142,-0.3672799503383314,0.01895862675838857
1769184117.133236,0.04967212677001953,0.020850349217653275,-0.0009649035637266934,1.0174343585968018,0.20454192582517863,-0.009465703960158863,9.981031057834626,0.20477253241801313,-0.0578775637608577,9.988219011006047,-0.0007350332794089365,-0.0579088944389197,0.008106068313653125,0.0017390679568052292,0.0007629850879311562,-0.0018037855625152588,STATIONARY,0,0.0,0.0,0.0,0.00961743040906046,-0.3674228301220579,0.018978627024301933
1769184117.1838827,0.050659894943237305,0.021092794835567474,-0.0007236776873469353,1.0179216861724854,0.20692031733691693,-0.007099278112873435,9.985811741352082,0.2051801052487829,-0.04824165960628854,9.987762197244734,-0.00032746044863915524,-0.04827299028435054,0.0076492545523407784,-0.0006910078227519989,-0.00015829643234610558,-0.0005525605520233512,STATIONARY,0,0.0,0.0,0.0,0.009616590006393082,-0.367546719129008,0.018998258262077256
1769184117.2367222,0.05283236503601074,0.019880564883351326,-0.00024122589093167335,1.017678141593933,0.19502834150567652,-0.0023664259900397157,9.983422569036485,0.20325366324350252,-0.03953617952649402,9.986938690878823,-0.002253902453919543,-0.03956751020455602,0.006825748186429337,-0.0012736227363348007,-0.0010488713160157204,-0.0011549299815669656,STATIONARY,0,0.0,0.0,0.0,0.009610298781344834,-0.3676571622898745,0.019017310691737118
1769184117.2873662,0.050542593002319336,0.020607901737093925,-0.0007236776873469353,1.0181653499603271,0.20216351604089142,-0.007099278112873435,9.98820208311081,0.20304679225869704,-0.033380814706585715,9.987178437579637,-0.002460773438725028,-0.033412145384647714,0.007065494887243062,-4.006735980510712e-05,-0.00011301320046186447,-0.00024077239504549652,STATIONARY,0,0.0,0.0,0.0,0.009604012603433873,-0.36774251540973896,0.019035359877895928
1769184117.3374274,0.05009198188781738,0.021577686071395874,-0.00024122589093167335,1.0193839073181152,0.21167710036039353,-0.0023664259900397157,10.00015613079071,0.20468451634944035,-0.02749539196590971,9.989641140018948,-0.0008230493479817191,-0.02752672264397171,0.009528197326554633,0.0008470248430967331,0.001982754096388817,0.000748903607018292,STATIONARY,0,0.0,0.0,0.0,0.009601947402537092,-0.36781158564523475,0.019059268093984984
1769184117.3841324,0.04678225517272949,0.022062579169869423,-0.0019298071274533868,1.0184091329574585,0.21643390165641904,-0.018931407920317726,9.990593594312669,0.20691412983970286,-0.025870253811056315,9.98982188180983,0.0014065641422807973,-0.025901584489118314,0.009708939117436088,-0.0009729079902172089,-0.0007103206589818001,-0.00047725532203912735,STATIONARY,0,0.0,0.0,0.0,0.009605025779842324,-0.36786827331945027,0.019080516878124
1769184117.434065,0.04982709884643555,0.019395673647522926,-0.00024122589093167335,1.019627571105957,0.19027155848219993,-0.0023664259900397157,10.002546472549438,0.2037559644853583,-0.021410067153340692,9.992236554444172,-0.0017516012120637747,-0.02144139783140269,0.012123611751778895,0.0020372774451971054,0.0005044583231210709,-0.07527624815702438,STATIONARY,0,0.0,0.0,0.0,0.009600677009835397,-0.36792150673077334,0.01911061665129078
1769184117.4841633,0.05013537406921387,0.020123012363910675,0.00048558515845797956,1.0184091329574585,0.19740675128996374,0.00476359040447278,9.990593594312669,0.2025511106974247,-0.016443242212656282,9.991924779319138,-0.00295645499999736,-0.01647457289071828,0.011811836626744565,-0.0006929449737071991,-0.0012990105897188187,0.0034230034798383713,STATIONARY,0,0.0,0.0,0.0,0.009593245795420619,-0.3679629164879125,0.019140306360961902
1769184117.5377755,0.05362844467163086,0.021092794835567474,-0.0004824517818633467,1.0188965797424316,0.20692031733691693,-0.004732851980079431,9.995375447273254,0.20338022999265884,-0.01422102859410351,9.992579592794048,-0.002127335704763228,-0.01425235927216551,0.012466650101654153,-0.0024363137781620026,0.0008211461827158928,0.0006364999571815133,STATIONARY,0,0.0,0.0,0.0,0.009587127556494646,-0.3680039064168131,0.01917616057229189
1769184117.5879102,0.05019402503967285,0.019395673647522926,-0.00024122589093167335,1.0167032480239868,0.19027155848219993,-0.0023664259900397157,9.97385886311531,0.20089267255237475,-0.011971448620585847,9.989027067249202,-0.004614893145047316,-0.012002779298647848,0.00891412455680829,-0.001804981380701065,0.0005086185410618782,0.0009105369681492448,STATIONARY,0,0.0,0.0,0.0,0.009575500609418516,-0.36803414670088586,0.01919861917559959
1769184117.6415524,0.05360531806945801,0.021577686071395874,-0.0004824517818633467,1.0174343585968018,0.21167710036039353,-0.004732851980079431,9.981031057834626,0.2029391715901788,-0.010597821635125085,9.987509710383867,-0.0025683941072432714,-0.010629152313187085,0.007396767691473016,-0.0011240318417549133,0.0002166014164686203,0.0005697946762666106,STATIONARY,0,0.0,0.0,0.0,0.009568120251577638,-0.3680646898902645,0.01921987401039109
1769184117.6816163,0.039958953857421875,0.020607901737093925,-0.0009649035637266934,1.0181653499603271,0.20216351604089142,-0.009465703960158863,9.98820208311081,0.2027919798834381,-0.01038298615439827,9.987641097986874,-0.002715585813983956,-0.01041431683246027,0.007528155294480143,0.0013057328760623932,0.001130468212068081,0.002322316402569413,STATIONARY,0,0.0,0.0,0.0,0.009563784226845885,-0.3680813186173396,0.01923189435140674
1769184117.7331522,0.05165410041809082,0.020850349217653275,-0.0,1.0174343585968018,0.20454192582517863,-0.0,9.981031057834626,0.20312405709232983,-0.008412666397729368,9.986386748562664,-0.0023835086050922327,-0.008443997075791368,0.006273805870270266,-0.0014404822140932083,0.002013874240219593,0.0028404630720615387,STATIONARY,0,0.0,0.0,0.0,0.00955742467768072,-0.3681038484351214,0.019248633782008934
1769184117.784684,0.05152559280395508,0.021092794835567474,-0.0004824517818633467,1.0179216861724854,0.20692031733691693,-0.004732851980079431,9.985811741352082,0.20384445163491507,-0.007714369112135912,9.986277632740839,-0.001663114062506993,-0.007745699790197911,0.0061646900484451095,0.0001140739768743515,0.0010710875503718853,0.0012493380345404148,STATIONARY,0,0.0,0.0,0.0,0.009553009298252639,-0.36812441239058347,0.01926500033571324
1769184117.838154,0.05342507362365723,0.020607901737093925,-0.0007236776873469353,1.0174343585968018,0.20216351604089142,-0.007099278112873435,9.981031057834626,0.203525470124072,-0.007597646819533923,9.985282020299598,-0.001982095573350079,-0.007628977497595922,0.005169077607204642,-0.00019507482647895813,0.0013659684918820858,-0.07389236241579056,STATIONARY,0,0.0,0.0,0.0,0.009547351924772969,-0.36814618731180937,0.019279754115986272
1769184117.8882256,0.05001354217529297,0.020850349217653275,-0.0007236776873469353,1.0167032480239868,0.20454192582517863,-0.007099278112873435,9.97385886311531,0.2037183570951117,-0.007503074247227955,9.983114313249907,-0.0017892086023103548,-0.007534404925289955,0.003001370557512928,-0.00019362010061740875,0.002541824709624052,0.003844724502414465,STATIONARY,0,0.0,0.0,0.0,0.009542876479961417,-0.36816503352872754,0.0192872616074391
1769184117.9417987,0.05361342430114746,0.020365456119179726,-0.0,1.0191402435302734,0.19978512452915312,-0.0,9.997765789031982,0.20297197010036463,-0.006079258862594646,9.98589463981189,-0.002535595597057433,-0.006110589540656645,0.0057816971194970534,0.0024953391402959824,-0.0005206544883549213,0.0006681594531983137,STATIONARY,0,0.0,0.0,0.0,0.00953558816584015,-0.3681825978028137,0.01930388051339154
1769184117.9817185,0.0398561954498291,0.021335240453481674,-0.0004824517818633467,1.0181653499603271,0.20929870884865523,-0.004732851980079431,9.98820208311081,0.20417255904131773,-0.005823758947475241,9.986332510098112,-0.0013350066561043372,-0.00585508962553724,0.006219567405718607,0.0038985218852758408,-0.0008338820189237595,0.0009310471941716969,STATIONARY,0,0.0,0.0,0.0,0.009533467485985313,-0.36819189870821395,0.019313760397692337
1769184118.0339818,0.05241203308105469,0.021092794835567474,-0.0007236776873469353,1.0169469118118286,0.20692031733691693,-0.007099278112873435,9.976249204874039,0.20469398538012457,-0.006065806906917939,9.984419059073515,-0.000813580317297502,-0.0060971375849799385,0.004306116381121328,0.002012208104133606,4.9386173486709595e-05,-1.0977499186992645e-05,STATIONARY,0,0.0,0.0,0.0,0.009531232563596283,-0.36820864767449046,0.01932558939073128
1769184118.0850272,0.05103111267089844,0.021092794835567474,-0.0004824517818633467,1.01719069480896,0.20692031733691693,-0.004732851980079431,9.978640716075898,0.20511646363196284,-0.005812859692306993,9.983322536050204,-0.00039110206545922566,-0.005844190370368992,0.0032095933578109026,0.0019602812826633453,-0.0002777939662337303,0.0005597046110779047,STATIONARY,0,0.0,0.0,0.0,0.009530214065585994,-0.36822386696579484,0.01933394773178206
1769184118.1385827,0.05356240272521973,0.020607901737093925,-0.0009649035637266934,1.0184091329574585,0.20216351604089142,-0.009465703960158863,9.990593594312669,0.20455609969690824,-0.006506039007193636,9.984702323091561,-0.0009514660005138231,-0.0065373696852556356,0.004589380399167453,0.0007341224700212479,0.0009377095848321915,0.07771796733140945,STATIONARY,0,0.0,0.0,0.0,0.00952748437529528,-0.3682426222282498,0.019347114347414388
1769184118.1889277,0.05034160614013672,0.021820131689310074,-0.0007236776873469353,1.0174343585968018,0.21405549187213183,-0.007099278112873435,9.981031057834626,0.20635874488980976,-0.00661861459122775,9.984005648131184,0.0008511791923876966,-0.006649945269289749,0.0038927054387905002,0.000444682314991951,0.0008963607251644135,-0.0001365361677017063,STATIONARY,0,0.0,0.0,0.0,0.009529641499408244,-0.36825947503365036,0.019356979542477636
1769184118.242379,0.05346822738647461,0.020850349217653275,-0.0004824517818633467,1.01719069480896,0.20454192582517863,-0.004732851980079431,9.978640716075898,0.20601397755177195,-0.0062607642316219875,9.982987575732308,0.0005064118543498808,-0.006292094909683987,0.0028746330399140874,0.0001093745231628418,0.0005712318234145641,0.00046356627717614174,STATIONARY,0,0.0,0.0,0.0,0.009531089255616569,-0.3682774631976134,0.019365197690995376
1769184118.2968729,0.054575204849243164,0.020607901737093925,-0.0004824517818633467,1.0179216861724854,0.20216351604089142,-0.004732851980079431,9.985811741352082,0.20528329754561905,-0.005970821083195895,9.983523501450978,-0.0002242681518030143,-0.006002151761257894,0.0034105587585848696,-0.0014058630913496017,0.0005925684235990047,-0.0013536806218326092,STATIONARY,0,0.0,0.0,0.0,0.00953042128347054,-0.36829534032443917,0.01937535587990814
1769184118.3379774,0.04118943214416504,0.019880564883351326,-0.0,1.0201150178909302,0.19502834150567652,-0.0,10.007328325510025,0.20333727332977142,-0.004837772597065281,9.988040806439168,-0.0021702923676506503,-0.00486910327512728,0.007927863746774122,-0.0010587051510810852,0.0011683693155646324,0.0023505480494350195,STATIONARY,0,0.0,0.0,0.0,0.009526739232023374,-0.3683036010956734,0.0193888060503169
1769184118.3890557,0.0510106086730957,0.019880564883351326,-0.00024122589093167335,1.0188965797424316,0.19502834150567652,-0.0023664259900397157,9.995375447273254,0.20176053497277244,-0.00436879931972575,9.98943265918062,-0.0037470307246496304,-0.004400129997787749,0.009319716488226604,0.0004578903317451477,-0.0003417879343032837,0.0004603120032697916,STATIONARY,0,0.0,0.0,0.0,0.009516989150082403,-0.368315050595606,0.019413056718673865
1769184118.4383667,0.04921317100524902,0.022547468543052673,-0.0,1.0186527967453003,0.22119066640734675,-0.0,9.992983936071397,0.2054476796218095,-0.003539757319228527,9.990106564636648,-5.988607561258075e-05,-0.0035710879972905263,0.009993621944254016,-0.0016493722796440125,0.0008304249495267868,0.0016360725276172161,STATIONARY,0,0.0,0.0,0.0,0.009516844109827978,-0.3683236995429014,0.019437260633433685
1769184118.4884164,0.04993891716003418,0.020607901737093925,0.0007283777231350541,1.017678141593933,0.20216351604089142,0.007145385463954881,9.983422569036485,0.2048244627272291,-0.0015120990313845979,9.988838181111074,-0.0006831029701929725,-0.0015434297094465974,0.008725238418680448,-0.00251043401658535,-0.000983908772468567,0.0012812413042411208,STATIONARY,0,0.0,0.0,0.0,0.009515140522440702,-0.3683275486952267,0.01945902046580104
1769184118.541991,0.05363726615905762,0.021577686071395874,-0.06151260435581207,1.017678141593933,0.21167710036039353,-0.6034386487305164,9.983422569036485,0.20612484848457668,-0.11573624951176996,9.987810491455484,0.000617282787154616,-0.11576758018983196,0.007697548763090367,-6.697326898574829e-05,-0.0006784764118492603,-0.07660408318042755,STATIONARY,0,0.0,0.0,0.0,0.009516916418057061,-0.36866060696682273,0.019481165977371356
1769184118.5921667,0.0502161979675293,0.020607901737093925,-0.0014473553746938705,1.0188965797424316,0.20216351604089142,-0.01419855622574687,9.995375447273254,0.20537312913713054,-0.096468023574351,9.98924604975099,-0.00013443656029152318,-0.096499354252413,0.009133107058596934,-0.001270987093448639,-0.0003555626608431339,0.0015590237453579903,STATIONARY,0,0.0,0.0,0.0,0.009516577413881448,-0.36890394615940997,0.01950419662783186
1769184118.638578,0.046361446380615234,0.021820131689310074,-0.00024122589093167335,1.01719069480896,0.21405549187213183,-0.0023664259900397157,9.978640716075898,0.20702073133720594,-0.07861090288697198,9.987233536380042,0.0015131656397838755,-0.07864223356503398,0.007120593687648835,-0.001564251258969307,-0.0012244214303791523,0.0027890100609511137,STATIONARY,0,0.0,0.0,0.0,0.009519829787458892,-0.3690729784951922,0.019519501515913203
1769184118.688713,0.050078630447387695,0.021335240453481674,-0.00024122589093167335,1.0169469118118286,0.20929870884865523,-0.0023664259900397157,9.976249204874039,0.20745301006986655,-0.0641424256172344,9.985149102763524,0.0019454443724444825,-0.06417375629529641,0.005036160071130169,-0.0015020202845335007,0.0012036431580781937,0.0021004981826990843,STATIONARY,0,0.0,0.0,0.0,0.009524708707534331,-0.3692339178838174,0.019532131546780285
1769184118.7387924,0.05017876625061035,0.022062579169869423,-0.0014473553746938705,1.0174343585968018,0.21643390165641904,-0.01419855622574687,9.981031057834626,0.2091572623786294,-0.05466486385193683,9.984367644986195,0.0036496966812073206,-0.054696194529998826,0.004254702293801316,-0.0029635466635227203,-0.0018041394650936127,0.00290110195055604,STATIONARY,0,0.0,0.0,0.0,0.009533898310131222,-0.3693716379014509,0.019542844498201546
1769184118.7922778,0.05336141586303711,0.018910780549049377,-0.0007236776873469353,1.0174343585968018,0.1855147571861744,-0.007099278112873435,9.981031057834626,0.20467075971117582,-0.0456386153406157,9.983734479971158,-0.0008368059862462474,-0.0456699460186777,0.003621537278764464,0.0018945969641208649,-0.003270737361162901,0.0024940120056271553,STATIONARY,0,0.0,0.0,0.0,0.009531515554705548,-0.3695016803646441,0.019553156610856198
1769184118.8423364,0.05010843276977539,0.022305024787783623,-0.0007236776873469353,1.0191402435302734,0.21881229316815734,-0.007099278112873435,9.997765789031982,0.20735431744163488,-0.03832522626163868,9.986397121049876,0.00184675174421281,-0.03835655693970068,0.006284178357482517,-0.002072444185614586,9.614787995815277e-05,0.005499676801264286,STATIONARY,0,0.0,0.0,0.0,0.00953615248062024,-0.3695979881187477,0.019568935271723677
1769184118.8923926,0.05081319808959961,0.020850349217653275,-0.00024122589093167335,1.0181653499603271,0.20454192582517863,-0.0023664259900397157,9.98820208311081,0.20682062600807302,-0.031501530886562976,9.986739638352299,0.0013130603106509542,-0.031532861564624974,0.006626695659905479,-0.0011226572096347809,-0.0014136005192995071,0.004720815923064947,STATIONARY,0,0.0,0.0,0.0,0.009539542777525624,-0.3696794053713394,0.01958604527467362
1769184118.9389968,0.04587221145629883,0.020850349217653275,0.00048558515845797956,1.0188965797424316,0.20454192582517863,0.00476359040447278,9.995375447273254,0.20638821013819536,-0.02461970672777281,9.988378406301976,0.0008806444407732927,-0.024651037405834807,0.008265463609582469,0.00037083588540554047,-0.0022522401995956898,0.006165903992950916,STATIONARY,0,0.0,0.0,0.0,0.00954139588220625,-0.36973127755798374,0.019603437957342484
1769184118.9890997,0.05004453659057617,0.020123012363910675,-0.0004824517818633467,1.0188965797424316,0.19740675128996374,-0.004732851980079431,9.995375447273254,0.2046838501834358,-0.020845892314008345,9.98970619465293,-0.0008237155139862729,-0.020877222992070343,0.00959325196053662,0.0003786645829677582,0.0010706037282943726,0.0039037165697664022,STATIONARY,0,0.0,0.0,0.0,0.009539332923239378,-0.36978356363690734,0.019627463831345605
1769184119.0393794,0.050392866134643555,0.020123012363910675,-0.0009649035637266934,1.0184091329574585,0.19740675128996374,-0.009465703960158863,9.990593594312669,0.20330291684616386,-0.0186863392129282,9.98987459139888,-0.0022046488512582063,-0.018717669890990198,0.00976164870648688,0.0006663408130407333,0.000144115649163723,0.0034934906288981438,STATIONARY,0,0.0,0.0,0.0,0.009533734347650109,-0.3698310960544531,0.01965225296188128
1769184119.0926104,0.05314779281616211,0.020850349217653275,-0.00024122589093167335,1.0174343585968018,0.20454192582517863,-0.0023664259900397157,9.981031057834626,0.20353803647685015,-0.015589402842984367,9.988196404734532,-0.0019695292205719195,-0.015620733521046367,0.008083462042138834,-0.0008169878274202347,-0.0007413974963128567,0.003982694819569588,STATIONARY,0,0.0,0.0,0.0,0.009528171042329031,-0.3698752197511259,0.019675086219150092
1769184119.1429203,0.050388336181640625,0.021577686071395874,-0.00024122589093167335,1.0179216861724854,0.21167710036039353,-0.0023664259900397157,9.985811741352082,0.20508253996862671,-0.013080154333171407,9.987743880835763,-0.00042502572879535294,-0.013111485011233407,0.007630938143369903,0.002503441646695137,-0.00012618163600564003,0.08074675500392914,STATIONARY,0,0.0,0.0,0.0,0.00952709190862418,-0.36990850960733385,0.01969446105223016
1769184119.1931653,0.05023765563964844,0.020607901737093925,-0.00024122589093167335,1.0184091329574585,0.20216351604089142,-0.0023664259900397157,9.990593594312669,0.20452861353267843,-0.011047071527497634,9.988284654624817,-0.0009789521647436406,-0.011078402205559635,0.008171711932423165,0.001249084249138832,0.0013896147720515728,0.0034070387482643127,STATIONARY,0,0.0,0.0,0.0,0.009524621207570616,-0.3699364695230344,0.0197150849989438
1769184119.2395344,0.04636693000793457,0.020365456119179726,-0.00024122589093167335,1.0184091329574585,0.19978512452915312,-0.0023664259900397157,9.990593594312669,0.20362846881898944,-0.009399795190155326,9.988722808872186,-0.001879096878432629,-0.009431125868217326,0.008609866179792647,-0.0003142319619655609,0.0001421002671122551,0.002728209365159273,STATIONARY,0,0.0,0.0,0.0,0.00952058135185171,-0.3699567454269602,0.019733595283072666
1769184119.2891068,0.04947018623352051,0.020365456119179726,-0.00024122589093167335,1.0188965797424316,0.19978512452915312,-0.0023664259900397157,9.995375447273254,0.20289913940707094,-0.008065113039484822,9.989985241921858,-0.002608426290351129,-0.008096443717546822,0.009872299229463977,0.0008974373340606689,0.0007329154759645462,0.0023420231882482767,STATIONARY,0,0.0,0.0,0.0,0.009514197751949467,-0.369976559848213,0.019757755754322797
1769184119.3397071,0.05071735382080078,0.020607901737093925,-0.0009649035637266934,1.0179216861724854,0.20216351604089142,-0.009465703960158863,9.985811741352082,0.2027595443782134,-0.008330895148887537,9.989193260645488,-0.0027480213192086766,-0.008362225826949538,0.009080317953094053,-0.0006390195339918137,-0.00016717566177248955,0.0007977940840646625,STATIONARY,0,0.0,0.0,0.0,0.009507129154169984,-0.36999806958341724,0.019781112601983182
1769184119.3926866,0.05288386344909668,0.020850349217653275,0.060698140412569046,1.0179216861724854,0.20454192582517863,0.5954487574473024,9.985811741352082,0.20309777668697826,0.10624490804439944,9.98855156911549,-0.002409789010443808,0.10621357736633744,0.008438626423096451,-2.8153881430625916e-05,0.0016654198989272118,0.002019524574279785,STATIONARY,0,0.0,0.0,0.0,0.009500389689983051,-0.3697010217515431,0.01980471293392879
1769184119.4433408,0.05067896842956543,0.021092794835567474,-0.0,1.0188965797424316,0.20692031733691693,-0.0,9.995375447273254,0.20382315831142103,0.08608342094883248,9.989846497352069,-0.0016844073860010356,0.08605209027077047,0.009733554659675292,0.0011638868600130081,0.00101435836404562,0.0040391660295426846,STATIONARY,0,0.0,0.0,0.0,0.009496063529065634,-0.36948000919075447,0.019829712185360594
1769184119.4968233,0.053417205810546875,0.021335240453481674,0.00048558515845797956,1.0169469118118286,0.20929870884865523,0.00476359040447278,9.976249204874039,0.20486222214543967,0.07065182291451873,9.987266217112042,-0.0006453435519823969,0.07062049223645672,0.007153274419648525,0.0005345884710550308,-0.001421845518052578,0.001913476618938148,STATIONARY,0,0.0,0.0,0.0,0.009494222107144725,-0.36927850082816205,0.0198501233234004
1769184119.5376446,0.04085969924926758,0.020365456119179726,-0.0007236776873469353,1.0191402435302734,0.19978512452915312,-0.007099278112873435,9.997765789031982,0.2038987704378913,0.05589744222104772,9.989258660681049,-0.0016087952595307542,0.05586611154298572,0.009145717988655377,-0.0012648366391658783,0.0006771706975996494,0.0030357546638697386,STATIONARY,0,0.0,0.0,0.0,0.009491536199290425,-0.36918523151567895,0.01986539223697621
1769184119.5892208,0.05167722702026367,0.022062579169869423,-0.0007236776873469353,1.0179216861724854,0.21643390165641904,-0.007099278112873435,9.985811741352082,0.2062774904250927,0.04394291576463988,9.988604558561242,0.0007699247276706234,0.04391158508657788,0.008491615868848612,-2.1480023860931396e-05,0.000654599629342556,0.0020538601092994213,STATIONARY,0,0.0,0.0,0.0,0.009493592310833203,-0.3690679640559997,0.019888069401090162
1769184119.640014,0.05074357986450195,0.020850349217653275,-0.00024122589093167335,1.0181653499603271,0.20454192582517863,-0.0023664259900397157,9.98820208311081,0.2059481422809909,0.03515505747216532,9.988528183102414,0.0004405765835688302,0.03512372679410332,0.008415240410020175,0.001765890046954155,-0.0014592194929718971,0.002565813483670354,STATIONARY,0,0.0,0.0,0.0,0.009494726756279402,-0.36897752358911795,0.019909737895326712
1769184119.6936383,0.05366706848144531,0.022305024787783623,-0.0007236776873469353,1.0179216861724854,0.21881229316815734,-0.007099278112873435,9.985811741352082,0.20838929844443402,0.02713669445307829,9.988012699524864,0.0028817327470119503,0.02710536377501629,0.007899756832470572,0.00024591200053691864,0.001837192103266716,0.0021698991768062115,STATIONARY,0,0.0,0.0,0.0,0.009503026591067503,-0.3688994559607311,0.019932490413457918
1769184119.743745,0.050077199935913086,0.020365456119179726,-0.0,1.0186527967453003,0.19978512452915312,-0.0,9.992983936071397,0.206756533688419,0.02198711952188777,9.988956062584109,0.0012489679909969409,0.02195578884382577,0.008843119891714935,0.0002124793827533722,-0.0003009028732776642,0.003874134737998247,STATIONARY,0,0.0,0.0,0.0,0.00950615866051352,-0.3688443968592196,0.019954666534719587
1769184119.7973173,0.0535738468170166,0.019880564883351326,0.0007283777231350541,1.0184091329574585,0.19502834150567652,0.007145385463954881,9.990593594312669,0.2045309418958422,0.019170688737649124,9.989266807592237,-0.0009766238015798678,0.019139358059587126,0.009153864899843711,-0.0007005482912063599,0.000910323578864336,0.0028743904549628496,STATIONARY,0,0.0,0.0,0.0,0.009503355596811742,-0.36878946389550793,0.019980939564713546
1769184119.8376248,0.04024219512939453,0.020365456119179726,-0.0009649035637266934,1.0193839073181152,0.19978512452915312,-0.009465703960158863,10.00015613079071,0.20363035534202417,0.013736524668353966,9.991333212026921,-0.0018772103553978958,0.013705193990291966,0.0112202693345278,-0.0003970880061388016,-2.596341073513031e-05,0.003394323866814375,STATIONARY,0,0.0,0.0,0.0,0.009500315578032404,-0.36876726923469905,0.01999911005337941
1769184119.8891144,0.05152535438537598,0.022305024787783623,0.00024279257922898978,1.01719069480896,0.21881229316815734,0.00238179520223639,9.978640716075898,0.2065113446449597,0.01158180275444243,9.988924629836609,0.0010037789475376424,0.01155047207638043,0.008811687144214986,-0.0006992928683757782,0.0011811465956270695,0.0029909824952483177,STATIONARY,0,0.0,0.0,0.0,0.009502980472761706,-0.3687366043236319,0.020022503868008103
1769184119.9404662,0.05138278007507324,0.020607901737093925,-0.00024122589093167335,1.016459584236145,0.20216351604089142,-0.0023664259900397157,9.971468521356583,0.2056862821369473,0.008934927351054882,9.985612084206545,0.00017871643952524496,0.008903596672992882,0.005499141514151873,-0.000421108677983284,-0.0006499243900179863,0.0020105806179344654,STATIONARY,0,0.0,0.0,0.0,0.009503452318133947,-0.3687130971359462,0.020037022646927614
1769184119.9940002,0.05341982841491699,0.020850349217653275,0.06166931614279747,1.017678141593933,0.20454192582517863,0.6049759913608432,9.983422569036485,0.20546912420027882,0.12204222295377162,9.985196592465254,-3.844149714324341e-05,0.12201089227570962,0.005083649772860355,-0.0016428399831056595,-3.905920311808586e-05,0.07928504049777985,STATIONARY,0,0.0,0.0,0.0,0.009503342618476653,-0.36836491732861665,0.020051529746789205
1769184120.044216,0.05034613609313965,0.020850349217653275,-0.0007236776873469353,1.0188965797424316,0.20454192582517863,-0.007099278112873435,9.995375447273254,0.20529317508028147,0.0975357806669635,9.987128175386605,-0.00021439061714059737,0.0975044499889015,0.0070152326942114485,-0.0006821379065513611,-0.001849647145718336,0.002539117354899645,STATIONARY,0,0.0,0.0,0.0,0.009502799195414557,-0.36811776954067893,0.020069311491544856
1769184120.0976875,0.05345606803894043,0.020365456119179726,-0.00024122589093167335,1.0193839073181152,0.19978512452915312,-0.0023664259900397157,10.00015613079071,0.20424794390494933,0.07857791165085862,9.989600415794133,-0.0012596217924727426,0.07854658097279661,0.009487473101739141,-0.0004045255482196808,0.000283815898001194,0.002749738283455372,STATIONARY,0,0.0,0.0,0.0,0.009499199761637102,-0.3678933186631643,0.020096422431788316
1769184120.1478646,0.050205230712890625,0.019880564883351326,-0.0007236776873469353,1.0181653499603271,0.19502834150567652,-0.007099278112873435,9.98820208311081,0.20249839281379003,0.0623194425383054,9.989335062217485,-0.003009172883632033,0.062288111860243404,0.009222119525091443,0.004113446921110153,-0.003018842311576009,-0.07422862946987152,STATIONARY,0,0.0,0.0,0.0,0.009491614945213115,-0.36773631741660034,0.0201196673852499
1769184120.1982152,0.05034303665161133,0.021092794835567474,-0.0,1.0198713541030884,0.20692031733691693,-0.0,10.004937983751297,0.20333751607956893,0.05049343920632546,9.99229593918512,-0.002170049617853137,0.05046210852826346,0.012182996492725806,0.0013342127203941345,0.0006348993629217148,0.0030149633530527353,STATIONARY,0,0.0,0.0,0.0,0.009486115125154276,-0.36760842517191994,0.020150544231537747
1769184120.2377622,0.03953719139099121,0.019880564883351326,-0.0009649035637266934,1.0167032480239868,0.19502834150567652,-0.009465703960158863,9.97385886311531,0.20176073165733255,0.03911533635449614,9.98879724095945,-0.0037468340400895195,0.03908400567643414,0.008684298267056079,8.349865674972534e-05,0.0018199817277491093,0.003479741048067808,STATIONARY,0,0.0,0.0,0.0,0.009480258113512996,-0.3675473294645079,0.02016411943543049
1769184120.2932148,0.05575680732727051,0.022305024787783623,-0.0014473553746938705,1.0179216861724854,0.21881229316815734,-0.01419855622574687,9.985811741352082,0.20499650872832492,0.028998264609073576,9.988230699814883,-0.0005110569690971456,0.028966933931011577,0.008117757122489522,-0.0011103898286819458,-2.0992010831832886e-06,0.003964356612414122,STATIONARY,0,0.0,0.0,0.0,0.009478669328587376,-0.3674572764356796,0.020189356093818764
1769184120.3460357,0.052541494369506836,0.021820131689310074,-0.0012061294401064515,1.017678141593933,0.21405549187213183,-0.01183212980744429,9.983422569036485,0.2067155800242076,0.021250114742055758,9.987318288402168,0.0012080143267855226,0.02121878406399376,0.007205345709774491,-0.0004929695278406143,0.0005884752608835697,-0.07214350253343582,STATIONARY,0,0.0,0.0,0.0,0.009482004183363766,-0.36739869967726213,0.020209247233371485
1769184120.3980925,0.05195951461791992,0.020123012363910675,-0.0007236776873469353,1.0188965797424316,0.19740675128996374,-0.007099278112873435,9.995375447273254,0.20494909696299707,0.015870412987568312,9.988847249249293,-0.0005584687344249994,0.015839082309506314,0.00873430655689944,-0.0013976264744997025,0.0017952928319573402,0.08115015178918839,STATIONARY,0,0.0,0.0,0.0,0.009480496434411803,-0.36735593746287104,0.020232828036996678
1769184120.4482205,0.05016016960144043,0.020850349217653275,-0.00024122589093167335,1.0203588008880615,0.20454192582517863,-0.0023664259900397157,10.009719836711884,0.20487183043049292,0.012409712606922084,9.99280812050914,-0.0006357352669291438,0.012378381928860083,0.012695177816747005,-0.0010608360171318054,-0.0012473505921661854,0.003761660773307085,STATIONARY,0,0.0,0.0,0.0,0.009478896897388704,-0.36732479292644016,0.020264769645381573
1769184120.4896178,0.04135012626647949,0.020607901737093925,-0.0,1.0174343585968018,0.20216351604089142,-0.0,9.981031057834626,0.20435788913559463,0.010054792590617895,9.990573254843516,-0.001149676561827434,0.010023461912555895,0.010460312151122864,-0.0001498144119977951,0.0011865254491567612,0.002455272013321519,STATIONARY,0,0.0,0.0,0.0,0.009476931142530355,-0.36730765448106667,0.02028265503168382
1769184120.5446355,0.0550997257232666,0.020607901737093925,0.00048558515845797956,1.0188965797424316,0.20216351604089142,0.00476359040447278,9.995375447273254,0.20394147553379427,0.009050711486312927,9.99148453936985,-0.001566090163627798,0.009019380808250927,0.011371596677456353,-0.0025774985551834106,-4.412606358528137e-05,0.0026686876080930233,STATIONARY,0,0.0,0.0,0.0,0.0094721765244681,-0.36728027182335177,0.02031717896920352
1769184120.5896792,0.04506731033325195,0.020123012363910675,-0.06151260435581207,1.0179216861724854,0.19740675128996374,-0.6034386487305164,9.985811741352082,0.20270141837773725,-0.10717788298922826,9.990408045012273,-0.0028061473196848152,-0.10720921366729026,0.010295102319879845,0.001698557287454605,0.0014830371364951134,0.0017523897113278508,STATIONARY,0,0.0,0.0,0.0,0.009466477063987969,-0.3674980204326697,0.020338088965054225
1769184120.6448178,0.05511307716369629,0.019880564883351326,-0.0007236776873469353,1.017678141593933,0.19502834150567652,-0.007099278112873435,9.983422569036485,0.20124534256961762,-0.08818653989433126,9.98908245128421,-0.004262223127804443,-0.08821787057239326,0.008969508591816222,0.0010867659002542496,-0.0006331596523523331,0.001969045028090477,STATIONARY,0,0.0,0.0,0.0,0.009453530768916422,-0.36776597791606924,0.02036533341035764
1769184120.6915436,0.046647071838378906,0.019880564883351326,-0.0,1.017678141593933,0.19502834150567652,-0.0,9.983422569036485,0.20006557791989538,-0.07145188579364484,9.988008407878269,-0.005441987777526691,-0.07148321647170684,0.007895465185875139,-0.0014023222029209137,0.000268653966486454,0.001893320819362998,STATIONARY,0,0.0,0.0,0.0,0.009441689279360926,-0.3679215217717057,0.020382513542389617
1769184120.741154,0.04970574378967285,0.019395673647522926,-0.0004824517818633467,1.0208460092544556,0.19027155848219993,-0.004732851980079431,10.01449935078621,0.1982070230004981,-0.058790997248296784,9.993035442240844,-0.007300542696923956,-0.05882232792635878,0.012922499548450261,-0.003487957641482353,-0.0006664339452981949,0.0789819061756134,STATIONARY,0,0.0,0.0,0.0,0.009423652113491323,-0.368066851801224,0.02041444065760305
1769184120.7916398,0.05037498474121094,0.019638117402791977,-0.0019298071274533868,1.0179216861724854,0.1926499317213893,-0.018931407920317726,9.985811741352082,0.1971524856473685,-0.05122707149728748,9.991664641936794,-0.00835508005005356,-0.05125840217534948,0.011551699244400027,0.0010520350188016891,-0.00034896889701485634,-0.0007417651358991861,STATIONARY,0,0.0,0.0,0.0,0.009402449935775636,-0.36819692712615604,0.02044375470113473
1769184120.8446198,0.05304598808288574,0.020850349217653275,-0.00024122589093167335,1.0159721374511719,0.20454192582517863,-0.0023664259900397157,9.966686668395997,0.19855473734611462,-0.04195506691835956,9.98692471509714,-0.00695282835130745,-0.04198639759642156,0.006811772404747174,-0.00046938471496105194,0.0011591119691729546,-0.0752013623714447,STATIONARY,0,0.0,0.0,0.0,0.00938288553302412,-0.36831507167843847,0.02046292218982343
1769184120.8952625,0.05056571960449219,0.020607901737093925,-0.0007236776873469353,1.0174343585968018,0.20216351604089142,-0.007099278112873435,9.981031057834626,0.19923955458982756,-0.035340683705622995,9.985806309546879,-0.006268011107594507,-0.035372014383684994,0.005693366854485404,-0.002290865406394005,0.0005400669761002064,0.07855507731437683,STATIONARY,0,0.0,0.0,0.0,0.009366858905572716,-0.36840551409900885,0.020477479513981718
1769184120.9453676,0.05016326904296875,0.020123012363910675,-0.0007236776873469353,1.0167032480239868,0.19740675128996374,-0.007099278112873435,9.97385886311531,0.19889175401510756,-0.02998147407478641,9.983539111132492,-0.00661581168231451,-0.03001280475284841,0.003426168440098465,-0.0010688286274671555,-0.0006387545727193356,0.0015382409328594804,STATIONARY,0,0.0,0.0,0.0,0.009350211184286507,-0.3684810369271266,0.02048610096513681
1769184120.991885,0.04646039009094238,0.020365456119179726,-0.0,1.0140225887298584,0.19978512452915312,-0.0,9.947561595439911,0.19906128381584834,-0.024292061623958416,9.976711864239272,-0.006446281881573729,-0.024323392302020415,-0.003401078453121542,0.002909492701292038,0.00027801236137747765,-0.000309940951410681,STATIONARY,0,0.0,0.0,0.0,0.009336296447481648,-0.36853354061968946,0.02047875950654141
1769184121.0413039,0.049558162689208984,0.020365456119179726,-0.0012061294401064515,1.0142662525177002,0.19978512452915312,-0.01183212980744429,9.94995193719864,0.19919864291822,-0.0219276117961576,9.971633786299927,-0.006308922779202059,-0.0219589424742196,-0.008479156392466436,-0.00134359672665596,-0.0021290546283125877,0.0014970640186220407,STATIONARY,0,0.0,0.0,0.0,0.009320801660651893,-0.3685874720346953,0.02045793460102338
1769184121.0920308,0.05060696601867676,0.020607901737093925,-0.002412258880212903,1.01572847366333,0.20216351604089142,-0.02366425961488858,9.96429632663727,0.19976126989303702,-0.022257165496484183,9.970241398645536,-0.005746295804385043,-0.02228849617454618,-0.00987154404685775,0.002559654414653778,-0.00030171824619174004,0.0002812974853441119,STATIONARY,0,0.0,0.0,0.0,0.009306085023532381,-0.36864455432236487,0.020432652934974094
1769184121.1448216,0.05289793014526367,0.020607901737093925,-0.0016885813092812896,1.0142662525177002,0.20216351604089142,-0.01656498264404945,9.94995193719864,0.20021713037239386,-0.021176992589966994,9.966391183866616,-0.005290435325028209,-0.021208323268028993,-0.013721758825777641,0.0007129181176424026,-0.0002967086620628834,0.0005823150277137756,STATIONARY,0,0.0,0.0,0.0,0.009291281374947573,-0.36870389926194813,0.020394256832736286
1769184121.1958418,0.051012277603149414,0.021577686071395874,-0.00024122589093167335,1.015241026878357,0.21167710036039353,-0.0023664259900397157,9.959514473676682,0.2023918231767971,-0.01760741920762429,9.965086229998178,-0.0031157425206249645,-0.017638749885686287,-0.015026712694215405,-0.000517088919878006,-0.0005820714868605137,0.0771392285823822,STATIONARY,0,0.0,0.0,0.0,0.009283173426289043,-0.3687497997423399,0.020355153532567973
1769184121.2458498,0.050009727478027344,0.020123012363910675,-0.0,1.0142662525177002,0.19740675128996374,-0.0,9.94995193719864,0.20144583466434188,-0.014266160208252715,9.96221428201879,-0.00406173103308019,-0.014297490886314716,-0.017898660673603572,0.0016072876751422882,0.0015343772247433662,-0.0016574504552409053,STATIONARY,0,0.0,0.0,0.0,0.009273015147282068,-0.3687855573787614,0.02031038946830748
1769184121.292284,0.046331167221069336,0.020365456119179726,-0.0007236776873469353,1.0142662525177002,0.19978512452915312,-0.007099278112873435,9.94995193719864,0.20113069122286897,-0.012906142080879918,9.95988732714252,-0.004376874474553094,-0.012937472758941918,-0.02022561554987412,0.001233227550983429,5.239713937044144e-05,-0.0004211970081087202,STATIONARY,0,0.0,0.0,0.0,0.009263619848957709,-0.36881332866094924,0.020266973626023296
1769184121.3434813,0.05162620544433594,0.021335240453481674,-0.0014473553746938705,1.0162159204483032,0.20929870884865523,-0.01419855622574687,9.969078179597854,0.20268068910031864,-0.013151396103717173,9.961631422521641,-0.002826876597103428,-0.013182726781779173,-0.01848152017075222,-0.000579390674829483,-0.002316413912922144,-0.001017850823700428,STATIONARY,0,0.0,0.0,0.0,0.009256085473453723,-0.368848464122413,0.020217715475528288
1769184121.3936868,0.05012774467468262,0.018910780549049377,-0.0004824517818633467,1.0147536993026733,0.1855147571861744,-0.004732851980079431,9.954733790159226,0.199423208613576,-0.011553857249043276,9.960322498372479,-0.006084357083846081,-0.011585187927105276,-0.019790444319914613,2.537854015827179e-05,8.243601769208908e-05,0.07589269429445267,STATIONARY,0,0.0,0.0,0.0,0.009240796757033666,-0.36887757527589227,0.02016798622938699
1769184121.4474792,0.053818464279174805,0.019880564883351326,-0.0,1.0169469118118286,0.19502834150567652,-0.0,9.976249204874039,0.19858921987836414,-0.009361347997369186,9.963344818157177,-0.006918345819057925,-0.009392678675431186,-0.0167681245352167,0.0012055393308401108,0.0003749406896531582,-0.00013955181930214167,STATIONARY,0,0.0,0.0,0.0,0.009220758272734378,-0.36890478048492464,0.020119418579111134
1769184121.49374,0.046166181564331055,0.021092794835567474,-0.0009649035637266934,1.0145100355148315,0.20692031733691693,-0.009465703960158863,9.952343448400498,0.2001701644807382,-0.009381151030153122,9.961257151289507,-0.005337401216683857,-0.009412481708215122,-0.018855791402886624,0.000865057110786438,-0.0017144163139164448,-0.003382675349712372,STATIONARY,0,0.0,0.0,0.0,0.00920938258241364,-0.36892484146080323,0.020079230923163296
1769184121.5476065,0.0540926456451416,0.021577686071395874,-0.0,1.016459584236145,0.21167710036039353,-0.0,9.971468521356583,0.20235376973314462,-0.007600943781472963,9.963194904445162,-0.0031537959642774505,-0.007632274459534963,-0.016918038247231593,-0.0009352900087833405,-0.00048635806888341904,-0.0024901586584746838,STATIONARY,0,0.0,0.0,0.0,0.009200154530282226,-0.36894717360511176,0.020029728501105862
1769184121.5944812,0.04681253433227539,0.019638117402791977,-0.0,1.0159721374511719,0.1926499317213893,-0.0,9.966686668395997,0.20051232802593624,-0.006158556256413825,9.963857516471764,-0.004995237671485825,-0.006189886934475824,-0.016255426220629587,0.00024661049246788025,0.0007007671520113945,-0.003623497672379017,STATIONARY,0,0.0,0.0,0.0,0.009189207899659555,-0.36896073820610253,0.019994106142741
1769184121.6441221,0.04965472221374512,0.020365456119179726,0.00048558515845797956,1.015241026878357,0.19978512452915312,0.00476359040447278,9.959514473676682,0.20037433078742278,-0.004085923101445765,9.963033362139285,-0.005133234909999285,-0.004117253779507764,-0.017079580553108542,-6.190687417984009e-05,9.195273742079735e-05,-0.0014157689874991775,STATIONARY,0,0.0,0.0,0.0,0.00917655143961558,-0.3689708896717699,0.019951994875162502
1769184121.6941628,0.049880266189575195,0.021820131689310074,-0.0007236776873469353,1.01572847366333,0.21405549187213183,-0.007099278112873435,9.96429632663727,0.202970526292119,-0.0046577502063444975,9.96327302767147,-0.00253703940530306,-0.004689080884406497,-0.016839915020923968,-3.9655715227127075e-05,-0.00018617603927850723,-0.002839794149622321,STATIONARY,0,0.0,0.0,0.0,0.009170239181670375,-0.3689825562970523,0.019910096476909316
1769184121.7480893,0.054129600524902344,0.020850349217653275,-0.0,1.0149974822998047,0.20454192582517863,-0.0,9.957125301361085,0.2032687217726452,-0.003773875652654401,9.962106408894575,-0.0022388439247768566,-0.0038052063307164002,-0.018006533797818136,0.00025691650807857513,-0.0004752231761813164,-0.0024297006893903017,STATIONARY,0,0.0,0.0,0.0,0.009163679338403875,-0.3689937056035537,0.019857337087038764
1769184121.794282,0.04608631134033203,0.020850349217653275,0.00048558515845797956,1.0142662525177002,0.20454192582517863,0.00476359040447278,9.94995193719864,0.20351033040639216,-0.002153769664443853,9.959799924482649,-0.0019972352910299085,-0.0021851003425058524,-0.020313018209744627,-0.0006323549896478653,0.0016225236468017101,-0.0038300245068967342,STATIONARY,0,0.0,0.0,0.0,0.009159437314316303,-0.3689983466432591,0.019814193290749956
1769184121.8483443,0.054090023040771484,0.021092794835567474,-0.0009649035637266934,1.0154846906661987,0.20692031733691693,-0.009465703960158863,9.96190481543541,0.20415742407667983,-0.0035413135162874207,9.960199357571376,-0.0013501416207422345,-0.00357264419434942,-0.019913585121017263,0.0011854711920022964,-0.0010989210568368435,-0.0027913739904761314,STATIONARY,0,0.0,0.0,0.0,0.009155487163672222,-0.3690087992376748,0.019755931505554023
1769184121.8944762,0.04600954055786133,0.020850349217653275,-0.00024122589093167335,1.0167032480239868,0.20454192582517863,-0.0023664259900397157,9.97385886311531,0.20423038876913682,-0.003318361846083266,9.962791443628252,-0.0012771769282852452,-0.0033496925241452654,-0.017321499064141932,-0.00036563165485858917,0.0001338571310043335,-0.004495083354413509,STATIONARY,0,0.0,0.0,0.0,0.009152783536157524,-0.36901589012749086,0.019719264008335364
1769184121.9446082,0.050238609313964844,0.019395673647522926,-0.0007236776873469353,1.0132914781570435,0.19027155848219993,-0.007099278112873435,9.940389400720596,0.20158150157181648,-0.0040358446499692965,9.958540336376991,-0.003926064125605588,-0.004067175328031296,-0.021572606315402254,0.0017385557293891907,0.00041960086673498154,-0.001672846730798483,STATIONARY,0,0.0,0.0,0.0,0.009142874472768627,-0.3690261553439646,0.019664816521844024
1769184121.9946153,0.04986214637756348,0.022062579169869423,-0.0009649035637266934,1.0154846906661987,0.21643390165641904,-0.009465703960158863,9.96190481543541,0.2043999563867877,-0.005066237921780329,9.959178794279287,-0.001107609310634361,-0.005097568599842328,-0.020934148413106257,0.0007645674049854279,0.0007059145718812943,-0.0031084916554391384,STATIONARY,0,0.0,0.0,0.0,0.009140120697239025,-0.3690388290905068,0.019612769337805768
1769184122.0485153,0.054112911224365234,0.020850349217653275,-0.0016885813092812896,1.01572847366333,0.20454192582517863,-0.01656498264404945,9.96429632663727,0.20442689711319775,-0.007248288785209621,9.960149919055954,-0.0010806685842243147,-0.00727961946327162,-0.019963023636439203,-0.0019333269447088242,-0.0005238587036728859,-0.001203086692839861,STATIONARY,0,0.0,0.0,0.0,0.009136956275751841,-0.3690601453243498,0.01955431346903482
1769184122.098524,0.04992198944091797,0.020365456119179726,0.00024279257922898978,1.0169469118118286,0.19978512452915312,0.00238179520223639,9.976249204874039,0.2035460545412915,-0.005420842956361228,9.96320498822815,-0.00196151115613058,-0.005452173634423228,-0.016907954464244312,0.002625510096549988,-0.0008824029937386513,-0.003015252761542797,STATIONARY,0,0.0,0.0,0.0,0.009132067787782644,-0.36907373325890447,0.019512175379876432
1769184122.148724,0.050245046615600586,0.020365456119179726,-0.0004824517818633467,1.0167032480239868,0.19978512452915312,-0.004732851980079431,9.97385886311531,0.20283236441436917,-0.005290286853057197,9.965226712986624,-0.0026752012830529026,-0.005321617531119196,-0.014886229705769694,-0.00040947645902633667,-0.0008984152227640152,-0.001642895513214171,STATIONARY,0,0.0,0.0,0.0,0.009125314069032896,-0.3690871680267205,0.019474594129705165
1769184122.19519,0.046463727951049805,0.020123012363910675,-0.0,1.0140225887298584,0.19740675128996374,-0.0,9.947561595439911,0.2018027769168909,-0.004286379446264701,9.961874504904229,-0.003704788780531154,-0.004317710124326701,-0.01823843778816503,-0.0003958269953727722,0.0012184842489659786,-0.004066236317157745,STATIONARY,0,0.0,0.0,0.0,0.009117315881983985,-0.3690964894361835,0.01943521956733436
1769184122.2453659,0.05016326904296875,0.020607901737093925,-0.0004824517818633467,1.0147536993026733,0.20216351604089142,-0.004732851980079431,9.954733790159226,0.20187123231232842,-0.004371103979371446,9.960519452404919,-0.003636333385093643,-0.0044024346574334456,-0.019593490287475035,-0.001293625682592392,-0.0003084847703576088,-0.005732500459998846,STATIONARY,0,0.0,0.0,0.0,0.00910816558152114,-0.36910756751831114,0.01938591541827554
1769184122.29845,0.05327606201171875,0.020607901737093925,-0.0014473553746938705,1.0162159204483032,0.20216351604089142,-0.01419855622574687,9.969078179597854,0.20192669731982982,-0.006236003251201001,9.96214359299698,-0.00358086837759225,-0.006267333929263001,-0.017969349695412973,-0.0006448626518249512,-0.0006287842988967896,-0.003184459637850523,STATIONARY,0,0.0,0.0,0.0,0.009098001863926496,-0.36912535633527155,0.019334912316121198
1769184122.3465579,0.04837656021118164,0.019395673647522926,-0.0004824517818633467,1.0167032480239868,0.19027155848219993,-0.004732851980079431,9.97385886311531,0.19971496844173886,-0.0059507588520742415,9.964366732643477,-0.005792597255683207,-0.005982089530136241,-0.015746210048916964,-0.0006284154951572418,-1.2274831533432007e-05,-0.0018771213945001364,STATIONARY,0,0.0,0.0,0.0,0.00908444549735505,-0.36913935616901694,0.019298061593360408
1769184122.3979883,0.05080294609069824,0.021335240453481674,0.00024279257922898978,1.016459584236145,0.20929870884865523,0.00238179520223639,9.971468521356583,0.20153361991499874,-0.004369537839873896,9.965714398372876,-0.003973945782423327,-0.004400868517935895,-0.01439854431951737,0.000298473984003067,-0.0006376998499035835,-0.0030258463229984045,STATIONARY,0,0.0,0.0,0.0,0.009074188984383967,-0.3691507145436676,0.0192608998240099
1769184122.4518552,0.05370736122131348,0.020607901737093925,-0.0014473553746938705,1.0167032480239868,0.20216351604089142,-0.01419855622574687,9.97385886311531,0.20165315169160328,-0.006234734309017194,9.96725992675468,-0.0038544140058187903,-0.0062660649870791936,-0.012853015937713153,-0.0003171190619468689,-0.0012422786094248295,-0.002019047038629651,STATIONARY,0,0.0,0.0,0.0,0.009063071001769573,-0.36916878888687044,0.019223825548251694
1769184122.4946742,0.042740821838378906,0.021092794835567474,0.00048558515845797956,1.0162159204483032,0.20692031733691693,0.00476359040447278,9.969078179597854,0.2026526715193566,-0.004147645281736775,9.967604966172653,-0.0028548941780654757,-0.004178975959798774,-0.012507976519740893,-0.003044571727514267,0.0002955775707960129,-0.0035239052958786488,STATIONARY,0,0.0,0.0,0.0,0.009057855744316935,-0.3691764229475954,0.01920097625377935
1769184122.5448303,0.0502171516418457,0.020365456119179726,-0.0016885813092812896,1.0167032480239868,0.19978512452915312,-0.01656498264404945,9.97385886311531,0.2021085135667255,-0.006504012204158573,9.968791732341755,-0.003399052130696578,-0.006535342882220572,-0.011321210350638822,-0.003023846074938774,0.002087521366775036,0.0728544294834137,STATIONARY,0,0.0,0.0,0.0,0.00904928414273336,-0.3691929035290177,0.01917242685211141
1769184122.5953958,0.05060696601867676,0.018910780549049377,-0.0,1.0167032480239868,0.1855147571861744,-0.0,9.97385886311531,0.1989596115506999,-0.005269783095797408,9.969753292698698,-0.006547954146722157,-0.005301113773859408,-0.010359649993695541,1.432374119758606e-05,0.0020431773737072945,-0.004257557447999716,STATIONARY,0,0.0,0.0,0.0,0.009032514406483623,-0.3692064800260159,0.019145895115000693
1769184122.6486175,0.05325603485107422,0.020850349217653275,-0.0012061294401064515,1.01572847366333,0.20454192582517863,-0.01183212980744429,9.96429632663727,0.20001893532705697,-0.006515082009211822,9.968717755534108,-0.005488630370365094,-0.006546412687273821,-0.01139518715828558,0.0024667102843523026,0.0007991143502295017,-0.004991311579942703,STATIONARY,0,0.0,0.0,0.0,0.009016947524222538,-0.36922504699603553,0.01911357602537975
1769184122.6984363,0.04966330528259277,0.020850349217653275,-0.0009649035637266934,1.0169469118118286,0.20454192582517863,-0.009465703960158863,9.976249204874039,0.20087723730349752,-0.007075004620872938,9.970146955497409,-0.004630328393924549,-0.007106335298934938,-0.009965987194984649,7.294677197933197e-05,-9.813625365495682e-05,-0.006311302073299885,STATIONARY,0,0.0,0.0,0.0,0.009005527079039278,-0.3692425743733252,0.019088995477138996
1769184122.7520776,0.053742408752441406,0.019638117402791977,0.00048558515845797956,1.0167032480239868,0.1926499317213893,0.00476359040447278,9.97385886311531,0.1993159886904756,-0.00482846231379686,9.970851342925624,-0.006191577006946475,-0.00485979299185886,-0.00926159976676999,0.0003455784171819687,0.001411678735166788,-0.004619631450623274,STATIONARY,0,0.0,0.0,0.0,0.008987644278428682,-0.3692566106534174,0.01906224569404198
1769184122.8020027,0.04979825019836426,0.020365456119179726,0.00024279257922898978,1.0167032480239868,0.19978512452915312,0.00238179520223639,9.97385886311531,0.199405013909017,-0.003460213081518646,9.971422062789852,-0.006102551788405075,-0.0034915437595806455,-0.008690879902541582,0.003097318112850189,-0.0019235247746109962,-0.0044707017950713634,STATIONARY,0,0.0,0.0,0.0,0.00897251076942689,-0.36926526921310654,0.01904069347887053
1769184122.85213,0.0502009391784668,0.021335240453481674,-0.06151260435581207,1.01719069480896,0.20929870884865523,-0.6034386487305164,9.978640716075898,0.20128248367697646,-0.11731468112718388,9.972791905239273,-0.0042250820204456085,-0.11734601180524588,-0.007321037453120738,4.299357533454895e-05,-9.092921391129494e-05,-0.0044707017950713634,STATIONARY,0,0.0,0.0,0.0,0.008961862995330512,-0.369560996921768,0.019022243481314333
1769184122.8936138,0.04142308235168457,0.020123012363910675,-0.00024122589093167335,1.01572847366333,0.19740675128996374,-0.0023664259900397157,9.96429632663727,0.20054700816153836,-0.09550160975027627,9.971179747993279,-0.004960557535883703,-0.09553294042833828,-0.008933194699114466,0.001512773334980011,0.0011183461174368858,-0.0034056496806442738,STATIONARY,0,0.0,0.0,0.0,0.008953351314782927,-0.36972491919558814,0.019006915264879343
1769184122.9486127,0.05507636070251465,0.020850349217653275,-0.0,1.016459584236145,0.20454192582517863,-0.0,9.971468521356583,0.20130510078363067,-0.07737881678045766,9.97123454685889,-0.004202464913791393,-0.07741014745851967,-0.008878395833503916,-8.862465620040894e-06,0.00020036054775118828,-0.0030069779604673386,STATIONARY,0,0.0,0.0,0.0,0.008940603534565274,-0.369959735563282,0.018979983490053715
1769184122.9987872,0.05009269714355469,0.019880564883351326,-0.0007236776873469353,1.01719069480896,0.19502834150567652,-0.007099278112873435,9.978640716075898,0.2001139961602301,-0.0640422716414025,9.972639973131496,-0.005393569537191972,-0.0640736023194645,-0.007472969560897269,-0.0006243083626031876,0.0013898322358727455,-0.004673218820244074,STATIONARY,0,0.0,0.0,0.0,0.008927069567527677,-0.370120514063641,0.01896123172964482
1769184123.0525362,0.053917646408081055,0.019880564883351326,0.00024279257922898978,1.01572847366333,0.19502834150567652,0.00238179520223639,9.96429632663727,0.19914892063258746,-0.051437357286886316,9.971056647170567,-0.006358645064834606,-0.051468687964948315,-0.00905629552182674,0.0014683138579130173,0.002559846267104149,-0.004227250814437866,STATIONARY,0,0.0,0.0,0.0,0.008908584270377733,-0.37027013933463016,0.01893490405887664
1769184123.1024423,0.04974555969238281,0.020365456119179726,0.00048558515845797956,1.016459584236145,0.19978512452915312,0.00476359040447278,9.971468521356583,0.19926964939867003,-0.040772425644567484,9.971134806173565,-0.006237916298752033,-0.04080375632262948,-0.00897813651882906,-0.001263132318854332,0.0003875698894262314,-0.0016233933856710792,STATIONARY,0,0.0,0.0,0.0,0.008893147793523156,-0.37037111315503557,0.018912686576317943
1769184123.1456013,0.04333186149597168,0.020607901737093925,-0.0,1.01572847366333,0.20216351604089142,-0.0,9.96429632663727,0.19981880188077353,-0.03303527617906665,9.96983710711709,-0.00568876381664854,-0.03306660685712865,-0.010275835575303205,-0.0027225278317928314,7.939944043755531e-05,-0.0024499937426298857,STATIONARY,0,0.0,0.0,0.0,0.00888246628488728,-0.3704332006766989,0.018893392151382034
1769184123.1991959,0.0535433292388916,0.020607901737093925,0.00048558515845797956,1.0169469118118286,0.20216351604089142,0.00476359040447278,9.976249204874039,0.20026374484464954,-0.025862401969108134,9.971053894147751,-0.005243820852772529,-0.025893732647170133,-0.009059048544642678,-0.0018520168960094452,-0.0005187983624637127,-0.002368333050981164,STATIONARY,0,0.0,0.0,0.0,0.008867432837254555,-0.3705074351108446,0.01886742087285786
1769184123.249255,0.0500490665435791,0.021092794835567474,-0.0012061294401064515,1.017678141593933,0.20692031733691693,-0.01183212980744429,9.983422569036485,0.20152692444425416,-0.02319995765679844,9.973401026671544,-0.00398064125316791,-0.023231288334860437,-0.006711916020849529,0.0009023118764162064,-0.0007967590354382992,-0.0013834493001922965,STATIONARY,0,0.0,0.0,0.0,0.008857461692907386,-0.37056562737551385,0.018850608133594633
1769184123.2991982,0.049828529357910156,0.019880564883351326,-0.0007236776873469353,1.0181653499603271,0.19502834150567652,-0.007099278112873435,9.98820208311081,0.20029372561649622,-0.02014462400524078,9.976209738297294,-0.005213840080925847,-0.02017595468330278,-0.00390320439509928,-0.0011945273727178574,-0.0007954374887049198,-0.0022079532500356436,STATIONARY,0,0.0,0.0,0.0,0.008844516341457444,-0.3706157218970487,0.018840916936340546
1769184123.3457801,0.046572208404541016,0.021820131689310074,-0.0,1.0174343585968018,0.21405549187213183,-0.0,9.981031057834626,0.20290521710236825,-0.01632189419726746,9.97712465246518,-0.002602348595053816,-0.016353224875329458,-0.0029882902272131417,-0.0015004351735115051,-0.00017841998487710953,-0.0018492017406970263,STATIONARY,0,0.0,0.0,0.0,0.008838871923875074,-0.3706511915609478,0.018834435422706373
1769184123.395947,0.05030512809753418,0.020607901737093925,-0.0012061294401064515,1.0167032480239868,0.20216351604089142,-0.01183212980744429,9.97385886311531,0.20276446874411766,-0.015469897348912829,9.976504922343086,-0.002743096953304408,-0.01550122802697483,-0.00360802034930785,0.0015525687485933304,0.00039784330874681473,-0.07777842879295349,STATIONARY,0,0.0,0.0,0.0,0.008831930226505358,-0.3706904190602502,0.018825304945076518
1769184123.4459093,0.0498809814453125,0.021335240453481674,-0.0007236776873469353,1.0159721374511719,0.20929870884865523,-0.007099278112873435,9.966686668395997,0.20400443402783663,-0.013881452925404205,9.974641768579778,-0.0015031316695854335,-0.013912783603466206,-0.005471174112615884,-0.0020724888890981674,0.0021661906503140926,-0.001077683293260634,STATIONARY,0,0.0,0.0,0.0,0.00882819026609479,-0.3707250356283996,0.01881169204941705
1769184123.4995086,0.05359363555908203,0.020365456119179726,-0.0,1.0174343585968018,0.19978512452915312,-0.0,9.981031057834626,0.2032037598536507,-0.011247249186376073,9.975854227371757,-0.002303805843771378,-0.011278579864438074,-0.004258715320636597,-0.0008324943482875824,0.0003477106802165508,-0.0004613526398316026,STATIONARY,0,0.0,0.0,0.0,0.008821573095777708,-0.3707574308426489,0.01879945983606244
1769184123.5497005,0.050609588623046875,0.020123012363910675,-0.0009649035637266934,1.017678141593933,0.19740675128996374,-0.009465703960158863,9.983422569036485,0.2021036947728769,-0.010909175562428496,9.97729042818003,-0.003403870924545166,-0.010940506240490496,-0.002822514512363483,-0.0011302810162305832,0.0006061382591724396,-0.00014062893751543015,STATIONARY,0,0.0,0.0,0.0,0.00881285465749474,-0.370785453094537,0.018792230443666454
1769184123.5997317,0.049704551696777344,0.020123012363910675,-0.0004824517818633467,1.0154846906661987,0.19740675128996374,-0.004732851980079431,9.96190481543541,0.20121238273578815,-0.009737130045183204,9.974370788655486,-0.00429518296163392,-0.009768460723245205,-0.005742154036907365,-0.0005273371934890747,0.0011612987145781517,0.0007800974417477846,STATIONARY,0,0.0,0.0,0.0,0.008802243225617228,-0.3708095864915165,0.018778044208309988
1769184123.6463358,0.0465092658996582,0.019880564883351326,-0.0009649035637266934,1.017678141593933,0.19502834150567652,-0.009465703960158863,9.983422569036485,0.20003887268477238,-0.00968562307311889,9.976088493124363,-0.0054686930126496835,-0.00971695375118089,-0.004024449568030164,6.672553718090057e-05,-0.0021923109889030457,-0.0007242433493956923,STATIONARY,0,0.0,0.0,0.0,0.008790413831151554,-0.3708306053489769,0.018769338873902423
1769184123.6962686,0.049936532974243164,0.020607901737093925,-0.00024122589093167335,1.0167032480239868,0.20216351604089142,-0.0023664259900397157,9.97385886311531,0.20044205407384352,-0.00829670100375492,9.975665389020055,-0.005065511623578545,-0.00832803168181692,-0.004447553672338955,0.0009665004909038544,-0.000653968658298254,-0.07638749480247498,STATIONARY,0,0.0,0.0,0.0,0.008777782180984075,-0.3708513726061871,0.018758248199106896
1769184123.7464068,0.0502171516418457,0.020850349217653275,-0.0004824517818633467,1.0174343585968018,0.20454192582517863,-0.004732851980079431,9.981031057834626,0.20122006323145397,-0.007620409806144252,9.976683601229517,-0.004287502465968096,-0.007651740484206251,-0.003429341462876323,-0.0008271317929029465,0.0008592312224209309,0.0005823312676511705,STATIONARY,0,0.0,0.0,0.0,0.00876697011882269,-0.3708706684770151,0.018749600215026762
1769184123.799911,0.05343294143676758,0.021092794835567474,-0.0007236776873469353,1.0174343585968018,0.20692031733691693,-0.007099278112873435,9.981031057834626,0.20230176777338568,-0.007521517632369865,9.97750859314542,-0.0032057979240363854,-0.007552848310431864,-0.002604349546974305,0.001592736691236496,-0.000380699522793293,0.00204422976821661,STATIONARY,0,0.0,0.0,0.0,0.008757817311752321,-0.370892232457358,0.018742164590726012
1769184123.8499808,0.05008363723754883,0.021092794835567474,-0.0,1.0169469118118286,0.20692031733691693,-0.0,9.976249204874039,0.20317820344582713,-0.006094202352274443,9.977269606253255,-0.002329362251594941,-0.006125533030336442,-0.0028433364391382554,-0.0011176206171512604,-0.0006531686522066593,-7.553095929324627e-05,STATIONARY,0,0.0,0.0,0.0,0.008751974407686611,-0.3709075975650492,0.018735032448857977
1769184123.903524,0.053488969802856445,0.020850349217653275,-0.0004824517818633467,1.01572847366333,0.20454192582517863,-0.004732851980079431,9.96429632663727,0.20343698922351108,-0.005835866696789805,9.974807741356582,-0.0020705764739109844,-0.005867197374851804,-0.0053052013358119154,0.00010568834841251373,-7.117586210370064e-05,-0.0012691635638475418,STATIONARY,0,0.0,0.0,0.0,0.00874605034368098,-0.37092438402680045,0.01871985389705267
1769184123.9465864,0.043031930923461914,0.020365456119179726,-0.0004824517818633467,1.017678141593933,0.19978512452915312,-0.004732851980079431,9.983422569036485,0.20274399579667046,-0.005626553917603406,9.976442527816431,-0.0027635699007516057,-0.005657884595665405,-0.0036704148759625355,0.000998014584183693,0.0011273464187979698,0.00022921187337487936,STATIONARY,0,0.0,0.0,0.0,0.008740932911189646,-0.3709348609980738,0.018713057217027384
1769184123.9966822,0.05016040802001953,0.020607901737093925,0.00024279257922898978,1.017678141593933,0.20216351604089142,0.00238179520223639,9.983422569036485,0.20263384148131744,-0.004106855417144718,9.977767090222056,-0.0028737242161046284,-0.004138186095206717,-0.002345852470337917,0.0018353648483753204,-0.0028040260076522827,0.0005269183893688023,STATIONARY,0,0.0,0.0,0.0,0.008733702429865195,-0.3709452729496142,0.018707154896136034
1769184124.046877,0.05026555061340332,0.019880564883351326,-0.0016885813092812896,1.0167032480239868,0.19502834150567652,-0.01656498264404945,9.97385886311531,0.2011905893534118,-0.006470962798321104,9.977025448369947,-0.004316976344010265,-0.006502293476383103,-0.0030874943224468154,0.0012139678001403809,-0.00033845333382487297,0.0014203476021066308,STATIONARY,0,0.0,0.0,0.0,0.008722795047012774,-0.3709617018106304,0.018699353954007562
1769184124.1003907,0.05354475975036621,0.020850349217653275,-0.0,1.016459584236145,0.20454192582517863,-0.0,9.971468521356583,0.20182655326238516,-0.005243005286232862,9.975970942188585,-0.0036810124350369067,-0.005274335964294862,-0.0041420005038084184,0.0017387755215168,0.0005686786025762558,-0.0006937597645446658,STATIONARY,0,0.0,0.0,0.0,0.008712241432347768,-0.3709768235496528,0.01868747866751209
1769184124.1504602,0.050049543380737305,0.021092794835567474,0.0007283777231350541,1.0179216861724854,0.20692031733691693,0.007145385463954881,9.985811741352082,0.2027931676681656,-0.002892131396442551,9.977838374228359,-0.002714398029256465,-0.0029234620745045505,-0.002274568464034843,0.003482615575194359,0.0005800058133900166,0.0014112709322944283,STATIONARY,0,0.0,0.0,0.0,0.008705441982566507,-0.3709841466958343,0.018681780971787826
1769184124.2044463,0.05400657653808594,0.021335240453481674,-0.0009649035637266934,1.01719069480896,0.20929870884865523,-0.009465703960158863,9.978640716075898,0.20402768692159945,-0.0041395605754461625,9.977990630040926,-0.0014798787758226184,-0.004170891253508162,-0.0021223126514673396,-0.0004919283092021942,0.0008559264242649078,0.0007737275445833802,STATIONARY,0,0.0,0.0,0.0,0.008701125604884456,-0.3709963119773526,0.018675590800597597
1769184124.247709,0.04330110549926758,0.020607901737093925,-0.0,1.01719069480896,0.20216351604089142,-0.0,9.978640716075898,0.20367393390089356,-0.003354019897220925,9.978113993140827,-0.001833631796528512,-0.0033853505752829242,-0.0019989495515666533,4.431232810020447e-05,0.002099253237247467,0.0010381436441093683,STATIONARY,0,0.0,0.0,0.0,0.008697687571418214,-0.37100265946139754,0.01867184279869851
1769184124.2991655,0.05164361000061035,0.019395673647522926,0.00048558515845797956,1.017678141593933,0.19027155848219993,0.00476359040447278,9.983422569036485,0.2011306419537537,-0.0018135875286781928,9.979121371154383,-0.004376923743668354,-0.0018449182067401923,-0.0009915715380106604,-0.0011381730437278748,-0.0018392791971564293,0.0007234301883727312,STATIONARY,0,0.0,0.0,0.0,0.008686014042437913,-0.3710075799734773,0.018669198215479132
1769184124.351236,0.051895856857299805,0.019638117402791977,-0.00024122589093167335,1.01719069480896,0.1926499317213893,-0.0023664259900397157,9.978640716075898,0.19952130619302622,-0.0019184965140576664,9.979030159995743,-0.005986259504395852,-0.001949827192119666,-0.0010827826966508525,-0.0023468583822250366,0.0017953352071344852,0.00101475790143013,STATIONARY,0,0.0,0.0,0.0,0.008669891968311581,-0.37101283120899453,0.018666282086820613
1769184124.3975828,0.046286582946777344,0.019880564883351326,0.0007283777231350541,1.0184091329574585,0.19502834150567652,0.007145385463954881,9.990593594312669,0.19866870204255735,-0.00019849559449289299,9.981224486632684,-0.006838863654864719,-0.00022982627255489242,0.0011115439402900051,0.0001186169683933258,0.0002642804756760597,0.0006705416599288583,STATIONARY,0,0.0,0.0,0.0,0.008655240060187192,-0.37101332359977757,0.018668663511646616
1769184124.4510086,0.05338764190673828,0.021335240453481674,-0.0004824517818633467,1.016459584236145,0.20929870884865523,-0.004732851980079431,9.971468521356583,0.20068589749212534,-0.0010589544102368033,9.979373153033366,-0.004821668205296725,-0.0010902850882988028,-0.0007397896590273234,-0.00016039982438087463,-0.0006252378225326538,0.001243743347004056,STATIONARY,0,0.0,0.0,0.0,0.008641497147114907,-0.37101643117428384,0.018666554933340747
1769184124.504501,0.053461313247680664,0.022062579169869423,-0.0,1.0169469118118286,0.21643390165641904,-0.0,9.976249204874039,0.20367430595878483,-0.0008580027028113436,9.978780339300823,-0.0018332597386372385,-0.000889333380873343,-0.0013326033915710411,-0.001651505008339882,0.00025107618421316147,0.00060673663392663,STATIONARY,0,0.0,0.0,0.0,0.00863625748543082,-0.37101897298870434,0.018662746203577177
1769184124.5456955,0.0412602424621582,0.019880564883351326,0.00024279257922898978,1.0169469118118286,0.19502834150567652,0.00238179520223639,9.976249204874039,0.20203361085199226,-0.00024320482819162022,9.978300020431693,-0.003473954845429811,-0.00027453550625361966,-0.0018129222607008444,-0.00010000728070735931,0.0008079772815108299,0.00029630830977112055,STATIONARY,0,0.0,0.0,0.0,0.008630343398271987,-0.37101944036003887,0.018659659870927783
1769184124.597279,0.05158686637878418,0.019638117402791977,0.0012139629106968641,1.0159721374511719,0.1926499317213893,0.011908976153936237,9.966686668395997,0.20025292386018337,0.0020628448881089257,9.97609622119544,-0.005254641837238699,0.0020315142100469264,-0.004016721496952869,0.0016748402267694473,0.002592936158180237,-0.0014951755292713642,STATIONARY,0,0.0,0.0,0.0,0.008616359720282919,-0.3710140340847068,0.018648970552468988
1769184124.6477869,0.05037498474121094,0.020123012363910675,-0.00024122589093167335,1.01719069480896,0.19740675128996374,-0.0023664259900397157,9.978640716075898,0.19971282200869267,0.0012223275466543512,9.976579075401268,-0.005794743688729398,0.0011909968685923516,-0.003533867291125148,-0.002870330587029457,0.000714810099452734,0.0012119304155930877,STATIONARY,0,0.0,0.0,0.0,0.008601654752195329,-0.37101101176449974,0.018640002872700366
1769184124.7005398,0.052846431732177734,0.022062579169869423,-0.0014473553746938705,1.0186527967453003,0.21643390165641904,-0.01419855622574687,9.992983936071397,0.20288588543118347,-0.0017040051586229457,9.97969213176127,-0.002621680266238602,-0.0017353358366849452,-0.00042081093112322776,0.0007683653384447098,-0.0007953708991408348,0.00030091998632997274,STATIONARY,0,0.0,0.0,0.0,0.00859433306683093,-0.3710158581155828,0.01863882765493058
1769184124.751502,0.05097842216491699,0.020850349217653275,-0.0007236776873469353,1.0174343585968018,0.20454192582517863,-0.007099278112873435,9.981031057834626,0.20320014272264178,-0.0027278351759516366,9.979946212086123,-0.0023074229747802877,-0.002759165854013636,-0.00016673060627070413,0.0010783839970827103,0.0028347312472760677,0.0006063304608687758,STATIONARY,0,0.0,0.0,0.0,0.00858833653709681,-0.37102302863449754,0.01863839435550996
1769184124.804934,0.05332374572753906,0.019638117402791977,-0.0004824517818633467,1.01572847366333,0.1926499317213893,-0.004732851980079431,9.96429632663727,0.2011980896654885,-0.0031083157200726243,9.976976423045576,-0.004309476031933573,-0.0031396463981346236,-0.0031365196468176038,-0.001084890216588974,-0.0005277162417769432,0.0009671730222180486,STATIONARY,0,0.0,0.0,0.0,0.008576082878749294,-0.3710319559736937,0.01862947590698685
1769184124.8550148,0.050137996673583984,0.020365456119179726,0.00024279257922898978,1.015241026878357,0.19978512452915312,0.00238179520223639,9.959514473676682,0.20092995937212133,-0.0020664888452532884,9.97366276902352,-0.004577606325300743,-0.0020978195233152877,-0.006450173668874015,-0.0007383357733488083,0.0003604888916015625,0.0030067493207752705,STATIONARY,0,0.0,0.0,0.0,0.008564575606319723,-0.37103722951166257,0.018613261339732446
1769184124.8980718,0.043013572692871094,0.020607901737093925,-0.0004824517818633467,1.0188965797424316,0.20216351604089142,-0.004732851980079431,9.995375447273254,0.20116404434915067,-0.002572469291040182,9.977783059495787,-0.004343521348271401,-0.0026037999691021813,-0.0023298831966069855,-0.0021950360387563705,-0.0001966077834367752,-0.00047246681060642004,STATIONARY,0,0.0,0.0,0.0,0.008556539364564427,-0.37104204697757476,0.018608950665712855
1769184124.9482021,0.05016374588012695,0.021577686071395874,-0.0016885813092812896,1.01719069480896,0.21167710036039353,-0.01656498264404945,9.978640716075898,0.20315904671686008,-0.0052277483307034455,9.977945812068032,-0.0023485189805619866,-0.005259079008765445,-0.0021671306243611355,-0.00040587596595287323,-0.0010909526608884335,0.0010144951520487666,STATIONARY,0,0.0,0.0,0.0,0.00855062954811211,-0.3710552809313589,0.018603497295174156
1769184125.0017323,0.05355048179626465,0.020123012363910675,-0.0,1.0184091329574585,0.19740675128996374,-0.0,9.990593594312669,0.20206746659171382,-0.004235708500763519,9.980345909194629,-0.0034400991057082497,-0.004267039178825518,0.00023296650223514348,0.001078866422176361,-0.00047417962923645973,0.00039522364386357367,STATIONARY,0,0.0,0.0,0.0,0.008540764533805114,-0.37106751732375753,0.018604165362519597
1769184125.0519245,0.05025029182434082,0.020123012363910675,-0.00024122589093167335,1.0167032480239868,0.19740675128996374,-0.0023664259900397157,9.97385886311531,0.20118302936886756,-0.003880985475334597,9.979114899650511,-0.004324536328554507,-0.0039123161533965965,-0.000998043041882113,0.0010479539632797241,-0.0031812568195164204,0.0009675079490989447,STATIONARY,0,0.0,0.0,0.0,0.008529844682460127,-0.3710773962813067,0.018601645212190116
1769184125.0983303,0.046288490295410156,0.020850349217653275,-0.0004824517818633467,1.0167032480239868,0.20454192582517863,-0.004732851980079431,9.97385886311531,0.20182042789276633,-0.0040426392981736305,9.978117491730181,-0.003687137804655738,-0.00407396997623563,-0.0019954509622124306,-0.001418253406882286,0.00018576858565211296,0.0018880784045904875,STATIONARY,0,0.0,0.0,0.0,0.008521944531277694,-0.3710861252685131,0.018597369710401518
1769184125.1484892,0.05028176307678223,0.019395673647522926,-0.0,1.016459584236145,0.19027155848219993,-0.0,9.971468521356583,0.19962886515460462,-0.00327549081508493,9.976855754741052,-0.005878700542817444,-0.0033068214931469293,-0.0032571879513412227,-0.002895912155508995,-0.00041795196011662483,0.0006551488186232746,STATIONARY,0,0.0,0.0,0.0,0.008507081673132836,-0.3710944857587958,0.018589134706403724
1769184125.1984856,0.0499272346496582,0.021092794835567474,0.00024279257922898978,1.0159721374511719,0.20692031733691693,0.00238179520223639,9.966686668395997,0.2010125222332121,-0.0022019400809030138,9.97492602552491,-0.00449504346420998,-0.002233270758965013,-0.005186917167483429,-0.00018249452114105225,-0.001019760500639677,2.2619322407990694e-05,STATIONARY,0,0.0,0.0,0.0,0.008495876749013219,-0.371100052697045,0.018576205128805836
1769184125.2487075,0.05029416084289551,0.020607901737093925,-0.00024122589093167335,1.0169469118118286,0.20216351604089142,-0.0023664259900397157,9.976249204874039,0.20123093972942666,-0.0022331536288791327,9.975177117684183,-0.004276625967995412,-0.002264484306941132,-0.00493582500821077,-0.00017136335372924805,0.0019768462516367435,-0.0005686390795744956,STATIONARY,0,0.0,0.0,0.0,0.008485059012444264,-0.3711057807160208,0.01856371994654092
1769184125.3022003,0.05342864990234375,0.021092794835567474,0.06166931614279747,1.0174343585968018,0.20692031733691693,0.6049759913608432,9.981031057834626,0.20231058030069327,0.11299344467458529,9.976287986345785,-0.003196985396728802,0.11296211399652328,-0.003824956346608843,0.0007449332624673843,0.0004496830515563488,0.07670581340789795,STATIONARY,0,0.0,0.0,0.0,0.008475932831975716,-0.3707833167349542,0.018552801147243562
1769184125.3522773,0.0501551628112793,0.018668334931135178,0.0024279258213937283,1.0169469118118286,0.1831363656744361,0.023817952307872474,9.976249204874039,0.19867199951719478,0.0960711227328978,9.976280627008226,-0.006835566180227293,0.0960397920548358,-0.003832315684167753,0.0004601813852787018,0.00014953641220927238,0.0009114342974498868,STATIONARY,0,0.0,0.0,0.0,0.008458737689388967,-0.37054172476219827,0.018543160802480706
1769184125.397586,0.04520463943481445,0.023517252877354622,-0.002653484931215644,1.0162159204483032,0.23070425072684886,-0.026030687175225466,9.969078179597854,0.20475057618776343,0.07290056227856304,9.974913859854924,-0.0007569895096586343,0.07286923160050103,-0.005199082837469504,0.0013861171901226044,-0.0001254645176231861,-0.0009106463985517621,STATIONARY,0,0.0,0.0,0.0,0.008457190812039746,-0.3703928194439874,0.01853253668764768
1769184125.4488192,0.05121326446533203,0.020607901737093925,-0.0004824517818633467,1.0174343585968018,0.20216351604089142,-0.004732851980079431,9.981031057834626,0.2042596446153551,0.05816851432849724,9.976074685445523,-0.0012479210820669773,0.05813718365043524,-0.004038257246870458,-0.0004265476018190384,-0.000721881166100502,-0.0005850414163433015,STATIONARY,0,0.0,0.0,0.0,0.008453917766550998,-0.3702403373284033,0.01852194515277083
1769184125.498912,0.0501561164855957,0.020365456119179726,0.0014567554462701082,1.0162159204483032,0.19978512452915312,0.014290770927909762,9.969078179597854,0.20341054059110278,0.0498420865152805,9.974746998641908,-0.002097025106319289,0.0498107558372185,-0.005365944050485183,0.001349087804555893,-0.002524851355701685,0.0012110191164538264,STATIONARY,0,0.0,0.0,0.0,0.008448642414656775,-0.3701150315967901,0.018508446390631206
1769184125.5525846,0.053742408752441406,0.020365456119179726,-0.0007236776873469353,1.0169469118118286,0.19978512452915312,-0.007099278112873435,9.976249204874039,0.2027225661696038,0.03903665019569008,9.975032063706404,-0.0027849995278182715,0.03900531951762808,-0.005080878985989301,-0.0016786828637123108,0.001087190117686987,0.0008955906378105283,STATIONARY,0,0.0,0.0,0.0,0.00844059864952219,-0.3700023746192699,0.018493771559690547
1769184125.5978181,0.045191049575805664,0.021335240453481674,-0.0012061294401064515,1.0169469118118286,0.20929870884865523,-0.01183212980744429,9.976249204874039,0.20397048306466004,0.02938357344614989,9.975263033607893,-0.0015370826327620324,0.029352242768087893,-0.004849909084500226,-0.0007420200854539871,-0.000740748830139637,-0.0009209149284288287,STATIONARY,0,0.0,0.0,0.0,0.008437459571778775,-0.3699424305602917,0.018483866925196445
1769184125.6525562,0.05476188659667969,0.020850349217653275,-0.0004824517818633467,1.0169469118118286,0.20454192582517863,-0.004732851980079431,9.976249204874039,0.20407892248123174,0.02290949498311099,9.975450173675332,-0.0014286432161903229,0.022878164305048992,-0.004662769017061308,-0.002254113554954529,0.002251605037599802,-0.0009104081545956433,STATIONARY,0,0.0,0.0,0.0,0.008433175264749413,-0.369873822051855,0.01846988391400814
1769184125.6991308,0.04642939567565918,0.020365456119179726,0.0007283777231350541,1.0174343585968018,0.19978512452915312,0.007145385463954881,9.981031057834626,0.2032641130602887,0.01991803029559156,9.976509226066929,-0.0022434526371333807,0.019886699617529563,-0.00360371662546477,-0.00012953206896781921,-0.0004991977475583553,-0.0005896745715290308,STATIONARY,0,0.0,0.0,0.0,0.008428339079064786,-0.36983095251656245,0.01846211542250221
1769184125.7490788,0.050061702728271484,0.020607901737093925,-0.00024122589093167335,1.017678141593933,0.20216351604089142,-0.0023664259900397157,9.983422569036485,0.2030552590736607,0.015689236783466492,9.97782113152794,-0.0024523066237613633,0.015657906105404493,-0.002291811164454316,-0.0004276540130376816,-0.00019050855189561844,0.0021229295525699854,STATIONARY,0,0.0,0.0,0.0,0.008422193171767971,-0.3697917110781332,0.018456371744765478
1769184125.7993052,0.05017256736755371,0.021820131689310074,-0.0019298071274533868,1.0167032480239868,0.21405549187213183,-0.018931407920317726,9.97385886311531,0.2051427101872889,0.009119475518824423,9.977069234567033,-0.0003648555101331552,0.009088144840762423,-0.003043708125360922,0.0016886945813894272,0.00071673933416605,0.0002756097528617829,STATIONARY,0,0.0,0.0,0.0,0.008421274725911932,-0.3697688336136678,0.0184487098593421
1769184125.8525023,0.05322718620300293,0.022547468543052673,0.062154900282621384,1.0159721374511719,0.22119066640734675,0.6097395717725158,9.966686668395997,0.2081880388359401,0.12309570781879028,9.9750989945082,0.002680473138518019,0.12306437714072828,-0.005013948184194206,-0.00014390051364898682,-0.00019955867901444435,0.0002756097528617829,STATIONARY,0,0.0,0.0,0.0,0.008428868863757367,-0.3694201758224594,0.018434504675520828
1769184125.9029014,0.050354719161987305,0.019638117402791977,-0.0,1.0208460092544556,0.1926499317213893,-0.0,10.01449935078621,0.20523946132906665,0.09973654105598329,9.982575774236107,-0.00026810436835542073,0.09970521037792128,0.0024628315437134063,-0.00043940357863903046,0.0010335249826312065,-0.000324081105645746,STATIONARY,0,0.0,0.0,0.0,0.008428189058926377,-0.3691673635161712,0.018440749425621704
1769184125.9564965,0.053632497787475586,0.020607901737093925,0.00048558515845797956,1.0167032480239868,0.20216351604089142,0.00476359040447278,9.97385886311531,0.20465575682618073,0.0817140686925251,9.980921615986926,-0.0008518088712413385,0.08168273801446309,0.0008086732945322694,0.0010868329554796219,0.00011836690828204155,-0.00011392089072614908,STATIONARY,0,0.0,0.0,0.0,0.008425738877711982,-0.368932407627614,0.018443075529729965
1769184125.9975767,0.040982723236083984,0.020365456119179726,0.00048558515845797956,1.0167032480239868,0.19978512452915312,0.00476359040447278,9.97385886311531,0.20373148485859865,0.06711161758631366,9.979581357865372,-0.0017760808388234128,0.06708028690825166,-0.0005315848270210921,0.0004550553858280182,-0.0011069634929299355,0.07554006576538086,STATIONARY,0,0.0,0.0,0.0,0.008422755801455989,-0.3688197406775816,0.018442182688570445
1769184126.0491395,0.05170416831970215,0.021820131689310074,-0.0031359365675598383,1.0186527967453003,0.21405549187213183,-0.030763537727762014,9.992983936071397,0.2056906124818341,0.048538410482433375,9.982124688294302,0.0001830467844120276,0.04850707980437138,0.0020117456019086433,0.0022416841238737106,-0.002246029209345579,-0.0040335506200790405,STATIONARY,0,0.0,0.0,0.0,0.008423245144272699,-0.3686900656814426,0.018447560730378204
1769184126.0997636,0.05060625076293945,0.019395673647522926,0.0029135108925402164,1.017678141593933,0.19027155848219993,0.028581541855819525,9.983422569036485,0.20276462700204467,0.04475130993625703,9.982370979681972,-0.002742938695377395,0.044719979258195035,0.0022580369895788266,-0.0007502268999814987,-0.0022014491260051727,-0.0033186981454491615,STATIONARY,0,0.0,0.0,0.0,0.008416220498526925,-0.36857553814476207,0.018453343546435807
1769184126.152695,0.05295729637145996,0.019880564883351326,-0.06151260435581207,1.0167032480239868,0.19502834150567652,-0.6034386487305164,9.97385886311531,0.20129655645566644,-0.0782519824349402,9.980755684121238,-0.004211009241755631,-0.07828331311300221,0.0006427414288445732,0.001693233847618103,-0.000674285925924778,-0.0002643719781190157,STATIONARY,0,0.0,0.0,0.0,0.008404410827377327,-0.3687950817580124,0.018455146098858066
1769184126.2034812,0.050772666931152344,0.021577686071395874,-0.0036183884367346764,1.0181653499603271,0.21167710036039353,-0.035496390564367174,9.98820208311081,0.20326641276061672,-0.07013849888425888,9.982168744567147,-0.0022411529368053518,-0.07016982956232089,0.0020558018747536266,-0.0007454082369804382,-0.0015173796564340591,-0.0026276723947376013,STATIONARY,0,0.0,0.0,0.0,0.008398633440559024,-0.36897597001498866,0.018460445675900397
1769184126.2571476,0.05373334884643555,0.020123012363910675,-0.0014473553746938705,1.01572847366333,0.19740675128996374,-0.01419855622574687,9.96429632663727,0.20215445839687826,-0.059523096670676776,9.978777198279497,-0.003353107300543806,-0.059554427348738774,-0.0013357444128967444,-0.001641649752855301,0.0009103557094931602,-0.0010335459373891354,STATIONARY,0,0.0,0.0,0.0,0.008388952105127603,-0.3691479198918971,0.018456589017418337
1769184126.3017907,0.0448765754699707,0.021092794835567474,-0.0009649035637266934,1.017678141593933,0.20692031733691693,-0.009465703960158863,9.983422569036485,0.20305884812517214,-0.05002399223595808,9.979658723656055,-0.002448717572249931,-0.05005532291402008,-0.0004542190363387988,-0.0003958269953727722,-0.0012321765534579754,-0.00215991772711277,STATIONARY,0,0.0,0.0,0.0,0.008384020615604374,-0.3692487266583979,0.018455674262509752
1769184126.350583,0.04851198196411133,0.020850349217653275,0.0007283777231350541,1.016459584236145,0.20454192582517863,0.007145385463954881,9.971468521356583,0.20334028327779055,-0.0391752871829431,9.978104515920265,-0.0021672824196315166,-0.0392066178610051,-0.0020084267721287574,-0.0019547883421182632,0.0038635111413896084,-0.0029938705265522003,STATIONARY,0,0.0,0.0,0.0,0.008378920106296527,-0.3693409959988022,0.01845094760605161
1769184126.400396,0.049779415130615234,0.021335240453481674,-0.002653484931215644,1.0174343585968018,0.20929870884865523,-0.026030687175225466,9.981031057834626,0.20447097953860977,-0.036680911797712976,9.978659869001435,-0.0010365861588123026,-0.036712242475774974,-0.0014530736909588171,-0.0004133712500333786,0.0010875603184103966,-0.00229853019118309,STATIONARY,0,0.0,0.0,0.0,0.008376351455983859,-0.3694319685748032,0.018447346903728044
1769184126.4540112,0.05362439155578613,0.022789916023612022,-0.0014473553746938705,1.016459584236145,0.22356907619163396,-0.01419855622574687,9.971468521356583,0.20809511585071358,-0.03241456407258041,9.977295208187,0.0025875501532915124,-0.032445894750642405,-0.0028177345053936875,0.001402202993631363,-0.0013359421864151955,-0.0019115244504064322,STATIONARY,0,0.0,0.0,0.0,0.008383792151472601,-0.36952526919059697,0.0184392442957859
1769184126.5039785,0.04986238479614258,0.020365456119179726,0.0007283777231350541,1.0174343585968018,0.19978512452915312,0.007145385463954881,9.981031057834626,0.20651817643895468,-0.024907499246952937,9.978004138956935,0.0010106107415326082,-0.024938829925014935,-0.002108803735458409,0.0008305739611387253,0.0007904930971562862,-0.0012875893153250217,STATIONARY,0,0.0,0.0,0.0,0.008386304789925001,-0.3695872735414833,0.01843400126685644
1769184126.5589437,0.05509066581726074,0.019395673647522926,-0.0012061294401064515,1.016459584236145,0.19027155848219993,-0.01183212980744429,9.971468521356583,0.20343514889146194,-0.022426261349751703,9.976763912273732,-0.0020724168059601256,-0.0224575920278137,-0.003349030418661414,0.0010577663779258728,-0.0004017231985926628,0.0006429229979403317,STATIONARY,0,0.0,0.0,0.0,0.008380015043341129,-0.3696554319169282,0.018423837021626196
1769184126.598047,0.039090633392333984,0.020850349217653275,-0.002171033062040806,1.01572847366333,0.20454192582517863,-0.021297834338620307,9.96429632663727,0.20364517560500078,-0.022212126225142178,9.9743980100244,-0.0018623900924212844,-0.022243456903204176,-0.005714932667993722,0.0019637849181890488,-0.0018746890127658844,3.0989234801381826e-05,STATIONARY,0,0.0,0.0,0.0,0.008377169166723026,-0.3696894216455915,0.018415104160922062
1769184126.6491568,0.051016807556152344,0.020607901737093925,-0.0007236776873469353,1.016459584236145,0.20216351604089142,-0.007099278112873435,9.971468521356583,0.20336400956390138,-0.019344247681114098,9.973842097754721,-0.0021435561335206854,-0.019375578359176096,-0.006270844937672493,-0.002871129661798477,0.0008147847838699818,-0.0005555011448450387,STATIONARY,0,0.0,0.0,0.0,0.008371590101764309,-0.36973985074730153,0.018398782940914703
1769184126.7007914,0.051668643951416016,0.021092794835567474,-0.0007236776873469353,1.01719069480896,0.20692031733691693,-0.007099278112873435,9.978640716075898,0.20403886970160845,-0.017020590006785602,9.974752704042963,-0.001468695995813618,-0.0170519206848476,-0.005360238649430471,-0.003981677815318108,0.00020216964185237885,-0.00022154528414830565,STATIONARY,0,0.0,0.0,0.0,0.008367669199308845,-0.3697853733863461,0.018384472986409255
1769184126.7544496,0.05371212959289551,0.020365456119179726,-0.06078892573714256,1.015241026878357,0.19978512452915312,-0.5963393614813686,9.959514473676682,0.20323166086703118,-0.12695459202430814,9.97186103242741,-0.00227590483039089,-0.12698592270237014,-0.008251910264982953,0.0018215421587228775,0.0014239000156521797,-0.000832410529255867,STATIONARY,0,0.0,0.0,0.0,0.008361103230110828,-0.37015172686734915,0.018360666284168825
1769184126.8044784,0.050020456314086914,0.019395673647522926,-0.0009649035637266934,1.01719069480896,0.19027155848219993,-0.009465703960158863,9.978640716075898,0.2007722965379679,-0.10465939930233824,9.973147574125333,-0.0047352691594541585,-0.10469072998040024,-0.006965368567060537,-2.0777806639671326e-05,0.0011266116052865982,0.0006715958006680012,STATIONARY,0,0.0,0.0,0.0,0.008349255368615346,-0.37041366789475455,0.018343238611259725
1769184126.858132,0.053613901138305664,0.020365456119179726,-0.00024122589093167335,1.01719069480896,0.19978512452915312,-0.0023664259900397157,9.978640716075898,0.20058496656533048,-0.08524784820436732,9.974189976181007,-0.004922599132091587,-0.08527917888242932,-0.005922966511386463,-0.0006307773292064667,0.00021339766681194305,0.0007400578469969332,STATIONARY,0,0.0,0.0,0.0,0.00833510560159436,-0.37065879866420126,0.01832621333782991
1769184126.9080594,0.049860239028930664,0.020850349217653275,-0.00024122589093167335,1.0167032480239868,0.20454192582517863,-0.0023664259900397157,9.97385886311531,0.2013358560387514,-0.06951991587147763,9.974127142752808,-0.004171709658670669,-0.06955124654953963,-0.00598579993958559,0.00179264135658741,-9.90615226328373e-05,0.0010106433182954788,STATIONARY,0,0.0,0.0,0.0,0.008324734550180431,-0.3708317060841529,0.018311332379180763
1769184126.9511158,0.043031930923461914,0.020607901737093925,-0.0009649035637266934,1.0162159204483032,0.20216351604089142,-0.009465703960158863,9.969078179597854,0.20149291633236743,-0.05812377236897194,9.973169029960692,-0.004014649365054634,-0.05815510304703394,-0.006943912731701474,0.0011878088116645813,0.0008101854473352432,7.605971768498421e-05,STATIONARY,0,0.0,0.0,0.0,0.008317300434945475,-0.3709393946263493,0.018298474009062992
1769184127.00111,0.050076961517333984,0.020365456119179726,-0.0012061294401064515,1.0167032480239868,0.19978512452915312,-0.01183212980744429,9.97385886311531,0.2011688384726734,-0.049339272750912024,9.973299935643618,-0.0043387272247486786,-0.04937060342897402,-0.006813007048775077,2.77739018201828e-05,-0.001303772907704115,0.003051282372325659,STATIONARY,0,0.0,0.0,0.0,0.008306420199681945,-0.3710632013910027,0.018281389017151095
1769184127.0549204,0.05387473106384277,0.021335240453481674,-0.0014473553746938705,1.0167032480239868,0.20929870884865523,-0.01419855622574687,9.97385886311531,0.20271159736522654,-0.04267082043830785,9.97340600010558,-0.002795968332195531,-0.042702151116369845,-0.006706942586813369,-0.0002633575350046158,0.00022099120542407036,-0.07478756457567215,STATIONARY,0,0.0,0.0,0.0,0.00829830493893175,-0.37118714381442475,0.018261922205849324
1769184127.1048763,0.04984259605407715,0.019638117402791977,0.0024279258213937283,1.017678141593933,0.1926499317213893,0.023817952307872474,9.983422569036485,0.2008022527597104,-0.030053627215626513,9.975306786966424,-0.004705312937711675,-0.03008495789368851,-0.004806155725969319,-0.0008450839668512344,-0.000977477990090847,0.0014980555279180408,STATIONARY,0,0.0,0.0,0.0,0.008286615603490947,-0.3712618834054354,0.018249982348244674
1769184127.151493,0.04672503471374512,0.019395673647522926,0.00048558515845797956,1.01719069480896,0.19027155848219993,0.00476359040447278,9.978640716075898,0.1988039032793319,-0.02344656343561149,9.975939447580052,-0.006703662418090173,-0.02347789411367349,-0.004173495112341996,-0.0011374037712812424,0.000561645720154047,0.003219637554138899,STATIONARY,0,0.0,0.0,0.0,0.008271979974171739,-0.37131314102164775,0.018240870653230774
1769184127.2011075,0.04955005645751953,0.021577686071395874,-0.0031359365675598383,1.0162159204483032,0.21167710036039353,-0.030763537727762014,9.969078179597854,0.2012467760871285,-0.024835063698684233,9.974637424090846,-0.0042607896102935805,-0.02486639437674623,-0.005475518601548046,-0.0014401692897081375,0.0011586649343371391,0.0010506048565730453,STATIONARY,0,0.0,0.0,0.0,0.008261518849029694,-0.3713741931944136,0.01822742711563624
1769184127.2516751,0.05063891410827637,0.021335240453481674,-0.0004824517818633467,1.01719069480896,0.20929870884865523,-0.004732851980079431,9.978640716075898,0.20277474520540428,-0.0210203822271954,9.975397105859901,-0.0027328204920177845,-0.021051712905257397,-0.004715836832492215,0.0034227166324853897,0.0005547762848436832,-0.0007710675708949566,STATIONARY,0,0.0,0.0,0.0,0.00825451107847484,-0.3714281760938604,0.01821533429702896
1769184127.3046055,0.052896738052368164,0.019638117402791977,0.0029135108925402164,1.0159721374511719,0.1926499317213893,0.028581541855819525,9.966686668395997,0.20085341739628534,-0.011607709462707902,9.973744176079474,-0.0046541483011367235,-0.011639040140769902,-0.0063687666129190745,0.0004116278141736984,0.0008365847170352936,0.00371369905769825,STATIONARY,0,0.0,0.0,0.0,0.008241488469489949,-0.3714607428835082,0.018197514074734834
1769184127.3553476,0.05078482627868652,0.018910780549049377,-0.06054770201444626,1.016459584236145,0.1855147571861744,-0.5939729567617178,9.971468521356583,0.19794268778503468,-0.12211982373192981,9.973312338129082,-0.0075648779123873855,-0.12215115440999182,-0.006800604563311552,0.00010619685053825378,-0.0013014436699450016,0.08037728816270828,STATIONARY,0,0.0,0.0,0.0,0.008221977903607054,-0.37177578275241147,0.01817997464516139
1769184127.4053378,0.04992985725402832,0.021577686071395874,-0.002171033062040806,1.0159721374511719,0.21167710036039353,-0.021297834338620307,9.966686668395997,0.20054898851981975,-0.10298741281908748,9.972055022768922,-0.0049585771776023135,-0.10301874349714948,-0.008057919923471601,0.0012685228139162064,-0.00037230877205729485,0.002103562233969569,STATIONARY,0,0.0,0.0,0.0,0.00820961621708876,-0.3720326075162515,0.018159886326170733
1769184127.4528055,0.0477147102355957,0.021092794835567474,-0.0014473553746938705,1.01719069480896,0.20692031733691693,-0.01419855622574687,9.978640716075898,0.2017580390624946,-0.08613846053152281,9.973304752031886,-0.0037495266349274747,-0.08616979120958482,-0.006808190660507307,-0.0017868466675281525,-0.0009604981169104576,0.0014227558858692646,STATIONARY,0,0.0,0.0,0.0,0.008201079693897727,-0.37222878972607365,0.018144386162251103
1769184127.5032315,0.050496578216552734,0.019880564883351326,0.0014567554462701082,1.0169469118118286,0.19502834150567652,0.014290770927909762,9.976249204874039,0.20048098293861752,-0.06708058104010382,9.97386350396714,-0.005026582758804549,-0.06711191171816583,-0.006249438725253853,0.003001794219017029,-0.002720185089856386,0.0007646410958841443,STATIONARY,0,0.0,0.0,0.0,0.008188262388345878,-0.3723999186858334,0.018128450690875677
1769184127.5563898,0.05328106880187988,0.022305024787783623,-0.002412258880212903,1.01572847366333,0.21881229316815734,-0.02366425961488858,9.96429632663727,0.2039596105871374,-0.05884171462981277,9.972047995574055,-0.00154795511028466,-0.058873045307874766,-0.008064947118338495,-0.0012721661478281021,-0.0002574068494141102,0.0019504461670294404,STATIONARY,0,0.0,0.0,0.0,0.008183867941472992,-0.3725670517429431,0.01810555533595957
1769184127.6040099,0.047646284103393555,0.019638117402791977,0.0012139629106968641,1.0181653499603271,0.1926499317213893,0.011908976153936237,9.98820208311081,0.20181343766738208,-0.04541576165479679,9.975113464154223,-0.0036941280300399892,-0.04544709233285879,-0.004999478538170621,0.00022125989198684692,5.6519173085689545e-05,0.0009189262054860592,STATIONARY,0,0.0,0.0,0.0,0.008175481648794789,-0.3726702242953228,0.018094205677821426
1769184127.657035,0.052889108657836914,0.019153228029608727,-0.06151260435581207,1.01572847366333,0.18789316697046163,-0.6034386487305164,9.96429632663727,0.1991718677023963,-0.15130856577964535,9.973060757982479,-0.0063356979950257575,-0.15133989645770735,-0.007052184709914755,-8.417107164859772e-05,-0.002692374400794506,2.6283087208867073e-06,STATIONARY,0,0.0,0.0,0.0,0.008157759068067127,-0.373093561003353,0.01807447889903147
1769184127.7071912,0.050067901611328125,0.021820131689310074,-0.0009649035637266934,1.01572847366333,0.21405549187213183,-0.009465703960158863,9.96429632663727,0.20199624773299496,-0.12439185907990613,9.971397582092745,-0.0035113179644271075,-0.12442318975796814,-0.008715360599648392,-0.0009923577308654785,0.0012810677289962769,0.07716937363147736,STATIONARY,0,0.0,0.0,0.0,0.008148956914551909,-0.37340546440492417,0.01805263127864625
