t,dt,acc_x_g,acc_y_g,acc_z_g,acc_mag_g,gyro_x_rads,gyro_y_rads,gyro_z_rads,gyro_mag_rads,yaw_rate_used,gyro_bias,hp,state,step,step_count,heading_rad,pos_x_m,pos_y_m,walkable,sf_yaw_deg
0.000366,0.000366,0.004122,-0.012061,1.018409,1.018489,-0.003876,-0.004832,0.080010,0.080250,-0.004832,0.000000,0.016640,MOVE,0,0,-0.000002,1.000000,0.250000,1,57.055
0.148349,0.147983,0.003394,-0.012061,1.018165,1.018242,-0.002552,-0.003097,-0.074562,0.074670,-0.003097,0.000000,0.031394,MOVE,0,0,-0.000460,1.000000,0.250000,1,56.974
0.192487,0.044137,0.003637,-0.010614,1.019140,1.019202,-0.002160,-0.005296,0.003514,0.006713,-0.005296,0.000000,0.045537,MOVE,0,0,-0.000694,1.000000,0.250000,1,56.964
0.235363,0.042876,0.003637,-0.012303,1.018653,1.018734,-0.001653,-0.004182,0.003660,0.005798,-0.004182,0.000000,0.057843,MOVE,0,0,-0.000873,1.000000,0.250000,1,56.983
0.277880,0.042517,0.005091,-0.011338,1.017434,1.017510,-0.001220,-0.004255,-0.073088,0.073222,-0.004255,0.000000,0.067818,MOVE,0,0,-0.001054,1.000000,0.250000,1,56.922
0.328679,0.050799,0.003637,-0.010855,1.017678,1.017743,-0.004428,-0.003729,-0.071046,0.071281,-0.003729,0.000000,0.077005,MOVE,0,0,-0.001243,1.000000,0.250000,1,56.862
0.371382,0.042703,0.004364,-0.011096,1.018165,1.018235,-0.001520,-0.002943,0.080424,0.080492,-0.002943,0.000000,0.085716,MOVE,0,0,-0.001369,1.000000,0.250000,1,56.927
0.414250,0.042868,0.004122,-0.011579,1.019628,1.019702,-0.001715,-0.003698,0.002058,0.004566,-0.003698,0.000000,0.094876,MOVE,0,0,-0.001528,1.000000,0.250000,1,56.923
0.457717,0.043468,0.004606,-0.010614,1.019871,1.019937,-0.000463,-0.001092,0.003707,0.003892,-0.001092,0.000000,0.103331,MOVE,0,0,-0.001575,1.000000,0.250000,1,56.901
0.500305,0.042588,0.004606,-0.011096,1.017678,1.017749,-0.004289,-0.001874,0.003528,0.005861,-0.001874,0.000000,0.108972,MOVE,0,0,-0.001655,1.000000,0.250000,1,56.874
0.545677,0.045372,0.004849,-0.011338,1.017678,1.017753,-0.001123,-0.004464,0.002463,0.005220,-0.004464,0.000000,0.114053,MOVE,0,0,-0.001857,1.000000,0.250000,1,56.875
0.588956,0.043279,0.003394,-0.011338,1.017434,1.017503,-0.002233,-0.003692,0.003221,0.005384,-0.003692,0.000000,0.118400,MOVE,0,0,-0.002017,1.000000,0.250000,1,56.960
0.638866,0.049910,0.005819,-0.011338,1.017922,1.018001,-0.000645,-0.001702,0.002432,0.003037,-0.001702,0.000000,0.122762,MOVE,0,0,-0.002102,1.000000,0.250000,1,57.011
0.682157,0.043291,0.003637,-0.012303,1.016703,1.016784,-0.002966,-0.002758,0.002361,0.004688,-0.002758,0.000000,0.125591,MOVE,0,0,-0.002221,1.000000,0.250000,1,57.084
0.724658,0.042501,0.003879,-0.011338,1.019628,1.019698,-0.002313,0.000066,0.001103,0.002563,0.000066,0.000000,0.130760,MOVE,0,0,-0.002219,1.000000,0.250000,1,57.203
0.767852,0.043194,0.004606,-0.011579,1.018409,1.018485,-0.002213,-0.002245,0.000368,0.003174,-0.002245,0.000000,0.134321,MOVE,0,0,-0.002316,1.000000,0.250000,1,57.252
0.810326,0.042474,0.005091,-0.012544,1.019140,1.019230,-0.000882,-0.000316,0.000661,0.001147,-0.000316,0.000000,0.138196,MOVE,0,0,-0.002329,1.000000,0.250000,1,57.299
0.866111,0.055785,0.004122,-0.010131,1.018409,1.018468,-0.002951,-0.001407,-0.002406,0.004059,-0.001407,0.000000,0.140998,MOVE,0,0,-0.002408,1.000000,0.250000,1,57.424
0.914082,0.047971,0.002667,-0.011820,1.017678,1.017750,-0.001964,-0.003099,-0.002666,0.004535,-0.003099,0.000000,0.142873,MOVE,0,0,-0.002556,1.000000,0.250000,1,57.392
0.958194,0.044111,0.005819,-0.011338,1.019628,1.019707,0.000161,-0.002370,-0.000060,0.002376,-0.002370,0.000000,0.146322,MOVE,0,0,-0.002661,1.000000,0.250000,1,57.288
1.010393,0.052199,0.004849,-0.012544,1.018409,1.018498,-0.000693,-0.001972,-0.000052,0.002091,-0.001972,0.000000,0.148338,MOVE,0,0,-0.002764,1.000000,0.250000,1,57.342
1.059715,0.049322,0.004122,-0.012061,1.018165,1.018245,0.000533,-0.002495,-0.002471,0.003552,-0.002495,0.000000,0.149925,MOVE,0,0,-0.002887,1.000000,0.250000,1,57.323
1.103402,0.043687,0.003879,-0.011579,1.017922,1.017995,-0.000380,-0.000880,-0.001428,0.001720,-0.000880,0.000000,0.151128,MOVE,0,0,-0.002925,1.000000,0.250000,1,57.306
1.146832,0.043431,0.003879,-0.012303,1.018409,1.018491,-0.000977,-0.002309,-0.002528,0.003560,-0.002309,0.000000,0.152657,MOVE,0,0,-0.003025,1.000000,0.250000,1,57.300
1.195390,0.048558,0.004849,-0.011579,1.019140,1.019218,0.001744,-0.000122,0.074118,0.074139,-0.000122,0.000000,0.154687,MOVE,0,0,-0.003031,1.000000,0.250000,1,57.357
1.241963,0.046573,0.003394,-0.010131,1.017191,1.017247,-0.001846,-0.003089,-0.002134,0.004183,-0.003089,0.000000,0.154740,MOVE,0,0,-0.003175,1.000000,0.250000,1,57.326
1.293467,0.051504,0.003637,-0.011338,1.018409,1.018479,-0.002675,-0.000893,-0.001973,0.003442,-0.000893,0.000000,0.155897,MOVE,0,0,-0.003221,1.000000,0.250000,1,57.306
1.346982,0.053515,0.004364,-0.011820,1.019140,1.019218,-0.002012,-0.001114,-0.003616,0.004286,-0.001114,0.000000,0.157604,MOVE,0,0,-0.003281,1.000000,0.250000,1,57.305
1.390680,0.043699,0.003152,-0.009890,1.017434,1.017487,-0.001041,-0.001375,0.074025,0.074045,-0.001375,0.000000,0.157582,MOVE,0,0,-0.003341,1.000000,0.250000,1,57.298
1.437893,0.047213,0.004606,-0.011096,1.016703,1.016774,-0.004263,-0.002483,-0.001783,0.005245,-0.002483,0.000000,0.156921,MOVE,0,0,-0.003458,1.000000,0.250000,1,57.331
1.481677,0.043784,0.005091,-0.011820,1.017191,1.017272,-0.001729,-0.002705,-0.003781,0.004960,-0.002705,0.000000,0.156773,MOVE,0,0,-0.003577,1.000000,0.250000,1,57.369
1.524478,0.042801,0.004849,-0.012303,1.017434,1.017520,-0.001989,-0.001740,-0.001226,0.002913,-0.001740,0.000000,0.156864,MOVE,0,0,-0.003651,1.000000,0.250000,1,57.374
1.567377,0.042899,0.004849,-0.010614,1.017191,1.017258,-0.002240,-0.000172,-0.002071,0.003056,-0.000172,0.000000,0.156710,MOVE,0,0,-0.003658,1.000000,0.250000,1,57.375
1.610925,0.043548,0.004122,-0.011338,1.017191,1.017262,0.000279,-0.000183,-0.003140,0.003157,-0.000183,0.000000,0.156575,MOVE,0,0,-0.003666,1.000000,0.250000,1,57.378
1.660421,0.049496,0.003394,-0.011096,1.017434,1.017501,0.001476,0.000426,-0.002103,0.002605,0.000426,0.000000,0.156668,MOVE,0,0,-0.003645,1.000000,0.250000,1,57.405
1.704090,0.043669,0.004364,-0.011579,1.016947,1.017022,0.001188,-0.001652,-0.002009,0.002859,-0.001652,0.000000,0.156321,MOVE,0,0,-0.003717,1.000000,0.250000,1,57.432
1.747599,0.043509,0.004606,-0.011096,1.019140,1.019211,-0.000632,-0.001005,-0.002509,0.002776,-0.001005,0.000000,0.157979,MOVE,0,0,-0.003761,1.000000,0.250000,1,57.449
1.789999,0.042400,0.003637,-0.010855,1.017922,1.017986,-0.001147,-0.000675,-0.001810,0.002246,-0.000675,0.000000,0.158368,MOVE,0,0,-0.003790,1.000000,0.250000,1,57.400
1.832728,0.042729,0.004364,-0.011096,1.019140,1.019210,-0.000815,-0.000661,-0.001956,0.002220,-0.000661,0.000000,0.159821,MOVE,0,0,-0.003818,1.000000,0.250000,1,57.375
1.886009,0.053282,0.005819,-0.010373,1.018165,1.018235,-0.001420,-0.000619,-0.001609,0.002233,-0.000619,0.000000,0.160250,MOVE,0,0,-0.003851,1.000000,0.250000,1,57.346
1.929335,0.043325,0.004364,-0.011338,1.018653,1.018725,0.001328,-0.000589,-0.000983,0.001754,-0.000589,0.000000,0.161078,MOVE,0,0,-0.003877,1.000000,0.250000,1,57.314
1.973125,0.043791,0.003879,-0.011579,1.017678,1.017751,-0.000805,-0.002041,-0.001245,0.002522,-0.002041,0.000000,0.160946,MOVE,0,0,-0.003966,1.000000,0.250000,1,57.295
2.015995,0.042869,0.003637,-0.011338,1.019140,1.019210,-0.001136,-0.000788,-0.001518,0.002053,-0.000788,0.000000,0.162140,MOVE,0,0,-0.004000,1.000000,0.250000,1,57.269
2.066394,0.050400,0.002909,-0.010855,1.018653,1.018715,-0.000244,-0.000464,-0.000232,0.000573,-0.000464,0.000000,0.162770,MOVE,0,0,-0.004023,1.000000,0.250000,1,57.271
2.115833,0.049438,0.004122,-0.010855,1.018653,1.018719,-0.002914,-0.000736,-0.076817,0.076876,-0.000736,0.000000,0.163340,MOVE,0,0,-0.004059,1.000000,0.250000,1,57.241
2.157362,0.041530,0.004364,-0.011338,1.018897,1.018969,-0.000157,-0.000424,0.000109,0.000465,-0.000424,0.000000,0.164078,MOVE,0,0,-0.004077,1.000000,0.250000,1,57.272
2.195187,0.037825,0.003637,-0.011579,1.018165,1.018238,-0.000459,-0.001599,0.000669,0.001793,-0.001599,0.000000,0.164084,MOVE,0,0,-0.004138,1.000000,0.250000,1,57.295
2.243508,0.048320,0.004364,-0.011579,1.018409,1.018484,0.000700,0.000562,0.001242,0.001532,0.000562,0.000000,0.164311,MOVE,0,0,-0.004110,1.000000,0.250000,1,57.319
2.281463,0.037956,0.004606,-0.011338,1.017922,1.017995,0.000079,-0.001232,-0.000402,0.001299,-0.001232,0.000000,0.164076,MOVE,0,0,-0.004157,1.000000,0.250000,1,57.402
2.329943,0.048480,0.004122,-0.010373,1.018165,1.018227,-0.001967,0.000301,0.000509,0.002054,0.000301,0.000000,0.164072,MOVE,0,0,-0.004143,1.000000,0.250000,1,57.405
2.374805,0.044862,0.003394,-0.012061,1.017922,1.017999,0.000498,-0.000290,0.000804,0.000989,-0.000290,0.000000,0.163864,MOVE,0,0,-0.004156,1.000000,0.250000,1,57.391
2.416150,0.041345,0.004364,-0.012303,1.018409,1.018493,0.000848,0.000030,-0.001599,0.001810,0.000030,0.000000,0.164121,MOVE,0,0,-0.004154,1.000000,0.250000,1,57.374
2.461063,0.044913,0.002909,-0.012544,1.017434,1.017516,0.000221,-0.000242,-0.000038,0.000330,-0.000242,0.000000,0.163473,MOVE,0,0,-0.004165,1.000000,0.250000,1,57.289
2.502391,0.041328,0.004606,-0.011820,1.020602,1.020681,-0.000690,0.000381,0.000339,0.000858,0.000381,0.000000,0.165739,MOVE,0,0,-0.004149,1.000000,0.250000,1,57.267
2.547430,0.045039,0.005334,-0.010614,1.019628,1.019697,-0.000952,-0.001430,0.000211,0.001731,-0.001430,0.000000,0.166892,MOVE,0,0,-0.004214,1.000000,0.250000,1,57.313
2.595909,0.048479,0.004849,-0.010373,1.018409,1.018473,0.001108,-0.000234,-0.000991,0.001504,-0.000234,0.000000,0.166829,MOVE,0,0,-0.004225,1.000000,0.250000,1,57.311
2.633733,0.037824,0.003637,-0.010855,1.018653,1.018717,0.000492,-0.000803,-0.000086,0.000945,-0.000803,0.000000,0.166992,MOVE,0,0,-0.004256,1.000000,0.250000,1,57.317
2.682075,0.048342,0.004122,-0.011579,1.018897,1.018971,-0.001274,0.000669,-0.076358,0.076371,0.000669,0.000000,0.167366,MOVE,0,0,-0.004223,1.000000,0.250000,1,57.254
2.726902,0.044827,0.005576,-0.010855,1.020359,1.020432,0.000842,0.001261,-0.000946,0.001787,0.001261,0.000000,0.169018,MOVE,0,0,-0.004167,1.000000,0.250000,1,57.257
2.768269,0.041366,0.004122,-0.011096,1.017434,1.017503,0.001741,-0.000858,0.001444,0.002419,-0.000858,0.000000,0.167869,MOVE,0,0,-0.004202,1.000000,0.250000,1,57.275
2.813050,0.044781,0.004606,-0.011338,1.019140,1.019214,-0.000047,-0.001136,0.002273,0.002541,-0.001136,0.000000,0.168375,MOVE,0,0,-0.004253,1.000000,0.250000,1,57.279
2.854530,0.041479,0.005576,-0.010373,1.018897,1.018965,-0.000616,0.000972,0.000119,0.001157,0.000972,0.000000,0.168605,MOVE,0,0,-0.004213,1.000000,0.250000,1,57.286
2.899348,0.044818,0.004122,-0.011096,1.018897,1.018965,-0.000865,-0.000858,0.001289,0.001774,-0.000858,0.000000,0.168814,MOVE,0,0,-0.004251,1.000000,0.250000,1,57.354
2.940604,0.041257,0.004606,-0.011820,1.018653,1.018732,-0.000252,-0.000844,0.000865,0.001235,-0.000844,0.000000,0.168791,MOVE,0,0,-0.004286,1.000000,0.250000,1,57.426
2.993028,0.052423,0.004849,-0.011096,1.018409,1.018481,-0.001415,0.000353,-0.001304,0.001957,0.000353,0.000000,0.168545,MOVE,0,0,-0.004267,1.000000,0.250000,1,57.435
3.034488,0.041460,0.004364,-0.011338,1.018653,1.018725,-0.000194,0.000917,0.074746,0.074752,0.000917,0.000000,0.168543,MOVE,0,0,-0.004229,1.000000,0.250000,1,57.502
3.079340,0.044852,0.004122,-0.011338,1.019140,1.019212,-0.000160,-0.000886,-0.002433,0.002594,-0.000886,0.000000,0.168979,MOVE,0,0,-0.004269,1.000000,0.250000,1,57.501
3.120647,0.041307,0.004122,-0.010614,1.019140,1.019204,-0.000753,0.000314,-0.002017,0.002175,0.000314,0.000000,0.169365,MOVE,0,0,-0.004256,1.000000,0.250000,1,57.491
3.165933,0.045286,0.004849,-0.011579,1.018165,1.018243,-0.001652,0.000629,-0.001581,0.002372,0.000629,0.000000,0.168847,MOVE,0,0,-0.004228,1.000000,0.250000,1,57.441
3.214241,0.048308,0.004606,-0.011579,1.018165,1.018242,-0.000484,0.000628,-0.002985,0.003088,0.000628,0.000000,0.168379,MOVE,0,0,-0.004197,1.000000,0.250000,1,57.394
3.252090,0.037849,0.004122,-0.011579,1.019628,1.019702,-0.000765,-0.000595,-0.003467,0.003600,-0.000595,0.000000,0.169273,MOVE,0,0,-0.004220,1.000000,0.250000,1,57.355
3.300395,0.048305,0.004364,-0.011579,1.019384,1.019459,0.001080,-0.000870,-0.003591,0.003849,-0.000870,0.000000,0.169859,MOVE,0,0,-0.004262,1.000000,0.250000,1,57.339
3.345354,0.044959,0.004122,-0.011096,1.018897,1.018965,-0.000736,0.000039,-0.002532,0.002637,0.000039,0.000000,0.169942,MOVE,0,0,-0.004260,1.000000,0.250000,1,57.356
3.386617,0.041264,0.003637,-0.011820,1.017678,1.017753,0.001713,0.002139,0.074760,0.074811,0.002139,0.000000,0.168926,MOVE,0,0,-0.004172,1.000000,0.250000,1,57.452
3.431414,0.044797,0.004606,-0.010614,1.017678,1.017744,0.000487,0.000286,-0.003295,0.003343,0.000286,0.000000,0.168002,MOVE,0,0,-0.004159,1.000000,0.250000,1,57.467
3.473540,0.042126,0.005819,-0.010614,1.018409,1.018481,0.002279,0.000277,-0.003117,0.003871,0.000277,0.000000,0.167835,MOVE,0,0,-0.004147,1.000000,0.250000,1,57.477
3.514867,0.041327,0.005091,-0.012544,1.018653,1.018743,-0.003184,-0.000302,-0.001806,0.003673,-0.000302,0.000000,0.167920,MOVE,0,0,-0.004160,1.000000,0.250000,1,57.496
3.552968,0.038101,0.003637,-0.011820,1.018409,1.018484,0.001393,0.000048,-0.001596,0.002119,0.000048,0.000000,0.167764,MOVE,0,0,-0.004158,1.000000,0.250000,1,57.458
3.601441,0.048473,0.003152,-0.011338,1.018409,1.018477,-0.001019,-0.000830,-0.002138,0.002509,-0.000830,0.000000,0.167617,MOVE,0,0,-0.004198,1.000000,0.250000,1,57.482
3.646344,0.044903,0.005091,-0.011579,1.018409,1.018488,-0.000093,-0.000243,-0.000850,0.000890,-0.000243,0.000000,0.167494,MOVE,0,0,-0.004209,1.000000,0.250000,1,57.498
3.687648,0.041304,0.004364,-0.010131,1.018409,1.018469,-0.000118,0.001561,0.000128,0.001570,0.001561,0.000000,0.167367,MOVE,0,0,-0.004145,1.000000,0.250000,1,57.506
3.732451,0.044803,0.005091,-0.011579,1.019140,1.019219,0.000468,-0.000524,-0.000759,0.001035,-0.000524,0.000000,0.167927,MOVE,0,0,-0.004168,1.000000,0.250000,1,57.579
3.773803,0.041352,0.004364,-0.011338,1.017678,1.017751,-0.000165,-0.000813,-0.001372,0.001603,-0.000813,0.000000,0.167110,MOVE,0,0,-0.004202,1.000000,0.250000,1,57.609
3.818608,0.044806,0.005091,-0.010614,1.018165,1.018233,-0.003410,0.002461,-0.001854,0.004596,0.002461,0.000000,0.166809,MOVE,0,0,-0.004092,1.000000,0.250000,1,57.620
3.867050,0.048441,0.004849,-0.011338,1.020115,1.020190,0.001483,-0.001165,-0.002378,0.003035,-0.001165,0.000000,0.168299,MOVE,0,0,-0.004148,1.000000,0.250000,1,57.631
3.904848,0.037798,0.003879,-0.011579,1.018165,1.018239,-0.002989,0.000049,-0.003552,0.004643,0.000049,0.000000,0.167883,MOVE,0,0,-0.004146,1.000000,0.250000,1,57.713
3.953870,0.049022,0.003152,-0.011338,1.019140,1.019208,0.001308,-0.001139,-0.079667,0.079686,-0.001139,0.000000,0.168382,MOVE,0,0,-0.004202,1.000000,0.250000,1,57.673
3.998748,0.044878,0.004606,-0.010855,1.018165,1.018234,-0.001415,-0.000478,-0.002274,0.002720,-0.000478,0.000000,0.167954,MOVE,0,0,-0.004224,1.000000,0.250000,1,57.688
4.040267,0.041519,0.004364,-0.011820,1.018897,1.018974,0.000147,0.000132,-0.003357,0.003363,0.000132,0.000000,0.168236,MOVE,0,0,-0.004218,1.000000,0.250000,1,57.681
4.085136,0.044869,0.004849,-0.010855,1.019384,1.019453,-0.000130,0.000135,-0.000477,0.000513,0.000135,0.000000,0.168920,MOVE,0,0,-0.004212,1.000000,0.250000,1,57.600
4.133496,0.048360,0.003637,-0.011338,1.019384,1.019453,-0.001015,0.001019,-0.001965,0.002435,0.001019,0.000000,0.169536,MOVE,0,0,-0.004163,1.000000,0.250000,1,57.593
4.178991,0.045495,0.005091,-0.010855,1.019140,1.019211,0.000497,0.000698,0.001095,0.001391,0.000698,0.000000,0.169872,MOVE,0,0,-0.004131,1.000000,0.250000,1,57.573
4.220325,0.041334,0.004849,-0.011579,1.019384,1.019461,0.001674,0.001590,0.000225,0.002319,0.001590,0.000000,0.170400,MOVE,0,0,-0.004065,1.000000,0.250000,1,57.562
4.265240,0.044915,0.004364,-0.011096,1.019628,1.019697,0.002532,0.002131,0.000024,0.003309,0.002131,0.000000,0.171088,MOVE,0,0,-0.003970,1.000000,0.250000,1,57.498
4.313584,0.048344,0.004364,-0.011820,1.019140,1.019218,0.001270,-0.000307,0.000553,0.001419,-0.000307,0.000000,0.171275,MOVE,0,0,-0.003984,1.000000,0.250000,1,57.478
4.351583,0.038000,0.004364,-0.011579,1.019140,1.019215,-0.003343,0.000914,0.001151,0.003652,0.000914,0.000000,0.171442,MOVE,0,0,-0.003950,1.000000,0.250000,1,57.447
4.399934,0.048350,0.003879,-0.012061,1.018165,1.018244,0.000036,0.000609,-0.000692,0.000923,0.000609,0.000000,0.170717,MOVE,0,0,-0.003920,1.000000,0.250000,1,57.422
4.444819,0.044885,0.004122,-0.012303,1.019140,1.019223,-0.000026,0.001505,-0.075453,0.075468,0.001505,0.000000,0.170946,MOVE,0,0,-0.003853,1.000000,0.250000,1,57.338
4.494129,0.049310,0.005576,-0.012061,1.018165,1.018252,0.001492,0.000269,0.002902,0.003274,0.000269,0.000000,0.170278,MOVE,0,0,-0.003839,1.000000,0.250000,1,57.320
4.532294,0.038166,0.004122,-0.011096,1.019384,1.019453,-0.000920,-0.000930,0.001792,0.002218,-0.000930,0.000000,0.170758,MOVE,0,0,-0.003875,1.000000,0.250000,1,57.358
4.573967,0.041672,0.004122,-0.011820,1.018653,1.018730,-0.001159,-0.000013,0.000232,0.001182,-0.000013,0.000000,0.170539,MOVE,0,0,-0.003875,1.000000,0.250000,1,57.334
4.615465,0.041498,0.003152,-0.011579,1.018409,1.018480,0.002442,-0.000608,0.001126,0.002757,-0.000608,0.000000,0.170117,MOVE,0,0,-0.003901,1.000000,0.250000,1,57.320
4.660382,0.044917,0.004606,-0.011820,1.019628,1.019706,0.000319,-0.001499,-0.077043,0.077058,-0.001499,0.000000,0.170841,MOVE,0,0,-0.003968,1.000000,0.250000,1,57.297
4.708710,0.048328,0.004122,-0.010855,1.019384,1.019450,-0.000568,0.000017,-0.000390,0.000689,0.000017,0.000000,0.171262,MOVE,0,0,-0.003967,1.000000,0.250000,1,57.257
4.746611,0.037901,0.004122,-0.010855,1.018653,1.018719,0.000937,0.000882,0.001741,0.002165,0.000882,0.000000,0.170983,MOVE,0,0,-0.003934,1.000000,0.250000,1,57.241
4.794995,0.048384,0.003637,-0.012061,1.020359,1.020437,0.000330,0.000563,-0.075812,0.075815,0.000563,0.000000,0.172277,MOVE,0,0,-0.003906,1.000000,0.250000,1,57.262
4.839911,0.044915,0.003394,-0.011338,1.019384,1.019453,0.003001,0.000851,0.000715,0.003200,0.000851,0.000000,0.172557,MOVE,0,0,-0.003868,1.000000,0.250000,1,57.290
4.881457,0.041546,0.003394,-0.011579,1.018897,1.018968,0.000240,0.000268,0.002131,0.002161,0.000268,0.000000,0.172373,MOVE,0,0,-0.003857,1.000000,0.250000,1,57.315
4.926313,0.044856,0.002909,-0.011579,1.019628,1.019697,-0.000659,-0.000666,-0.000027,0.000937,-0.000666,0.000000,0.172863,MOVE,0,0,-0.003887,1.000000,0.250000,1,57.323
4.967919,0.041606,0.005091,-0.011338,1.018165,1.018241,0.000826,-0.001253,0.001191,0.001916,-0.001253,0.000000,0.171994,MOVE,0,0,-0.003939,1.000000,0.250000,1,57.282
5.012801,0.044882,0.003152,-0.012544,1.019384,1.019466,-0.000997,-0.000025,0.001537,0.001832,-0.000025,0.000000,0.172314,MOVE,0,0,-0.003940,1.000000,0.250000,1,57.264
5.061643,0.048841,0.004606,-0.012544,1.018653,1.018740,0.000554,-0.001210,0.076571,0.076582,-0.001210,0.000000,0.171949,MOVE,0,0,-0.003999,1.000000,0.250000,1,57.314
5.106572,0.044930,0.003879,-0.011579,1.018165,1.018239,0.000197,0.000597,-0.000639,0.000896,0.000597,0.000000,0.171169,MOVE,0,0,-0.003972,1.000000,0.250000,1,57.314
5.148698,0.042126,0.004122,-0.011338,1.017191,1.017262,-0.000969,-0.000899,-0.001183,0.001774,-0.000899,0.000000,0.169588,MOVE,0,0,-0.004010,1.000000,0.250000,1,57.321
5.190133,0.041435,0.005091,-0.010614,1.022552,1.022620,-0.000616,-0.001185,0.000062,0.001337,-0.001185,0.000000,0.172987,MOVE,0,0,-0.004059,1.000000,0.250000,1,57.318
5.235062,0.044929,0.003879,-0.011820,1.019628,1.019703,0.000350,-0.001161,-0.000822,0.001465,-0.001161,0.000000,0.173421,MOVE,0,0,-0.004112,1.000000,0.250000,1,57.269
5.276738,0.041676,0.004849,-0.010855,1.018165,1.018235,0.003636,0.001259,0.001996,0.004335,0.001259,0.000000,0.172490,MOVE,0,0,-0.004059,1.000000,0.250000,1,57.277
5.321810,0.045072,0.004364,-0.011579,1.019140,1.019215,0.002320,-0.001771,0.002558,0.003881,-0.001771,0.000000,0.172535,MOVE,0,0,-0.004139,1.000000,0.250000,1,57.281
5.370505,0.048696,0.002667,-0.011096,1.018653,1.018717,0.002300,-0.000843,-0.074996,0.075036,-0.000843,0.000000,0.172127,MOVE,0,0,-0.004180,1.000000,0.250000,1,57.224
5.415483,0.044977,0.005091,-0.011096,1.017922,1.017995,-0.002243,-0.000846,0.000939,0.002575,-0.000846,0.000000,0.171109,MOVE,0,0,-0.004218,1.000000,0.250000,1,57.239
5.457308,0.041825,0.003637,-0.012061,1.017922,1.018000,0.000771,0.001593,-0.074518,0.074539,0.001593,0.000000,0.170198,MOVE,0,0,-0.004151,1.000000,0.250000,1,57.164
5.498964,0.041657,0.005091,-0.011820,1.017922,1.018003,-0.000749,-0.001148,0.002290,0.002669,-0.001148,0.000000,0.169381,MOVE,0,0,-0.004199,1.000000,0.250000,1,57.161
5.537946,0.038982,0.004849,-0.011096,1.020115,1.020187,-0.001979,0.002202,0.002146,0.003657,0.002202,0.000000,0.170611,MOVE,0,0,-0.004113,1.000000,0.250000,1,57.151
5.579574,0.041628,0.004364,-0.010131,1.018409,1.018469,-0.000779,-0.000530,0.003221,0.003356,-0.000530,0.000000,0.170172,MOVE,0,0,-0.004135,1.000000,0.250000,1,57.138
5.628016,0.048441,0.003394,-0.011096,1.018409,1.018475,0.001296,-0.000804,0.002471,0.002904,-0.000804,0.000000,0.169783,MOVE,0,0,-0.004174,1.000000,0.250000,1,57.148
5.673124,0.045108,0.004606,-0.011820,1.019871,1.019950,0.001518,0.000107,0.001182,0.001927,0.000107,0.000000,0.170760,MOVE,0,0,-0.004170,1.000000,0.250000,1,57.167
5.714480,0.041356,0.004364,-0.011338,1.019140,1.019213,0.001788,0.001598,0.078896,0.078933,0.001598,0.000000,0.170975,MOVE,0,0,-0.004103,1.000000,0.250000,1,57.236
5.759486,0.045007,0.003879,-0.012061,1.018165,1.018244,0.000297,0.001263,0.000981,0.001627,0.001263,0.000000,0.170297,MOVE,0,0,-0.004047,1.000000,0.250000,1,57.305
5.800839,0.041353,0.005091,-0.009890,1.018897,1.018957,-0.000052,-0.000916,0.002054,0.002250,-0.000916,0.000000,0.170329,MOVE,0,0,-0.004084,1.000000,0.250000,1,57.309
5.846152,0.045313,0.004122,-0.011820,1.018165,1.018242,0.002343,0.000866,-0.000075,0.002499,0.000866,0.000000,0.169714,MOVE,0,0,-0.004045,1.000000,0.250000,1,57.311
5.894695,0.048543,0.004364,-0.010131,1.018409,1.018469,-0.001588,0.000853,-0.000937,0.002031,0.000853,0.000000,0.169365,MOVE,0,0,-0.004004,1.000000,0.250000,1,57.324
5.939531,0.044836,0.003394,-0.011096,1.018653,1.018719,-0.000963,0.000180,-0.002077,0.002296,0.000180,0.000000,0.169275,MOVE,0,0,-0.003996,1.000000,0.250000,1,57.330
5.981140,0.041610,0.004606,-0.011096,1.019871,1.019942,0.001442,-0.001015,-0.002614,0.003153,-0.001015,0.000000,0.170296,MOVE,0,0,-0.004038,1.000000,0.250000,1,57.331
6.026010,0.044870,0.004606,-0.011820,1.019628,1.019706,-0.002779,-0.000634,0.000143,0.002854,-0.000634,0.000000,0.171002,MOVE,0,0,-0.004066,1.000000,0.250000,1,57.308
6.074733,0.048723,0.005819,-0.010855,1.020602,1.020677,0.000297,0.000914,-0.001055,0.001427,0.000914,0.000000,0.172511,MOVE,0,0,-0.004022,1.000000,0.250000,1,57.303
6.119857,0.045124,0.005091,-0.011096,1.020115,1.020188,0.002364,0.001804,-0.001308,0.003249,0.001804,0.000000,0.173429,MOVE,0,0,-0.003940,1.000000,0.250000,1,57.307
6.161810,0.041953,0.003879,-0.012544,1.019384,1.019468,-0.001642,-0.000618,-0.001248,0.002153,-0.000618,0.000000,0.173608,MOVE,0,0,-0.003966,1.000000,0.250000,1,57.312
6.206778,0.044968,0.003394,-0.011579,1.020602,1.020674,-0.001361,0.000024,-0.000611,0.001492,0.000024,0.000000,0.174853,MOVE,0,0,-0.003965,1.000000,0.250000,1,57.306
6.255369,0.048592,0.004122,-0.012061,1.020359,1.020438,0.000459,0.000964,-0.076852,0.076859,0.000964,0.000000,0.175762,MOVE,0,0,-0.003919,1.000000,0.250000,1,57.240
6.300328,0.044958,0.004849,-0.011338,1.018653,1.018727,0.001332,-0.000531,0.002184,0.002613,-0.000531,0.000000,0.175041,MOVE,0,0,-0.003942,1.000000,0.250000,1,57.184
6.341884,0.041556,0.005334,-0.012785,1.019140,1.019234,0.002487,0.000372,0.003061,0.003962,0.000372,0.000000,0.174848,MOVE,0,0,-0.003927,1.000000,0.250000,1,57.189
6.386925,0.045042,0.003394,-0.011579,1.018165,1.018237,0.000973,0.001219,0.001188,0.001960,0.001219,0.000000,0.173776,MOVE,0,0,-0.003872,1.000000,0.250000,1,57.195
6.435379,0.048454,0.003394,-0.011338,1.017191,1.017260,-0.000817,0.000583,0.001149,0.001526,0.000583,0.000000,0.171932,MOVE,0,0,-0.003844,1.000000,0.250000,1,57.220
6.480670,0.045291,0.004606,-0.011579,1.019628,1.019704,0.001256,-0.000026,0.001973,0.002338,-0.000026,0.000000,0.172472,MOVE,0,0,-0.003845,1.000000,0.250000,1,57.244
6.522104,0.041434,0.005091,-0.011820,1.017922,1.018003,0.003045,0.000806,0.001875,0.003666,0.000806,0.000000,0.171428,MOVE,0,0,-0.003812,1.000000,0.250000,1,57.240
6.567715,0.045611,0.004122,-0.011820,1.018653,1.018730,-0.000019,0.000195,0.001782,0.001793,0.000195,0.000000,0.171142,MOVE,0,0,-0.003803,1.000000,0.250000,1,57.245
6.609447,0.041732,0.004122,-0.011096,1.018653,1.018722,-0.000027,-0.001596,0.000803,0.001787,-0.001596,0.000000,0.170877,MOVE,0,0,-0.003869,1.000000,0.250000,1,57.254
6.651017,0.041570,0.003879,-0.011820,1.020602,1.020678,-0.001768,-0.000977,0.078210,0.078236,-0.000977,0.000000,0.172400,MOVE,0,0,-0.003910,1.000000,0.250000,1,57.340
6.692659,0.041642,0.003152,-0.010614,1.018165,1.018226,0.002179,-0.001273,0.000564,0.002586,-0.001273,0.000000,0.171563,MOVE,0,0,-0.003963,1.000000,0.250000,1,57.368
6.730612,0.037952,0.004122,-0.011096,1.017922,1.017991,0.001275,0.000546,-0.001622,0.002134,0.000546,0.000000,0.170598,MOVE,0,0,-0.003942,1.000000,0.250000,1,57.448
6.779083,0.048472,0.004606,-0.010855,1.018165,1.018234,0.001827,0.000249,-0.000631,0.001949,0.000249,0.000000,0.169948,MOVE,0,0,-0.003930,1.000000,0.250000,1,57.454
6.816956,0.037873,0.005334,-0.011579,1.018165,1.018245,-0.000621,-0.001820,-0.000961,0.002150,-0.001820,0.000000,0.169374,MOVE,0,0,-0.003999,1.000000,0.250000,1,57.510
6.865738,0.048782,0.004606,-0.011579,1.018409,1.018485,0.000591,-0.000254,-0.000563,0.000855,-0.000254,0.000000,0.169074,MOVE,0,0,-0.004011,1.000000,0.250000,1,57.512
6.910588,0.044849,0.004122,-0.011820,1.017191,1.017268,-0.000579,0.000314,-0.001656,0.001782,0.000314,0.000000,0.167707,MOVE,0,0,-0.003997,1.000000,0.250000,1,57.522
6.952057,0.041469,0.004364,-0.011338,1.018409,1.018482,-0.000235,0.001199,-0.002470,0.002756,0.001199,0.000000,0.167570,MOVE,0,0,-0.003948,1.000000,0.250000,1,57.531
6.997644,0.045587,0.004364,-0.011820,1.019384,1.019462,0.000372,-0.001548,-0.002037,0.002585,-0.001548,0.000000,0.168328,MOVE,0,0,-0.004018,1.000000,0.250000,1,57.529
7.041398,0.043754,0.003394,-0.012061,1.017191,1.017268,-0.001137,-0.001496,-0.001946,0.002705,-0.001496,0.000000,0.167037,MOVE,0,0,-0.004084,1.000000,0.250000,1,57.520
7.088647,0.047249,0.003879,-0.011579,1.018165,1.018239,-0.000195,-0.000286,-0.001844,0.001876,-0.000286,0.000000,0.166748,MOVE,0,0,-0.004097,1.000000,0.250000,1,57.512
7.132065,0.043418,0.004364,-0.011820,1.018165,1.018243,0.000715,0.000319,-0.001763,0.001929,0.000319,0.000000,0.166492,MOVE,0,0,-0.004083,1.000000,0.250000,1,57.519
7.175862,0.043797,0.006061,-0.010614,1.018653,1.018726,-0.000185,0.000904,-0.001986,0.002190,0.000904,0.000000,0.166696,MOVE,0,0,-0.004044,1.000000,0.250000,1,57.542
7.219250,0.043388,0.005334,-0.011338,1.019871,1.019948,0.001295,0.000889,-0.002824,0.003231,0.000889,0.000000,0.167980,MOVE,0,0,-0.004005,1.000000,0.250000,1,57.559
7.262772,0.043522,0.004606,-0.010131,1.018165,1.018226,-0.002663,-0.000021,-0.000306,0.002681,-0.000021,0.000000,0.167586,MOVE,0,0,-0.004006,1.000000,0.250000,1,57.514
7.313217,0.050445,0.005091,-0.011579,1.018653,1.018731,0.000972,0.000316,0.000734,0.001259,0.000316,0.000000,0.167685,MOVE,0,0,-0.003990,1.000000,0.250000,1,57.547
7.357368,0.044151,0.004606,-0.011096,1.017922,1.017993,0.000924,0.000625,-0.001765,0.002088,0.000625,0.000000,0.167110,MOVE,0,0,-0.003962,1.000000,0.250000,1,57.707
7.407847,0.050479,0.004364,-0.012544,1.018165,1.018252,0.000938,-0.000296,-0.002673,0.002848,-0.000296,0.000000,0.166826,MOVE,0,0,-0.003977,1.000000,0.250000,1,57.667
7.451452,0.043605,0.005334,-0.010131,1.017678,1.017743,0.001547,0.000294,-0.001314,0.002051,0.000294,0.000000,0.166112,MOVE,0,0,-0.003965,1.000000,0.250000,1,57.656
7.496564,0.045112,0.004122,-0.010855,1.018897,1.018963,-0.002703,-0.000041,-0.078406,0.078453,-0.000041,0.000000,0.166567,MOVE,0,0,-0.003966,1.000000,0.250000,1,57.620
7.544123,0.047559,0.004364,-0.010614,1.018653,1.018717,-0.000542,0.000282,0.000100,0.000619,0.000282,0.000000,0.166756,MOVE,0,0,-0.003953,1.000000,0.250000,1,57.582
7.588103,0.043980,0.003879,-0.011338,1.019140,1.019211,0.001302,0.000258,-0.000130,0.001333,0.000258,0.000000,0.167370,MOVE,0,0,-0.003942,1.000000,0.250000,1,57.587
7.631187,0.043085,0.004849,-0.012061,1.018897,1.018980,-0.000550,0.001466,0.001958,0.002507,0.001466,0.000000,0.167714,MOVE,0,0,-0.003879,1.000000,0.250000,1,57.599
7.674441,0.043254,0.004849,-0.012061,1.019384,1.019467,0.001505,0.000237,-0.000806,0.001724,0.000237,0.000000,0.168463,MOVE,0,0,-0.003868,1.000000,0.250000,1,57.599
7.717668,0.043227,0.005576,-0.010614,1.017678,1.017749,-0.002704,-0.000355,0.000700,0.002815,-0.000355,0.000000,0.167591,MOVE,0,0,-0.003884,1.000000,0.250000,1,57.594
7.768390,0.050722,0.005819,-0.010855,1.020359,1.020433,0.000554,-0.002755,-0.001097,0.003017,-0.002755,0.000000,0.169221,MOVE,0,0,-0.004023,1.000000,0.250000,1,57.570
7.811815,0.043425,0.003152,-0.011096,1.019628,1.019693,-0.000104,0.000249,-0.000517,0.000583,0.000249,0.000000,0.170023,MOVE,0,0,-0.004013,1.000000,0.250000,1,57.555
7.855832,0.044017,0.003879,-0.011338,1.019871,1.019942,0.001087,-0.000079,0.000465,0.001185,-0.000079,0.000000,0.170968,MOVE,0,0,-0.004016,1.000000,0.250000,1,57.452
7.899305,0.043473,0.005334,-0.010614,1.018409,1.018478,0.000538,0.000546,-0.000804,0.001111,0.000546,0.000000,0.170502,MOVE,0,0,-0.003992,1.000000,0.250000,1,57.429
7.942259,0.042953,0.004364,-0.010855,1.018653,1.018720,0.001752,-0.000397,0.001533,0.002362,-0.000397,0.000000,0.170300,MOVE,0,0,-0.004009,1.000000,0.250000,1,57.419
7.985565,0.043307,0.003637,-0.012061,1.017678,1.017756,-0.000076,-0.000072,0.002042,0.002045,-0.000072,0.000000,0.169250,MOVE,0,0,-0.004012,1.000000,0.250000,1,57.409
8.036466,0.050901,0.003879,-0.012061,1.018165,1.018244,-0.000033,0.000527,0.000149,0.000549,0.000527,0.000000,0.168745,MOVE,0,0,-0.003986,1.000000,0.250000,1,57.395
8.079896,0.043430,0.004122,-0.010373,1.018409,1.018470,0.000560,-0.000100,0.001298,0.001417,-0.000100,0.000000,0.168494,MOVE,0,0,-0.003990,1.000000,0.250000,1,57.383
8.123785,0.043889,0.004606,-0.011579,1.019384,1.019460,0.000287,0.001381,0.001529,0.002080,0.001381,0.000000,0.169158,MOVE,0,0,-0.003929,1.000000,0.250000,1,57.372
8.171821,0.048036,0.004606,-0.012303,1.018653,1.018737,-0.000954,0.001683,-0.000313,0.001960,0.001683,0.000000,0.169106,MOVE,0,0,-0.003849,1.000000,0.250000,1,57.385
8.222360,0.050539,0.006061,-0.011096,1.017434,1.017513,0.001796,0.003106,0.001799,0.004014,0.003106,0.000000,0.167957,MOVE,0,0,-0.003692,1.000000,0.250000,1,57.384
8.265905,0.043545,0.004364,-0.011820,1.018165,1.018243,-0.000900,-0.002048,0.001420,0.002650,-0.002048,0.000000,0.167581,MOVE,0,0,-0.003781,1.000000,0.250000,1,57.313
8.309246,0.043341,0.003637,-0.012303,1.019384,1.019465,0.000942,-0.001111,0.078295,0.078308,-0.001111,0.000000,0.168341,MOVE,0,0,-0.003829,1.000000,0.250000,1,57.361
8.360146,0.050900,0.005091,-0.010614,1.020359,1.020427,0.001810,-0.000550,0.001606,0.002482,-0.000550,0.000000,0.169891,MOVE,0,0,-0.003857,1.000000,0.250000,1,57.350
8.403611,0.043465,0.004122,-0.012303,1.018897,1.018979,-0.002453,-0.000873,-0.000215,0.002613,-0.000873,0.000000,0.169983,MOVE,0,0,-0.003895,1.000000,0.250000,1,57.340
8.454133,0.050522,0.003879,-0.010855,1.017922,1.017987,-0.002112,0.000016,-0.075319,0.075349,0.000016,0.000000,0.169173,MOVE,0,0,-0.003894,1.000000,0.250000,1,57.284
8.497661,0.043528,0.004606,-0.010131,1.018653,1.018714,-0.000846,-0.000585,0.003044,0.003213,-0.000585,0.000000,0.169098,MOVE,0,0,-0.003920,1.000000,0.250000,1,57.283
8.542049,0.044388,0.004364,-0.010373,1.020115,1.020177,0.000963,-0.000256,0.002002,0.002237,-0.000256,0.000000,0.170347,MOVE,0,0,-0.003931,1.000000,0.250000,1,57.301
8.585795,0.043746,0.004606,-0.012544,1.018409,1.018497,-0.000576,-0.001164,0.001938,0.002333,-0.001164,0.000000,0.169960,MOVE,0,0,-0.003982,1.000000,0.250000,1,57.324
8.629312,0.043517,0.004364,-0.012061,1.020359,1.020439,0.001240,-0.000215,0.000636,0.001410,-0.000215,0.000000,0.171359,MOVE,0,0,-0.003991,1.000000,0.250000,1,57.329
8.673296,0.043984,0.005576,-0.010855,1.018897,1.018970,0.000302,-0.000800,0.000865,0.001216,-0.000800,0.000000,0.171296,MOVE,0,0,-0.004026,1.000000,0.250000,1,57.349
8.723746,0.050450,0.004122,-0.010373,1.020115,1.020176,-0.000003,-0.000175,0.003290,0.003295,-0.000175,0.000000,0.172325,MOVE,0,0,-0.004035,1.000000,0.250000,1,57.317
8.767250,0.043504,0.002424,-0.009649,1.020115,1.020164,-0.000564,0.000434,0.000750,0.001034,0.000434,0.000000,0.173240,MOVE,0,0,-0.004016,1.000000,0.250000,1,57.357
8.810617,0.043367,0.005576,-0.012544,1.018653,1.018745,-0.000861,0.000158,0.003320,0.003433,0.000158,0.000000,0.172786,MOVE,0,0,-0.004009,1.000000,0.250000,1,57.397
8.861722,0.051104,0.004122,-0.012303,1.019384,1.019466,-0.000833,0.001066,-0.073972,0.073984,0.001066,0.000000,0.173028,MOVE,0,0,-0.003955,1.000000,0.250000,1,57.359
8.912297,0.050575,0.003637,-0.011338,1.019871,1.019941,-0.001412,0.000457,0.002453,0.002867,0.000457,0.000000,0.173672,MOVE,0,0,-0.003932,1.000000,0.250000,1,57.450
8.955941,0.043644,0.004122,-0.011579,1.022308,1.022382,0.000359,-0.000152,0.078306,0.078307,-0.000152,0.000000,0.176448,MOVE,0,0,-0.003939,1.000000,0.250000,1,57.528
9.004225,0.048284,0.004606,-0.012061,1.020602,1.020684,-0.000862,-0.000457,0.001642,0.001911,-0.000457,0.000000,0.177419,MOVE,0,0,-0.003961,1.000000,0.250000,1,57.447
9.049137,0.044912,0.004364,-0.010855,1.019140,1.019207,0.000054,-0.000457,0.000732,0.000865,-0.000457,0.000000,0.176964,MOVE,0,0,-0.003981,1.000000,0.250000,1,57.368
9.099956,0.050819,0.003879,-0.010855,1.020359,1.020424,0.000054,-0.002594,-0.002315,0.003478,-0.002594,0.000000,0.177649,MOVE,0,0,-0.004113,1.000000,0.250000,1,57.354
9.143344,0.043389,0.004122,-0.009408,1.017434,1.017486,-0.000252,0.000154,0.001343,0.001375,0.000154,0.000000,0.175622,MOVE,0,0,-0.004106,1.000000,0.250000,1,57.415
9.187687,0.044342,0.005091,-0.012544,1.018653,1.018743,0.001275,0.000765,0.001343,0.002004,0.000765,0.000000,0.174928,MOVE,0,0,-0.004072,1.000000,0.250000,1,57.408
9.230827,0.043140,0.004849,-0.011579,1.019628,1.019705,0.003413,-0.000456,0.001343,0.003696,-0.000456,0.000000,0.175170,MOVE,0,0,-0.004092,1.000000,0.250000,1,57.399
9.274023,0.043196,0.004364,-0.012303,1.020359,1.020442,0.000358,-0.001373,0.000732,0.001597,-0.001373,0.000000,0.176051,MOVE,0,0,-0.004151,1.000000,0.250000,1,57.389
9.317173,0.043150,0.004364,-0.012303,1.016703,1.016787,0.000053,-0.000151,0.001037,0.001049,-0.000151,0.000000,0.173554,MOVE,0,0,-0.004158,1.000000,0.250000,1,57.383
9.368024,0.050851,0.004122,-0.008925,1.020359,1.020406,0.000664,-0.001373,0.002557,0.002978,-0.001373,0.000000,0.174564,MOVE,0,0,-0.004228,1.000000,0.250000,1,57.457
9.411360,0.043336,0.004849,-0.011338,1.018409,1.018484,0.002496,0.000154,0.001030,0.002705,0.000154,0.000000,0.173743,MOVE,0,0,-0.004221,1.000000,0.250000,1,57.468
9.454793,0.043433,0.005091,-0.013509,1.018897,1.018999,-0.000558,0.002292,-0.000192,0.002367,0.002292,0.000000,0.173468,MOVE,0,0,-0.004121,1.000000,0.250000,1,57.487
9.505369,0.050576,0.006304,-0.013991,1.018653,1.018768,-0.002085,0.001070,0.000113,0.002346,0.001070,0.000000,0.173012,MOVE,0,0,-0.004067,1.000000,0.250000,1,57.508
9.548922,0.043552,0.001940,-0.008925,1.017678,1.017719,0.001274,-0.000762,0.000419,0.001543,-0.000762,0.000000,0.171658,MOVE,0,0,-0.004100,1.000000,0.250000,1,57.534
9.599552,0.050631,0.004364,-0.010855,1.017922,1.017989,-0.001780,0.000154,0.001946,0.002642,0.000154,0.000000,0.170683,MOVE,0,0,-0.004093,1.000000,0.250000,1,57.558
9.642756,0.043203,0.002182,-0.009649,1.019871,1.019919,0.002191,-0.002290,-0.000192,0.003175,-0.002290,0.000000,0.171542,MOVE,0,0,-0.004192,1.000000,0.250000,1,57.562
9.686299,0.043543,0.003152,-0.010373,1.020846,1.020904,-0.000864,0.000765,0.000724,0.001362,0.000765,0.000000,0.173201,MOVE,0,0,-0.004158,1.000000,0.250000,1,57.562
9.729540,0.043241,0.003637,-0.008684,1.017678,1.017722,0.001885,-0.000457,0.001335,0.002355,-0.000457,0.000000,0.171830,MOVE,0,0,-0.004178,1.000000,0.250000,1,57.554
9.779850,0.050310,0.004364,-0.011338,1.020359,1.020431,0.000358,0.002292,0.004083,0.004695,0.002292,0.000000,0.173035,MOVE,0,0,-0.004063,1.000000,0.250000,1,57.574
9.823022,0.043172,0.008486,-0.019298,1.018653,1.018871,0.002191,-0.000763,0.001639,0.002840,-0.000763,0.000000,0.172716,MOVE,0,0,-0.004096,1.000000,0.250000,1,57.588
9.866382,0.043360,0.007031,-0.016645,1.019384,1.019544,0.000358,0.000764,-0.002033,0.002201,0.000764,0.000000,0.173034,MOVE,0,0,-0.004063,1.000000,0.250000,1,57.652
9.909555,0.043173,0.000970,-0.006031,1.018897,1.018915,-0.001170,-0.000458,-0.001116,0.001680,-0.000458,0.000000,0.172754,MOVE,0,0,-0.004082,1.000000,0.250000,1,57.631
9.952643,0.043088,0.006061,-0.012785,1.017434,1.017533,-0.002391,-0.000152,0.000716,0.002501,-0.000152,0.000000,0.171258,MOVE,0,0,-0.004089,1.000000,0.250000,1,57.598
10.003136,0.050493,0.003637,-0.011579,1.021577,1.021649,0.002191,-0.001068,0.000105,0.002440,-0.001068,0.000000,0.173616,MOVE,0,0,-0.004143,1.000000,0.250000,1,57.564
10.054147,0.051012,0.001455,-0.004825,1.121005,1.121017,-0.002696,0.000153,0.001632,0.003156,0.000153,0.000000,0.265170,MOVE,0,0,-0.004135,1.000000,0.250000,1,57.616
10.107527,0.053379,0.013092,-0.017851,1.028644,1.028883,0.005244,0.010843,0.005602,0.013284,0.010843,0.000000,0.264647,MOVE,0,0,-0.003556,1.000000,0.250000,1,57.579
10.159604,0.052077,-0.005677,0.009712,1.043510,1.043571,-0.001171,-0.001374,0.008044,0.008244,-0.001374,0.000000,0.277396,MOVE,0,0,-0.003628,1.000000,0.250000,1,57.553
10.199353,0.039750,0.011153,-0.020263,1.022796,1.023057,-0.007889,0.002901,0.007431,0.011220,0.002901,0.000000,0.270408,MOVE,0,0,-0.003513,1.000000,0.250000,1,57.535
10.241583,0.042230,0.022547,-0.048728,1.013535,1.014956,-0.001169,-0.003208,-0.006008,0.006910,-0.003208,0.000000,0.256828,MOVE,0,0,-0.003648,1.000000,0.250000,1,57.501
10.285964,0.044381,0.008970,-0.016162,1.006224,1.006394,0.008604,-0.003207,-0.008755,0.012687,-0.003207,0.000000,0.236900,MOVE,0,0,-0.003790,1.000000,0.250000,1,57.451
10.327959,0.041995,-0.014316,0.025250,1.021090,1.021502,0.004327,-0.001374,-0.001118,0.004675,-0.001374,0.000000,0.232562,MOVE,0,0,-0.003848,1.000000,0.250000,1,57.437
10.369428,0.041469,-0.003949,0.004613,1.023770,1.023788,-0.003919,0.002596,0.007738,0.009054,0.002596,0.000000,0.230715,MOVE,0,0,-0.003740,1.000000,0.250000,1,57.441
10.407249,0.037821,0.009455,-0.022916,1.019628,1.019929,-0.002392,0.000458,0.003460,0.004231,0.000458,0.000000,0.225580,MOVE,0,0,-0.003723,1.000000,0.250000,1,57.442
10.455590,0.048341,0.011153,-0.023158,1.017678,1.018003,-0.000254,0.001985,0.001627,0.002579,0.001985,0.000000,0.219224,MOVE,0,0,-0.003627,1.000000,0.250000,1,57.432
10.500472,0.044882,0.004849,-0.013509,1.018165,1.018267,0.000052,0.000152,-0.000205,0.000261,0.000152,0.000000,0.213742,MOVE,0,0,-0.003620,1.000000,0.250000,1,57.418
10.542018,0.041546,0.004849,-0.016403,1.019384,1.019527,-0.000254,0.000457,-0.001427,0.001519,0.000457,0.000000,0.209942,MOVE,0,0,-0.003601,1.000000,0.250000,1,57.405
10.587008,0.044991,0.001212,-0.005066,1.020359,1.020372,0.004328,-0.002292,-0.001732,0.005194,-0.002292,0.000000,0.207283,MOVE,0,0,-0.003704,1.000000,0.250000,1,57.390
10.628437,0.041429,0.000485,-0.003136,1.021577,1.021582,-0.001170,-0.000154,0.002238,0.002530,-0.000154,0.000000,0.205978,MOVE,0,0,-0.003711,1.000000,0.250000,1,57.412
10.682764,0.054326,0.009698,-0.022916,1.012073,1.012379,0.002190,-0.000459,0.000405,0.002274,-0.000459,0.000000,0.196522,MOVE,0,0,-0.003736,1.000000,0.250000,1,57.438
10.725145,0.042382,0.008728,-0.018574,1.018165,1.018372,0.001579,0.000151,-0.001122,0.001942,0.000151,0.000000,0.193404,MOVE,0,0,-0.003729,1.000000,0.250000,1,57.447
10.767663,0.042517,0.000727,-0.004583,1.020602,1.020613,0.002189,-0.000459,-0.001732,0.002829,-0.000459,0.000000,0.192616,MOVE,0,0,-0.003749,1.000000,0.250000,1,57.447
10.810427,0.042764,0.002182,-0.006031,1.021577,1.021597,-0.001476,0.002289,0.002238,0.003526,0.002289,0.000000,0.192792,MOVE,0,0,-0.003651,1.000000,0.250000,1,57.463
10.859926,0.049500,0.004849,-0.012544,1.021821,1.021909,-0.000254,-0.000154,0.002238,0.002257,-0.000154,0.000000,0.193231,MOVE,0,0,-0.003659,1.000000,0.250000,1,57.491
10.902576,0.042650,0.003394,-0.009649,1.018653,1.018704,-0.001170,0.001373,0.000710,0.001939,0.001373,0.000000,0.190742,MOVE,0,0,-0.003600,1.000000,0.250000,1,57.543
10.945654,0.043078,0.008728,-0.018092,1.019140,1.019338,0.000356,0.001984,0.000099,0.002018,0.001984,0.000000,0.189072,MOVE,0,0,-0.003515,1.000000,0.250000,1,57.594
10.987893,0.042238,0.008001,-0.016645,1.017191,1.017358,-0.000255,-0.001070,-0.001123,0.001572,-0.001070,0.000000,0.185787,MOVE,0,0,-0.003560,1.000000,0.250000,1,57.626
11.033943,0.046050,-0.000000,-0.004825,1.018409,1.018421,0.002494,-0.000764,-0.001122,0.002840,-0.000764,0.000000,0.183787,MOVE,0,0,-0.003595,1.000000,0.250000,1,57.657
11.079843,0.045900,0.002182,-0.004342,1.021577,1.021589,-0.000560,-0.001375,0.001932,0.002437,-0.001375,0.000000,0.184838,MOVE,0,0,-0.003658,1.000000,0.250000,1,57.679
11.118700,0.038857,0.005576,-0.011338,1.016947,1.017025,-0.003003,0.004122,0.001626,0.005353,0.004122,0.000000,0.181677,MOVE,0,0,-0.003498,1.000000,0.250000,1,57.706
11.161100,0.042400,0.005091,-0.012785,1.020359,1.020452,-0.000255,-0.001070,0.001626,0.001963,-0.001070,0.000000,0.181916,MOVE,0,0,-0.003543,1.000000,0.250000,1,57.728
11.203498,0.042397,-0.030854,-0.012785,1.051064,1.051595,0.179340,-0.191049,0.002542,0.262048,-0.191049,0.000000,0.210160,MOVE,0,0,-0.011643,1.000000,0.250000,1,57.721
11.246286,0.042788,0.006788,0.054628,1.044728,1.046178,-0.071417,0.036505,0.004680,0.080343,0.036505,0.000000,0.230704,MOVE,0,0,-0.010081,1.000000,0.250000,1,57.678
11.291348,0.045062,0.016729,-0.013267,1.009636,1.009862,0.038233,0.005956,0.001015,0.038707,0.005956,0.000000,0.216509,MOVE,0,0,-0.009813,1.000000,0.250000,1,57.664
11.333150,0.041802,-0.025177,-0.020022,1.002813,1.003328,0.112140,-0.122017,-0.002956,0.165748,-0.122017,0.000000,0.197854,MOVE,0,0,-0.014914,1.000000,0.250000,1,57.668
11.374552,0.041402,-0.011354,-0.018816,1.024989,1.025224,-0.058888,0.037404,-0.000818,0.069768,0.037404,0.000000,0.200770,MOVE,0,0,-0.013365,1.000000,0.250000,1,57.700
11.412367,0.037815,0.030306,-0.007237,1.038880,1.039347,-0.029866,0.050544,0.002846,0.058777,0.050544,0.000000,0.216105,MOVE,0,0,-0.011454,1.000000,0.250000,1,57.711
11.460694,0.048327,0.008486,-0.012544,1.019871,1.019984,-0.015205,0.013280,0.003762,0.020535,0.013280,0.000000,0.212480,MOVE,0,0,-0.010812,1.000000,0.250000,1,57.694
11.505515,0.044821,0.005576,-0.011820,1.020115,1.020199,0.017474,-0.012680,-0.003263,0.021835,-0.012680,0.000000,0.209411,MOVE,0,0,-0.011380,1.000000,0.250000,1,57.664
11.546980,0.041465,0.003394,-0.009167,1.016703,1.016750,-0.007571,0.007172,0.000402,0.010436,0.007172,0.000000,0.203545,MOVE,0,0,-0.011083,1.000000,0.250000,1,57.659
11.589544,0.042564,0.004122,-0.010131,1.017922,1.017980,0.005257,-0.000769,-0.000819,0.005376,-0.000769,0.000000,0.199373,MOVE,0,0,-0.011115,1.000000,0.250000,1,57.652
11.634507,0.044964,0.004606,-0.011579,1.019628,1.019704,-0.003295,0.003507,0.001624,0.005078,0.003507,0.000000,0.197169,MOVE,0,0,-0.010958,1.000000,0.250000,1,57.564
11.676041,0.041534,0.003152,-0.010131,1.018897,1.018952,0.000981,-0.002602,0.001630,0.003223,-0.002602,0.000000,0.194509,MOVE,0,0,-0.011066,1.000000,0.250000,1,57.557
11.720975,0.044934,0.004606,-0.012303,1.020359,1.020443,-0.029865,0.004423,-0.005700,0.030724,0.004423,0.000000,0.193457,MOVE,0,0,-0.010867,1.000000,0.250000,1,57.489
11.770414,0.049440,-0.011848,-0.026052,1.024502,1.024901,0.019918,-0.001989,-0.366411,0.366958,-0.001989,0.000000,0.196522,MOVE,0,0,-0.010965,1.000000,0.250000,1,56.691
11.812408,0.041994,0.009455,-0.005789,1.017434,1.017495,-0.000545,0.038633,-0.459874,0.461494,0.038633,0.000000,0.192615,MOVE,0,0,-0.009343,1.000000,0.250000,1,55.752
11.850431,0.038023,-0.001234,-0.012303,1.016947,1.017022,0.002814,0.039244,-0.527374,0.528840,0.039244,0.000000,0.188674,MOVE,0,0,-0.007851,1.000000,0.250000,1,54.655
11.892040,0.041609,0.016486,0.001214,1.019384,1.019518,0.001898,0.030692,-0.314182,0.315683,0.030692,0.000000,0.187373,MOVE,0,0,-0.006574,1.000000,0.250000,1,53.986
11.933464,0.041425,0.029821,0.003642,0.996233,0.996686,-0.032921,0.056654,-0.197507,0.208092,0.056654,0.000000,0.165652,MOVE,0,0,-0.004227,1.000000,0.250000,1,53.432
11.978477,0.045012,-0.026905,-0.055964,1.031812,1.033679,-0.019788,0.149200,-0.726211,0.741643,0.149200,0.000000,0.179398,MOVE,0,0,0.002489,1.000000,0.250000,1,52.221
12.019880,0.041403,0.009940,0.005827,1.025476,1.025541,-0.070184,0.024889,-0.326705,0.335084,0.024889,0.000000,0.184446,MOVE,0,0,0.003519,1.000000,0.250000,1,51.640
12.065120,0.045240,0.048489,0.002428,1.004031,1.005204,0.012588,0.080477,0.004079,0.081558,0.080477,0.000000,0.170685,MOVE,0,0,0.007160,1.000000,0.250000,1,51.861
12.113524,0.048404,-0.005430,-0.012544,1.019871,1.019963,0.041897,-0.004434,-0.001419,0.042155,-0.004434,0.000000,0.171583,MOVE,0,0,0.006945,1.000000,0.250000,1,52.113
12.158578,0.045053,-0.000741,0.005584,1.028888,1.028904,-0.018584,0.110087,0.005605,0.111785,0.110087,0.000000,0.180438,MOVE,0,0,0.011905,1.000000,0.250000,1,52.364
12.200170,0.041592,-0.009627,-0.032565,1.008661,1.009233,-0.112027,0.092369,0.135105,0.198332,0.092369,0.000000,0.170704,MOVE,0,0,0.015747,1.000000,0.250000,1,53.056
12.245070,0.044900,-0.049861,-0.098179,1.090056,1.095604,0.277399,-0.269569,0.269801,0.471604,-0.269569,0.000000,0.239676,MOVE,0,0,0.003643,1.000000,0.250000,1,54.011
12.295202,0.050132,0.117829,-0.056206,0.920930,0.930137,0.011367,-0.101275,-0.209729,0.233178,-0.101275,0.000000,0.152832,MOVE,0,0,-0.001434,1.000000,0.250000,1,54.069
12.337086,0.041885,0.003637,0.047345,1.038636,1.039721,0.004342,0.047165,0.205660,0.211043,0.047165,0.000000,0.173298,MOVE,0,0,0.000542,1.000000,0.250000,1,55.079
12.382036,0.044950,-0.039987,-0.020987,1.044485,1.045461,0.056571,-0.257352,0.087763,0.277727,-0.257352,0.000000,0.196883,MOVE,0,0,-0.011026,1.000000,0.250000,1,55.926
12.423335,0.041299,0.091160,0.117512,1.111501,1.121407,-0.606217,0.288457,0.176644,0.694197,0.288457,0.000000,0.286461,MOVE,0,0,0.000887,1.000000,0.250000,1,56.883
12.468379,0.045044,0.111525,0.057785,0.991602,0.999526,-0.270547,0.048997,0.851039,0.894351,0.048997,0.000000,0.257388,MOVE,0,0,0.003094,1.000000,0.250000,1,59.200
12.516691,0.048312,-0.037272,0.119697,1.208493,1.214978,-0.053995,-0.369751,0.787509,0.871666,-0.369751,0.000000,0.425129,MOVE,0,0,-0.014769,1.000000,0.250000,1,61.337
12.554746,0.038054,0.040004,-0.000965,1.267467,1.268099,0.383079,0.677272,1.031550,1.292107,0.677272,0.000000,0.623905,MOVE,0,0,0.011004,1.000000,0.250000,1,64.023
12.597008,0.042262,-0.002468,0.106829,1.088350,1.093583,0.319243,1.239574,0.798810,1.508826,1.239574,0.000000,0.645740,MOVE,0,0,0.063391,1.000000,0.250000,1,66.296
12.638386,0.041378,0.195169,0.055114,1.150249,1.167990,0.288089,0.163840,0.507733,0.606326,0.163840,0.000000,0.732357,MOVE,0,0,0.070170,1.000000,0.250000,1,67.673
12.683502,0.045116,-0.096513,0.021123,0.949687,0.954812,0.186991,0.024257,-0.044184,0.193665,0.024257,0.000000,0.618452,MOVE,0,0,0.071265,1.000000,0.250000,1,68.223
12.731999,0.048497,-0.031595,-0.059100,1.096148,1.098195,0.155532,-0.293393,-0.030745,0.333488,-0.293393,0.000000,0.644983,MOVE,0,0,0.057036,1.000000,0.250000,1,68.504
12.778843,0.046844,-0.072323,-0.028465,1.101510,1.104248,0.317105,-0.183131,-0.013641,0.366441,-0.183131,0.000000,0.674308,MOVE,0,0,0.048457,1.000000,0.250000,1,68.924
12.820357,0.041514,-0.027152,-0.013026,1.119056,1.119461,0.026334,-0.135484,-0.029218,0.141078,-0.135484,0.000000,0.714392,MOVE,0,0,0.042833,1.000000,0.250000,1,69.147
12.862174,0.041817,-0.012589,0.018452,1.018897,1.019141,-0.083011,0.324803,-0.294944,0.446520,0.324803,0.000000,0.660180,MOVE,0,0,0.056415,1.000000,0.250000,1,68.912
12.903667,0.041493,-0.006911,0.040789,1.001107,1.001961,0.045270,-0.358450,-0.030440,0.362577,-0.358450,0.000000,0.595927,MOVE,0,0,0.041542,1.000000,0.250000,1,69.049
12.948523,0.044856,-0.034557,0.042246,1.163652,1.164932,-0.169449,-0.382579,-0.265012,0.495289,-0.382579,0.000000,0.684773,MOVE,0,0,0.024381,1.000000,0.250000,1,68.823
12.989939,0.041416,-0.031348,0.070895,1.043997,1.046871,-0.348738,0.702318,-0.358474,0.862190,0.702318,0.000000,0.658480,MOVE,0,0,0.053468,1.000000,0.250000,1,68.516
13.034788,0.044849,-0.047146,0.028650,1.041804,1.043264,-0.030172,0.325108,-0.083585,0.337035,0.325108,0.000000,0.631569,MOVE,0,0,0.068049,1.000000,0.250000,1,68.689
13.076602,0.041814,-0.035544,0.090562,1.015728,1.020377,0.002204,0.765542,-0.111379,0.773605,0.765542,0.000000,0.586751,MOVE,0,0,0.100060,1.000000,0.250000,1,68.735
13.121429,0.044827,-0.050108,0.086191,1.040098,1.044866,-0.383557,0.058160,-0.335567,0.512936,0.058160,0.000000,0.568455,MOVE,0,0,0.102667,1.000000,0.250000,1,68.497
13.169995,0.048566,-0.092810,0.026464,1.084695,1.088980,-0.469689,0.303728,-0.378327,0.675270,0.303728,0.000000,0.591691,MOVE,0,0,0.117418,1.000000,0.250000,1,68.180
13.214825,0.044830,-0.080962,0.028650,1.033762,1.037323,-0.263522,0.332133,-0.250657,0.492529,0.332133,0.000000,0.566113,MOVE,0,0,0.132307,1.000000,0.250000,1,68.343
13.256163,0.041338,-0.100215,0.010197,1.007930,1.012951,0.014123,0.042886,-0.083265,0.094719,0.042886,0.000000,0.521158,MOVE,0,0,0.134080,1.000000,0.250000,1,69.036
13.298650,0.042487,-0.052576,-0.006513,0.897779,0.899341,-0.001149,-0.309278,-0.214907,0.376615,-0.309278,0.000000,0.378449,MOVE,0,0,0.120940,1.000000,0.250000,1,69.527
13.343712,0.045062,-0.092317,-0.010373,0.969182,0.973624,0.148208,-0.208791,-0.086319,0.270204,-0.208791,0.000000,0.316866,MOVE,0,0,0.111531,1.000000,0.250000,1,70.022
13.385364,0.041652,-0.029373,-0.039802,0.835880,0.837343,0.022064,-0.304697,-0.255224,0.398078,-0.304697,0.000000,0.138788,MOVE,0,0,0.098840,1.000000,0.250000,1,70.108
13.430353,0.044989,-0.074298,-0.038114,0.895830,0.899713,0.385223,-0.608297,-0.016681,0.720209,-0.608297,0.000000,0.034651,MOVE,1,1,0.071473,1.448851,0.282136,1,70.564
13.478846,0.048493,-0.109348,0.034477,0.864880,0.872447,0.360789,-0.430840,0.080447,0.567683,-0.430840,0.000000,-0.083612,MOVE,0,1,0.050580,1.448851,0.282136,1,71.241
13.516772,0.037925,-0.053563,-0.089495,0.953098,0.958788,0.549546,-0.418318,0.218197,0.724293,-0.418318,0.000000,-0.112342,MOVE,0,1,0.034716,1.448851,0.282136,1,72.040
13.565822,0.049051,-0.078000,0.039332,0.906309,0.910509,0.257247,-0.663886,0.044711,0.713386,-0.663886,0.000000,-0.181650,MOVE,0,1,0.002152,1.448851,0.282136,1,72.485
13.611454,0.045632,-0.059734,0.036176,1.011342,1.013750,0.793892,-0.289120,0.163830,0.860637,-0.289120,0.000000,-0.151109,MOVE,0,1,-0.011041,1.448851,0.282136,1,72.965
13.652968,0.041514,0.022790,0.135478,0.783242,0.795199,0.168061,-0.101890,0.031883,0.199104,-0.101890,0.000000,-0.320320,MOVE,0,1,-0.015271,1.448851,0.282136,1,73.107
13.694584,0.041615,-0.093551,0.170683,0.955535,0.975158,1.157968,-0.268045,0.202314,1.205682,-0.268045,0.000000,-0.310646,MOVE,0,1,-0.026426,1.448851,0.282136,1,73.306
13.739522,0.044938,0.016729,0.157087,0.835880,0.850677,0.647896,-0.129684,-0.121750,0.671870,-0.129684,0.000000,-0.413972,MOVE,0,1,-0.032254,1.448851,0.282136,1,72.552
13.788251,0.048728,-0.050848,0.257117,1.014266,1.047583,1.197063,-0.116856,-0.211547,1.221216,-0.116856,0.000000,-0.329749,MOVE,0,1,-0.037948,1.448851,0.282136,1,71.730
13.833139,0.044888,0.143770,-0.046557,1.055938,1.066697,0.454251,0.625651,0.206590,0.800289,0.625651,0.000000,-0.236747,MOVE,0,1,-0.009864,1.448851,0.282136,1,71.943
13.874841,0.041703,0.033215,-0.113617,1.201182,1.207000,0.332384,1.566078,0.246908,1.619890,1.566078,0.000000,-0.026772,MOVE,1,2,0.055446,1.898160,0.307073,1,73.110
13.919771,0.044930,0.011395,0.042731,0.954804,0.955828,0.863226,0.622597,0.625033,1.234282,0.622597,0.000000,-0.063850,MOVE,0,2,0.083419,1.898160,0.307073,1,74.311
13.961894,0.042123,-0.178462,0.423187,1.070560,1.164919,-0.106829,0.274098,0.271037,0.400004,0.274098,0.000000,0.090962,MOVE,0,2,0.094965,1.898160,0.307073,1,74.828
14.003362,0.041468,-0.150817,0.386526,1.059594,1.137931,0.201353,-0.190160,-0.120833,0.302166,-0.190160,0.000000,0.206004,MOVE,0,2,0.087079,1.898160,0.307073,1,74.301
14.049123,0.045761,-0.079728,0.210744,1.048140,1.072086,-0.839561,-0.142512,-0.148933,0.864496,-0.142512,0.000000,0.250281,MOVE,0,2,0.080558,1.898160,0.307073,1,73.626
14.097671,0.048548,-0.051342,0.229682,1.028401,1.054987,-0.603157,-0.225284,-0.110449,0.653261,-0.225284,0.000000,0.274741,MOVE,0,2,0.069620,1.898160,0.307073,1,73.025
14.142608,0.044937,-0.043196,0.202975,0.945300,0.967810,-0.760149,-0.496508,-0.223764,0.935103,-0.496508,0.000000,0.218296,MOVE,0,2,0.047309,1.898160,0.307073,1,72.236
14.184249,0.041640,0.217474,0.306647,0.983804,1.053185,-1.173094,0.595719,0.044711,1.316445,0.595719,0.000000,0.244333,MOVE,0,2,0.072115,1.898160,0.307073,1,71.858
14.229143,0.044895,-0.085158,0.089105,0.955048,0.962968,-0.787332,0.366644,-0.146490,0.880783,0.366644,0.000000,0.186571,MOVE,0,2,0.088575,1.898160,0.307073,1,71.846
14.277825,0.048681,-0.080468,0.130865,0.931897,0.944475,-0.185325,0.166891,-0.263165,0.362565,0.166891,0.000000,0.117941,MOVE,0,2,0.096699,1.898160,0.307073,1,71.606
14.315739,0.037914,-0.098487,0.178695,1.056426,1.075949,-0.264126,-0.309889,-0.236287,0.470771,-0.309889,0.000000,0.174502,MOVE,0,2,0.084950,1.898160,0.307073,1,71.391
14.357444,0.041705,-0.095032,0.088134,0.941888,0.950764,-0.135234,-0.394494,-0.357544,0.549319,-0.394494,0.000000,0.112739,MOVE,0,2,0.068498,1.898160,0.307073,1,70.883
14.399069,0.041625,-0.074298,0.045402,1.026695,1.030380,-0.092473,-0.449166,-0.454671,0.645777,-0.449166,0.000000,0.128807,MOVE,0,2,0.049801,1.898160,0.307073,1,70.029
14.443989,0.044920,-0.040728,0.042003,1.007930,1.009627,-0.040550,-0.427481,-0.456198,0.626499,-0.427481,0.000000,0.124591,MOVE,0,2,0.030599,1.898160,0.307073,1,68.952
14.492480,0.048491,0.021335,0.028164,1.022796,1.023406,0.126522,-0.342876,-0.331887,0.493681,-0.342876,0.000000,0.133197,MOVE,0,2,0.013972,1.898160,0.307073,1,68.335
14.530395,0.037915,0.014062,0.119454,1.082501,1.089163,0.266410,0.111913,-0.275688,0.399378,0.111913,0.000000,0.200124,MOVE,0,2,0.018215,1.898160,0.307073,1,67.824
14.572160,0.041765,-0.015797,0.069924,0.962602,0.965268,0.260607,0.109775,-0.275993,0.395144,0.109775,0.000000,0.148853,MOVE,0,2,0.022800,1.898160,0.307073,1,67.351
14.613641,0.041481,0.008970,0.111685,1.111745,1.117377,0.008625,0.011121,-0.212769,0.213234,0.011121,0.000000,0.239607,MOVE,0,2,0.023262,1.898160,0.307073,1,66.873
14.658596,0.044955,0.007273,0.062398,1.009636,1.011589,-0.154453,-0.057605,-0.025832,0.166857,-0.057605,0.000000,0.226076,MOVE,0,2,0.020672,1.898160,0.307073,1,66.769
14.707189,0.048593,-0.013823,0.077451,1.059594,1.062511,0.208704,-0.002608,0.022732,0.209954,-0.002608,0.000000,0.259728,MOVE,0,2,0.020545,1.898160,0.307073,1,66.791
14.745137,0.037948,-0.010614,0.121639,0.938720,0.946628,0.254519,0.180652,0.072518,0.320427,0.180652,0.000000,0.185720,MOVE,0,2,0.027400,1.898160,0.307073,1,66.941
14.793753,0.048617,-0.055785,0.170683,0.966258,0.982802,0.104246,-0.057281,0.021816,0.120931,-0.057281,0.000000,0.151670,MOVE,0,2,0.024616,1.898160,0.307073,1,66.949
14.838618,0.044865,-0.058253,0.108043,1.053014,1.060144,-0.097951,-0.014520,0.121998,0.157126,-0.014520,0.000000,0.190632,MOVE,0,2,0.023964,1.898160,0.307073,1,67.144
14.880311,0.041693,-0.029373,0.165585,0.893636,0.909322,-0.412852,0.107348,0.162010,0.456308,0.107348,0.000000,0.089959,MOVE,0,2,0.028440,1.898160,0.307073,1,67.406
14.925212,0.044901,-0.017278,0.043703,0.997939,0.999044,-0.212793,0.224328,0.325721,0.449109,0.224328,0.000000,0.080103,MOVE,0,2,0.038512,1.898160,0.307073,1,68.092
14.973711,0.048498,0.001940,0.017238,0.926292,0.926454,-0.104670,0.326037,0.336412,0.480030,0.326037,0.000000,0.005902,MOVE,1,3,0.054325,2.347496,0.331507,1,68.869
15.018612,0.044901,0.032973,-0.000724,0.965527,0.966090,-0.247002,0.366355,0.395360,0.592904,0.366355,0.000000,-0.025208,MOVE,0,3,0.070775,2.347496,0.331507,1,69.658
15.060411,0.041799,0.056005,-0.030877,1.007443,1.009471,-0.173087,-0.241151,0.376729,0.479622,-0.241151,0.000000,-0.014163,MOVE,0,3,0.060695,2.347496,0.331507,1,70.336
15.105381,0.044970,0.036124,0.084977,1.169745,1.173384,0.216950,-0.076523,0.223402,0.320673,-0.076523,0.000000,0.143298,MOVE,0,3,0.057253,2.347496,0.331507,1,70.618
15.155374,0.049992,0.015032,0.126495,1.060325,1.067949,-0.015178,-0.259782,-0.113185,0.283775,-0.259782,0.000000,0.190123,MOVE,0,3,0.044266,2.347496,0.331507,1,70.162
15.198760,0.043386,-0.035544,0.013839,0.951636,0.952400,-0.063131,0.032517,-0.201150,0.213317,0.032517,0.000000,0.128271,MOVE,0,3,0.045677,2.347496,0.331507,1,69.463
15.242162,0.043402,-0.060475,-0.053311,0.949199,0.952617,-0.002656,-0.354161,-0.073479,0.361713,-0.354161,0.000000,0.072799,MOVE,0,3,0.030306,2.347496,0.331507,1,68.914
15.293233,0.051071,-0.069361,0.050744,1.046191,1.049715,-0.028923,-0.452816,-0.161138,0.481502,-0.452816,0.000000,0.110262,MOVE,0,3,0.007180,2.347496,0.331507,1,68.235
15.337003,0.043770,-0.018513,0.035691,1.093224,1.093963,-0.118109,-0.154714,-0.173355,0.260649,-0.154714,0.000000,0.183803,MOVE,0,3,0.000408,2.347496,0.331507,1,67.359
15.387838,0.050835,0.020123,0.023065,1.098098,1.098524,-0.212182,0.022132,-0.206037,0.296584,0.022132,0.000000,0.254094,MOVE,0,3,0.001533,2.347496,0.331507,1,66.517
15.431340,0.043502,0.023517,0.031077,0.947981,0.948782,-0.274491,-0.057281,-0.255211,0.379156,-0.057281,0.000000,0.182588,MOVE,0,3,-0.000958,2.347496,0.331507,1,65.458
15.482414,0.051075,0.030791,-0.004583,0.885838,0.886385,-0.453780,0.029157,-0.178853,0.488625,0.029157,0.000000,0.062076,MOVE,0,3,0.000531,2.347496,0.331507,1,64.600
15.525928,0.043513,0.001940,-0.036666,1.053745,1.054385,-0.081457,-0.308346,-0.081726,0.329229,-0.308346,0.000000,0.104815,MOVE,0,3,-0.012886,2.347496,0.331507,1,63.958
15.577285,0.051357,-0.011108,0.001457,1.034006,1.034066,-0.089397,-0.206632,-0.027956,0.226870,-0.206632,0.000000,0.124993,MOVE,0,3,-0.023498,2.347496,0.331507,1,63.615
15.628054,0.050769,0.010910,0.018938,1.208493,1.208690,0.241692,-0.093011,0.044126,0.262704,-0.093011,0.000000,0.300315,MOVE,0,3,-0.028221,2.347496,0.331507,1,63.217
15.671552,0.043498,-0.022709,0.025008,0.986972,0.987550,0.005592,0.107038,-0.084760,0.136648,0.107038,0.000000,0.259079,MOVE,0,3,-0.023565,2.347496,0.331507,1,62.614
15.715028,0.043476,-0.036779,-0.034013,0.987703,0.988973,0.106391,0.031281,-0.020610,0.112794,0.031281,0.000000,0.223246,MOVE,0,3,-0.022205,2.347496,0.331507,1,62.093
15.766646,0.051618,-0.049861,0.020395,0.962846,0.964352,-0.112302,-0.075315,-0.100315,0.168366,-0.075315,0.000000,0.168838,MOVE,0,3,-0.026092,2.347496,0.331507,1,61.446
15.809946,0.043300,-0.039987,-0.110240,1.056670,1.063157,-0.033487,0.009297,0.114710,0.119859,0.009297,0.000000,0.208796,MOVE,0,3,-0.025690,2.347496,0.331507,1,61.257
15.853375,0.043429,-0.065905,-0.058859,0.939695,0.943840,0.218495,0.129332,0.121735,0.281578,0.129332,0.000000,0.137373,MOVE,0,3,-0.020073,2.347496,0.331507,1,61.059
15.897134,0.043759,-0.054057,-0.082017,1.017434,1.022165,-0.153522,-0.057593,0.233524,0.285340,-0.057593,0.000000,0.143584,MOVE,0,3,-0.022593,2.347496,0.331507,1,61.004
15.947242,0.050108,-0.114779,-0.010614,0.882426,0.889923,0.205973,0.475387,0.144337,0.537820,0.475387,0.000000,0.030156,MOVE,1,4,0.001227,2.797495,0.332060,1,60.676
15.997303,0.050062,0.182319,-0.175854,0.867073,0.903317,0.085327,0.137578,0.649828,0.669690,0.137578,0.000000,-0.059874,MOVE,0,4,0.008115,2.797495,0.332060,1,60.857
16.040387,0.043083,-0.054057,0.137421,0.954561,0.965915,0.818365,0.802505,0.226804,1.168407,0.802505,0.000000,-0.084563,MOVE,0,4,0.042689,2.797495,0.332060,1,61.073
16.092301,0.051914,0.030306,-0.267761,1.055938,1.089780,-0.487360,0.105813,1.007490,1.124167,0.105813,0.000000,0.004695,MOVE,0,4,0.048183,2.797495,0.332060,1,62.807
16.135833,0.043532,0.070309,-0.041973,1.063006,1.066155,-0.213081,-0.109517,1.206327,1.229887,-0.109517,0.000000,0.063765,MOVE,0,4,0.043415,2.797495,0.332060,1,65.846
16.186721,0.050889,0.170197,-0.068026,1.406618,1.418510,-0.454067,-1.203576,1.657145,2.097833,-1.203576,0.000000,0.434047,MOVE,0,4,-0.017833,2.797495,0.332060,1,69.204
16.230249,0.043528,0.023760,0.480729,1.091762,1.193151,0.613725,0.462559,0.965951,1.234375,0.462559,0.000000,0.564478,MOVE,0,4,0.002301,2.797495,0.332060,1,71.789
16.281354,0.051104,-0.168589,0.236237,1.196308,1.231009,-0.002333,-0.734432,0.501083,0.889089,-0.734432,0.000000,0.715938,MOVE,0,4,-0.035232,2.797495,0.332060,1,73.411
16.324990,0.043636,-0.031595,-0.162104,1.333753,1.343939,0.197115,-0.221000,0.382880,0.484038,-0.221000,0.000000,0.953890,MOVE,0,4,-0.044875,2.797495,0.332060,1,74.630
16.369051,0.044062,-0.037519,-0.011579,1.060812,1.061539,0.090519,-0.129675,-0.179727,0.239397,-0.129675,0.000000,0.913886,MOVE,0,4,-0.050589,2.797495,0.332060,1,74.271
16.420046,0.050995,0.113465,0.104158,1.030838,1.042281,-0.510878,0.082295,-0.835796,0.983018,0.082295,0.000000,0.860550,MOVE,0,4,-0.046392,2.797495,0.332060,1,72.417
16.463654,0.043608,0.131406,-0.046074,1.006955,1.016538,-0.390537,0.122612,-0.738974,0.844769,0.122612,0.000000,0.789379,MOVE,0,4,-0.041045,2.797495,0.332060,1,70.458
16.514513,0.050858,0.166075,0.001457,0.903872,0.919003,-0.350831,-0.029799,-0.961634,1.024066,-0.029799,0.000000,0.637544,MOVE,0,4,-0.042561,2.797495,0.332060,1,68.474
16.558343,0.043831,0.189835,0.041032,0.942863,0.962659,-0.117481,0.017238,-0.983931,0.991069,0.017238,0.000000,0.540183,MOVE,0,4,-0.041805,2.797495,0.332060,1,66.318
16.605740,0.047397,0.237355,-0.063684,0.959435,0.990408,-0.233240,-0.334926,-0.802198,0.900055,-0.334926,0.000000,0.477531,MOVE,0,4,-0.057680,2.797495,0.332060,1,64.733
16.649189,0.043449,0.216989,-0.026294,0.902653,0.928740,-0.099460,-0.374021,-0.490657,0.624923,-0.374021,0.000000,0.365644,MOVE,0,4,-0.073930,2.797495,0.332060,1,63.887
16.692894,0.043705,0.221596,-0.043179,0.927510,0.954591,-0.417721,-0.318433,-0.541970,0.754733,-0.318433,0.000000,0.288212,MOVE,0,4,-0.087848,2.797495,0.332060,1,63.014
16.736435,0.043541,0.221111,-0.079605,0.840754,0.872980,-0.026156,0.533419,-0.337635,0.631837,0.533419,0.000000,0.145073,MOVE,0,4,-0.064622,2.797495,0.332060,1,62.435
16.780258,0.043823,0.159772,-0.114100,0.854645,0.876906,-0.522484,0.250894,-0.136966,0.595565,0.250894,0.000000,0.019781,MOVE,1,5,-0.053627,3.246848,0.307939,1,62.319
16.830893,0.050634,-0.007899,-0.018092,0.818578,0.818816,-0.232934,0.020598,-0.038922,0.237060,0.020598,0.000000,-0.145263,MOVE,0,5,-0.052584,3.246848,0.307939,1,62.537
16.874692,0.043799,0.025457,-0.083705,1.368602,1.371395,-0.356634,-0.429916,0.301024,0.634532,-0.429916,0.000000,0.203519,MOVE,0,5,-0.071414,3.246848,0.307939,1,63.822
16.925210,0.050518,0.045337,0.062398,1.328148,1.330386,0.459787,0.474165,0.438164,0.792606,0.474165,0.000000,0.480514,MOVE,0,5,-0.047460,3.246848,0.307939,1,64.994
16.968635,0.043424,0.026427,0.055357,0.877552,0.879694,0.046842,0.517231,0.064009,0.523277,0.517231,0.000000,0.324187,MOVE,0,5,-0.025000,3.246848,0.307939,1,65.396
17.019799,0.051165,0.049701,-0.127609,1.095174,1.103703,-0.324869,-0.116236,-0.016320,0.345423,-0.116236,0.000000,0.385100,MOVE,0,5,-0.030947,3.246848,0.307939,1,65.669
17.063707,0.043907,0.098433,-0.073815,1.049359,1.056547,0.246305,0.350770,-0.008077,0.428685,0.350770,0.000000,0.397483,MOVE,0,5,-0.015546,3.246848,0.307939,1,65.777
17.107390,0.043683,0.092129,-0.093354,1.057157,1.065262,0.044414,0.029149,-0.094514,0.108422,0.029149,0.000000,0.416470,MOVE,0,5,-0.014272,3.246848,0.307939,1,65.743
17.150846,0.043456,0.124132,-0.007478,1.014510,1.022103,0.122299,0.237454,-0.238984,0.358406,0.237454,0.000000,0.394716,MOVE,0,5,-0.003954,3.246848,0.307939,1,65.276
17.198870,0.048024,0.132618,-0.144012,1.010367,1.029159,-0.261019,-0.071949,0.031935,0.272630,-0.071949,0.000000,0.381488,MOVE,0,5,-0.007409,3.246848,0.307939,1,65.483
17.242457,0.043587,0.113465,-0.051622,1.014266,1.021898,0.206904,0.278993,-0.044118,0.350133,0.278993,0.000000,0.363047,MOVE,0,5,0.004752,3.246848,0.307939,1,65.556
17.293329,0.050872,0.084614,-0.162345,0.908989,0.927242,-0.214593,0.216379,0.052704,0.309270,0.216379,0.000000,0.261260,MOVE,0,5,0.015759,3.246848,0.307939,1,65.805
17.336883,0.043553,0.048004,-0.138946,0.902897,0.914786,0.033724,0.158958,0.126008,0.205628,0.158958,0.000000,0.158441,MOVE,0,5,0.022682,3.246848,0.307939,1,66.246
17.387197,0.050315,0.029821,-0.073574,1.018409,1.021499,0.079520,0.114050,0.046279,0.146536,0.114050,0.000000,0.161946,MOVE,0,5,0.028421,3.246848,0.307939,1,66.569
17.430428,0.043230,0.010183,-0.088771,0.972594,0.976690,0.170234,0.187965,0.086902,0.268071,0.187965,0.000000,0.124772,MOVE,0,5,0.036546,3.246848,0.307939,1,66.973
17.474083,0.043655,0.023517,-0.039320,0.986972,0.988035,0.047443,0.273169,0.027337,0.278603,0.273169,0.000000,0.101527,MOVE,0,5,0.048472,3.246848,0.307939,1,67.281
17.517580,0.043497,0.047035,-0.003136,0.960897,0.962052,-0.024945,-0.081133,-0.049021,0.098020,-0.081133,0.000000,0.057221,MOVE,0,5,0.044943,3.246848,0.307939,1,67.453
17.561391,0.043812,-0.009627,-0.057171,1.034493,1.036116,0.079208,0.288441,0.039860,0.301763,0.288441,0.000000,0.084004,MOVE,0,5,0.057580,3.246848,0.307939,1,67.698
17.612544,0.051153,-0.041715,0.043703,1.052527,1.054259,-0.244856,-0.099459,-0.060933,0.271219,-0.099459,0.000000,0.124437,MOVE,0,5,0.052492,3.246848,0.307939,1,67.925
17.656438,0.043894,-0.064671,-0.015680,1.075678,1.077734,-0.091224,-0.181009,0.113163,0.232146,-0.181009,0.000000,0.181954,MOVE,0,5,0.044547,3.246848,0.307939,1,68.508
17.700044,0.043605,-0.058253,0.043460,1.148056,1.150354,-0.002037,0.014773,0.147066,0.147821,0.014773,0.000000,0.299077,MOVE,0,5,0.045191,3.246848,0.307939,1,69.091
17.744113,0.044070,-0.032582,0.068225,1.071291,1.073956,-0.351758,0.158937,0.088729,0.396065,0.158937,0.000000,0.335730,MOVE,0,5,0.052195,3.246848,0.307939,1,69.595
17.794725,0.050612,-0.042703,0.016267,1.073972,1.074944,-0.178577,0.113123,0.168447,0.270298,0.113123,0.000000,0.369606,MOVE,0,5,0.057921,3.246848,0.307939,1,70.225
17.844620,0.049895,-0.075532,0.062155,0.992334,0.997143,-0.136416,0.044392,0.041685,0.149390,0.044392,0.000000,0.330074,MOVE,0,5,0.060136,3.246848,0.307939,1,70.583
17.886279,0.041659,-0.102437,0.039575,1.073728,1.079329,-0.220104,-0.047543,0.023053,0.226357,-0.047543,0.000000,0.368463,MOVE,0,5,0.058155,3.246848,0.307939,1,70.846
17.931227,0.044949,-0.104658,0.062640,0.944813,0.952653,-0.053333,0.073097,-0.108885,0.141575,0.073097,0.000000,0.289005,MOVE,0,5,0.061441,3.246848,0.307939,1,70.863
17.972633,0.041405,-0.087133,-0.039079,1.019140,1.023604,-0.328210,-0.059757,-0.018168,0.334100,-0.059757,0.000000,0.281348,MOVE,0,5,0.058967,3.246848,0.307939,1,71.046
18.017610,0.044977,-0.101203,-0.027741,0.976006,0.981631,-0.017584,0.131127,-0.027329,0.135094,0.131127,0.000000,0.236681,MOVE,0,5,0.064864,3.246848,0.307939,1,71.276
18.067437,0.049827,-0.089848,-0.038837,1.006712,1.011459,-0.246948,0.072482,0.027953,0.258879,0.072482,0.000000,0.223326,MOVE,0,5,0.068476,3.246848,0.307939,1,71.615
18.109113,0.041676,-0.078247,-0.024605,0.969426,0.972890,-0.247865,-0.140710,-0.025192,0.286131,-0.140710,0.000000,0.176595,MOVE,0,5,0.062612,3.246848,0.307939,1,71.881
18.154060,0.044947,-0.047146,-0.135569,1.128316,1.137409,-0.308035,-0.075042,0.176699,0.362959,-0.075042,0.000000,0.282603,MOVE,0,5,0.059239,3.246848,0.307939,1,72.521
18.195720,0.041660,-0.031842,-0.148354,1.095661,1.106117,0.454936,0.284147,0.344076,0.637255,0.284147,0.000000,0.349849,MOVE,0,5,0.071076,3.246848,0.307939,1,73.461
18.240651,0.044931,-0.019500,-0.137499,1.102728,1.111439,0.083224,0.329046,0.114085,0.358068,0.329046,0.000000,0.415159,MOVE,0,5,0.085861,3.246848,0.307939,1,73.954
18.289972,0.049321,-0.038260,-0.234713,0.943594,0.973100,0.352005,0.083478,0.004435,0.361795,0.083478,0.000000,0.349433,MOVE,0,5,0.089978,3.246848,0.307939,1,74.073
18.335450,0.045477,-0.042209,-0.250634,1.037174,1.067862,0.037101,-0.019757,-0.133610,0.140066,-0.019757,0.000000,0.375565,MOVE,0,5,0.089080,3.246848,0.307939,1,73.865
18.384114,0.048664,0.004606,-0.227235,0.955292,0.981957,0.240519,-0.027698,-0.219131,0.326550,-0.027698,0.000000,0.321770,MOVE,0,5,0.087732,3.246848,0.307939,1,73.563
18.429100,0.044986,-0.027646,-0.211796,1.023527,1.045576,0.126593,-0.065572,-0.293046,0.325885,-0.065572,0.000000,0.330611,MOVE,0,5,0.084782,3.246848,0.307939,1,73.109
18.470598,0.041499,-0.003703,-0.163551,0.889006,0.903933,0.229524,0.086839,-0.391700,0.462224,0.086839,0.000000,0.211089,MOVE,0,5,0.088386,3.246848,0.307939,1,72.348
18.515577,0.044979,-0.012835,-0.169341,0.901678,0.917532,-0.013906,-0.202406,-0.472029,0.513783,-0.202406,0.000000,0.115759,MOVE,0,5,0.079282,3.246848,0.307939,1,71.395
18.564198,0.048621,-0.007899,-0.220239,1.010367,1.034123,0.012361,-0.095810,-0.349245,0.362360,-0.095810,0.000000,0.134893,MOVE,0,5,0.074623,3.246848,0.307939,1,70.814
18.606855,0.042657,0.010183,-0.219998,0.980636,1.005062,0.035268,0.101500,-0.270138,0.290724,0.101500,0.000000,0.125960,MOVE,0,5,0.078953,3.246848,0.307939,1,70.448
18.644770,0.037915,0.024972,-0.157762,0.958460,0.971678,-0.154405,0.081036,-0.323283,0.367314,0.081036,0.000000,0.087874,MOVE,0,5,0.082025,3.246848,0.307939,1,69.808
18.693177,0.048408,0.009940,-0.158727,0.997207,1.009810,-0.103703,0.233752,-0.168429,0.306207,0.233752,0.000000,0.087915,MOVE,0,5,0.093341,3.246848,0.307939,1,69.596
18.738062,0.044884,-0.052823,-0.117477,1.011829,1.019995,-0.037730,-0.147733,-0.032511,0.155903,-0.147733,0.000000,0.097119,MOVE,0,5,0.086710,3.246848,0.307939,1,69.796
18.779535,0.041473,-0.072817,-0.068267,1.168770,1.173024,-0.157154,0.068208,-0.124141,0.211567,0.068208,0.000000,0.243129,MOVE,0,5,0.089539,3.246848,0.307939,1,69.737
18.824384,0.044849,-0.026411,-0.175371,0.824426,0.843286,-0.216103,-0.021895,-0.112840,0.244771,-0.021895,0.000000,0.077774,MOVE,0,5,0.088557,3.246848,0.307939,1,69.714
18.865898,0.041514,-0.066152,-0.123025,0.917275,0.927849,-0.221906,-0.626957,-0.242955,0.708057,-0.626957,0.000000,0.005061,MOVE,1,6,0.062529,3.695969,0.336059,1,69.571
18.910833,0.044935,-0.114285,-0.156073,1.020115,1.038294,-0.054223,-0.399715,-0.152241,0.431149,-0.399715,0.000000,0.039019,MOVE,0,6,0.044568,3.695969,0.336059,1,69.463
18.959159,0.048326,-0.099475,-0.072368,1.054964,1.062111,0.180960,-0.173084,-0.243565,0.349326,-0.173084,0.000000,0.091018,MOVE,0,6,0.036203,3.695969,0.336059,1,69.049
19.004119,0.044960,-0.052082,-0.112170,1.080796,1.087848,0.013583,0.355925,-0.177287,0.397867,0.355925,0.000000,0.160979,MOVE,0,6,0.052206,3.695969,0.336059,1,68.592
19.045478,0.041359,-0.019253,-0.243879,1.062762,1.090555,0.384072,0.793610,0.078971,0.885192,0.793610,0.000000,0.226381,MOVE,0,6,0.085029,3.695969,0.336059,1,68.535
19.090559,0.045081,-0.003209,-0.206248,0.979661,1.001142,-0.209689,-0.178582,0.147999,0.312673,-0.178582,0.000000,0.204771,MOVE,0,6,0.076978,3.695969,0.336059,1,69.035
19.131922,0.041363,-0.072570,-0.184779,0.732553,0.758975,0.218223,-1.125423,0.269867,1.177721,-1.125423,0.000000,-0.032629,MOVE,0,6,0.030427,3.695969,0.336059,1,69.956
19.176750,0.044828,-0.050108,-0.054517,1.062275,1.064852,0.229524,-0.715532,0.239629,0.788727,-0.715532,0.000000,0.029001,MOVE,0,6,-0.001649,3.695969,0.336059,1,70.671
19.225533,0.048783,0.030306,-0.119166,1.042779,1.050003,0.012666,-0.132461,0.210918,0.249385,-0.132461,0.000000,0.071104,MOVE,0,6,-0.008111,3.695969,0.336059,1,70.870
19.270593,0.045059,0.000970,-0.099868,1.070073,1.074723,-0.226783,-0.258298,0.028568,0.344912,-0.258298,0.000000,0.131244,MOVE,0,6,-0.019750,3.695969,0.336059,1,70.737
19.312034,0.041441,0.029821,-0.068026,0.955535,0.958418,-0.208151,-0.302891,0.079270,0.375970,-0.302891,0.000000,0.080696,MOVE,0,6,-0.032302,3.695969,0.336059,1,70.598
19.357042,0.045008,0.047035,-0.107828,1.059350,1.065862,-0.132709,-0.155978,0.211217,0.294200,-0.155978,0.000000,0.131902,MOVE,0,6,-0.039322,3.695969,0.336059,1,70.530
19.398429,0.041387,0.046307,-0.177301,0.967720,0.984917,-0.196850,-0.211262,0.217936,0.361770,-0.211262,0.000000,0.105138,MOVE,0,6,-0.048066,3.695969,0.336059,1,70.604
19.443295,0.044866,0.048247,-0.155108,1.004518,1.017567,-0.167820,0.005595,0.114385,0.203172,0.005595,0.000000,0.110435,MOVE,0,6,-0.047815,3.695969,0.336059,1,70.329
19.491719,0.048424,0.069097,-0.080811,0.926048,0.932132,0.081409,-0.078993,0.096967,0.149231,-0.078993,0.000000,0.038310,MOVE,1,7,-0.051640,4.145369,0.312831,1,69.902
19.529571,0.037853,0.048247,-0.194669,0.957729,0.978503,0.345913,0.228883,0.001673,0.414785,0.228883,0.000000,0.015131,MOVE,0,7,-0.042976,4.145369,0.312831,1,69.244
19.578240,0.048669,0.036124,-0.137016,0.931166,0.941885,0.098208,0.249042,-0.049029,0.272159,0.249042,0.000000,-0.038685,MOVE,0,7,-0.030855,4.145369,0.312831,1,68.347
19.623094,0.044854,0.019153,-0.235436,0.936771,0.966093,0.089045,0.472924,-0.226791,0.531997,0.472924,0.000000,-0.065332,MOVE,0,7,-0.009643,4.145369,0.312831,1,67.157
19.664402,0.041308,0.089705,-0.118201,1.063493,1.073795,0.191364,0.215750,-0.173340,0.336475,0.215750,0.000000,0.007617,MOVE,0,7,-0.000731,4.145369,0.312831,1,66.198
19.709281,0.044878,0.015032,-0.157279,1.038636,1.050584,0.125696,0.000114,-0.283907,0.310488,0.000114,0.000000,0.052381,MOVE,0,7,-0.000726,4.145369,0.312831,1,65.173
19.750629,0.041348,0.093099,-0.075262,1.058375,1.065125,0.336140,-0.035621,-0.297041,0.449991,-0.035621,0.000000,0.105755,MOVE,0,7,-0.002198,4.145369,0.312831,1,64.113
19.795612,0.044983,0.087038,-0.074056,0.968939,0.975655,0.056664,0.004085,0.155292,0.165358,0.004085,0.000000,0.073269,MOVE,0,7,-0.002015,4.145369,0.312831,1,64.005
19.844041,0.048430,0.125102,-0.111929,1.075434,1.088456,-0.538319,0.065782,0.290599,0.615274,0.065782,0.000000,0.145552,MOVE,0,7,0.001171,4.145369,0.312831,1,64.215
19.889100,0.045058,0.123405,-0.132674,0.975031,0.991724,-0.523963,-0.054253,0.096954,0.535613,-0.054253,0.000000,0.123549,MOVE,0,7,-0.001273,4.145369,0.312831,1,64.083
19.930539,0.041439,0.131891,-0.118683,0.991846,1.007591,-0.346202,-0.030429,0.029759,0.348808,-0.030429,0.000000,0.118026,MOVE,0,7,-0.002534,4.145369,0.312831,1,63.831
19.975440,0.044901,0.110070,-0.077434,0.955048,0.964483,-0.101848,0.418254,0.172696,0.463825,0.418254,0.000000,0.074258,MOVE,0,7,0.016246,4.145369,0.312831,1,63.766
20.016819,0.041378,0.069582,-0.150043,1.056670,1.069535,-0.519985,0.083194,0.262188,0.588259,0.083194,0.000000,0.129414,MOVE,0,7,0.019688,4.145369,0.312831,1,64.064
20.061855,0.045036,0.115647,-0.157038,1.045460,1.063495,-0.601535,0.195593,0.484543,0.796796,0.195593,0.000000,0.173618,MOVE,0,7,0.028497,4.145369,0.312831,1,64.945
20.110242,0.048387,0.098191,-0.180196,1.015972,1.036490,0.033459,-0.381063,0.399938,0.553425,-0.381063,0.000000,0.189097,MOVE,0,7,0.010059,4.145369,0.312831,1,65.937
20.155104,0.044863,0.133588,-0.210590,0.886082,0.920508,0.210610,-0.464141,0.419486,0.660115,-0.464141,0.000000,0.098644,MOVE,0,7,-0.010764,4.145369,0.312831,1,66.872
20.196629,0.041525,0.117344,-0.123508,1.024258,1.038329,0.151967,-0.438179,0.176973,0.496401,-0.438179,0.000000,0.123276,MOVE,0,7,-0.028959,4.145369,0.312831,1,67.400
20.241470,0.044841,0.160742,-0.225064,0.925804,0.966232,0.136084,-0.662061,0.135128,0.689278,-0.662061,0.000000,0.080558,MOVE,0,7,-0.058647,4.145369,0.312831,1,67.527
20.282942,0.041472,0.128981,-0.200218,1.024745,1.052058,0.279332,-0.362127,-0.382885,0.596459,-0.362127,0.000000,0.119354,MOVE,0,7,-0.073665,4.145369,0.312831,1,66.387
20.327736,0.044794,0.120738,-0.116753,0.978687,0.992994,-0.084743,-0.396640,-0.202069,0.453141,-0.396640,0.000000,0.101113,MOVE,0,7,-0.091432,4.145369,0.312831,1,65.444
20.376208,0.048472,0.140861,-0.289954,0.982586,1.034113,-0.510211,0.753008,-0.564618,1.070574,0.753008,0.000000,0.121703,MOVE,0,7,-0.054932,4.145369,0.312831,1,63.546
20.414132,0.037924,0.001940,-0.165722,1.304753,1.315237,-0.079856,0.689478,-1.148605,1.342032,0.689478,0.000000,0.393246,MOVE,0,7,-0.028785,4.145369,0.312831,1,60.114
20.462471,0.048339,0.000485,-0.084670,1.000619,1.004195,0.342251,0.174824,-0.720999,0.817031,0.174824,0.000000,0.357697,MOVE,0,7,-0.020334,4.145369,0.312831,1,58.134
20.507447,0.044976,-0.068867,-0.113617,1.101997,1.109977,0.554527,0.018137,-0.367308,0.665391,0.018137,0.000000,0.420907,MOVE,0,7,-0.019518,4.145369,0.312831,1,57.224
20.549091,0.041643,-0.072570,-0.124473,0.978199,0.988753,-0.085965,0.047153,-0.015145,0.099211,0.047153,0.000000,0.368694,MOVE,0,7,-0.017554,4.145369,0.312831,1,57.130
20.590979,0.041888,-0.064177,-0.176336,0.964552,0.982636,-0.152231,0.069138,-0.122036,0.206996,0.069138,0.000000,0.316198,MOVE,0,7,-0.014658,4.145369,0.312831,1,56.873
20.628837,0.037858,-0.093551,-0.192016,0.925804,0.950124,0.182218,0.043176,-0.012692,0.187693,0.043176,0.000000,0.239689,MOVE,0,7,-0.013024,4.145369,0.312831,1,56.844
20.677156,0.048318,-0.136006,-0.067784,1.072997,1.083705,0.308973,0.114342,-0.040792,0.331967,0.114342,0.000000,0.291055,MOVE,0,7,-0.007499,4.145369,0.312831,1,56.953
20.722056,0.044900,-0.077260,-0.180196,0.937502,0.957783,0.019423,-0.288219,0.391395,0.486454,-0.288219,0.000000,0.223954,MOVE,0,7,-0.020440,4.145369,0.312831,1,57.744
20.763402,0.041347,-0.008392,-0.271138,0.967964,1.005256,-0.126879,0.054782,-0.008416,0.138457,0.054782,0.000000,0.206289,MOVE,0,7,-0.018175,4.145369,0.312831,1,57.569
20.808430,0.045028,-0.003949,-0.150043,1.042048,1.052802,-0.047161,-0.333728,-0.161743,0.373844,-0.333728,0.000000,0.233182,MOVE,0,7,-0.033202,4.145369,0.312831,1,57.291
20.849833,0.041403,0.033215,-0.152696,0.988922,1.001192,0.070125,-0.321205,-0.016052,0.329163,-0.321205,0.000000,0.210937,MOVE,0,7,-0.046501,4.145369,0.312831,1,57.281
20.894853,0.045020,0.027639,-0.051864,0.951392,0.953206,-0.043191,-0.152607,0.302515,0.341569,-0.152607,0.000000,0.147728,MOVE,0,7,-0.053371,4.145369,0.312831,1,57.907
20.943203,0.048350,-0.031595,-0.086118,1.032300,1.036367,-0.444529,0.004386,0.612834,0.757094,0.004386,0.000000,0.165686,MOVE,0,7,-0.053159,4.145369,0.312831,1,58.931
20.981066,0.037863,-0.032089,-0.084429,0.993308,0.997406,-0.107637,-0.367937,0.682167,0.782506,-0.367937,0.000000,0.146783,MOVE,0,7,-0.067090,4.145369,0.312831,1,60.562
21.029389,0.048323,0.035155,-0.168134,0.893636,0.909995,0.039276,-0.314180,0.993098,1.042351,-0.314180,0.000000,0.051101,MOVE,0,7,-0.082272,4.145369,0.312831,1,62.639
21.074960,0.045572,0.051883,-0.214209,1.046191,1.069155,0.045690,0.231017,0.471113,0.526692,0.231017,0.000000,0.108230,MOVE,0,7,-0.071744,4.145369,0.312831,1,63.389
21.116363,0.041402,0.046307,-0.093354,1.067148,1.072224,0.468103,-0.173071,0.325422,0.595797,-0.173071,0.000000,0.162409,MOVE,0,7,-0.078910,4.145369,0.312831,1,63.890
21.161301,0.044938,0.085583,-0.118201,0.914594,0.926163,-0.221869,-0.004472,0.703853,0.738007,-0.004472,0.000000,0.079715,MOVE,0,7,-0.079111,4.145369,0.312831,1,65.302
21.209978,0.048677,0.157347,-0.278616,1.002081,1.051928,-0.610379,0.315011,0.114673,0.696380,0.315011,0.000000,0.118479,MOVE,0,7,-0.063777,4.145369,0.312831,1,65.009
21.254767,0.044790,0.144013,-0.192498,1.038880,1.066333,-0.437504,0.185813,-0.167241,0.503891,0.185813,0.000000,0.166330,MOVE,0,7,-0.055455,4.145369,0.312831,1,64.232
21.296293,0.041526,0.117344,-0.164516,1.008417,1.028465,-0.013564,0.326923,-0.027353,0.328345,0.326923,0.000000,0.175316,MOVE,0,7,-0.041879,4.145369,0.312831,1,63.779
21.341268,0.044975,0.079280,-0.108552,1.047165,1.055758,0.326688,0.077384,0.165070,0.374114,0.077384,0.000000,0.207966,MOVE,0,7,-0.038398,4.145369,0.312831,1,63.843
21.382768,0.041500,0.108858,-0.113859,0.983561,0.996095,0.069208,-0.092436,0.285105,0.307602,-0.092436,0.000000,0.183655,MOVE,0,7,-0.042235,4.145369,0.312831,1,64.314
21.424273,0.041505,0.124617,-0.110964,0.988678,1.002660,-0.235613,0.154353,0.417968,0.504020,0.154353,0.000000,0.167684,MOVE,0,7,-0.035828,4.145369,0.312831,1,64.957
21.462126,0.037853,0.140134,-0.116512,0.995745,1.012285,-0.186439,0.020574,0.505016,0.538725,0.020574,0.000000,0.161972,MOVE,0,7,-0.035049,4.145369,0.312831,1,66.029
21.510523,0.048397,0.185714,-0.240020,0.962846,1.009540,-0.043187,-0.082656,0.009909,0.093783,-0.082656,0.000000,0.154361,MOVE,0,7,-0.039050,4.145369,0.312831,1,65.966
21.555560,0.045038,0.148619,-0.123508,0.913132,0.933355,0.086622,0.102742,-0.051788,0.144018,0.102742,0.000000,0.078945,MOVE,0,7,-0.034422,4.145369,0.312831,1,65.608
21.597094,0.041534,0.112980,-0.148836,1.024989,1.041882,-0.435974,0.281420,-0.077139,0.524615,0.281420,0.000000,0.108744,MOVE,0,7,-0.022734,4.145369,0.312831,1,65.193
21.641928,0.044834,0.140376,-0.179955,0.955048,0.981940,-0.451856,0.199870,-0.167242,0.521624,0.199870,0.000000,0.081616,MOVE,0,7,-0.013773,4.145369,0.312831,1,64.688
21.683401,0.041473,0.149589,-0.201182,0.968208,1.000139,-0.151616,0.275311,-0.507799,0.597196,0.275311,0.000000,0.073579,MOVE,0,7,-0.002355,4.145369,0.312831,1,63.583
21.724752,0.041351,0.126072,-0.219033,1.058863,1.088605,0.201464,-0.056694,-0.723434,0.753100,-0.056694,0.000000,0.145965,MOVE,0,7,-0.004699,4.145369,0.312831,1,62.300
21.762600,0.037848,0.117586,-0.193946,1.027182,1.051924,0.302257,-0.517286,-0.627834,0.867825,-0.517286,0.000000,0.178101,MOVE,0,7,-0.024277,4.145369,0.312831,1,61.054
21.811132,0.048532,0.145468,-0.256664,0.996233,1.038998,0.001711,-0.055167,-0.582019,0.584630,-0.055167,0.000000,0.195389,MOVE,0,7,-0.026955,4.145369,0.312831,1,59.889
21.856089,0.044957,0.160984,-0.284164,1.132459,1.178613,-0.062735,-0.147713,-0.713050,0.730886,-0.147713,0.000000,0.336602,MOVE,0,7,-0.033595,4.145369,0.312831,1,58.651
21.897582,0.041493,0.068855,-0.267761,1.162434,1.194860,-0.069149,0.010807,-0.479699,0.484778,0.010807,0.000000,0.478315,MOVE,0,7,-0.033147,4.145369,0.312831,1,57.731
21.942480,0.044898,0.020608,-0.255941,1.108821,1.138162,0.131826,-0.717955,-0.310490,0.793248,-0.717955,0.000000,0.554830,MOVE,0,7,-0.065381,4.145369,0.312831,1,57.523
21.983894,0.041414,0.045095,-0.372694,1.003787,1.071692,0.912206,-0.190473,-0.740539,1.190293,-0.190473,0.000000,0.563869,MOVE,0,7,-0.073270,4.145369,0.312831,1,56.177
22.028731,0.044837,-0.059981,-0.223375,1.166089,1.188806,1.281474,-0.163290,-0.359970,1.341051,-0.163290,0.000000,0.677408,MOVE,0,7,-0.080591,4.145369,0.312831,1,55.321
22.077557,0.048826,-0.068127,-0.287300,0.802981,0.855547,-0.252409,0.000117,-0.290331,0.384711,0.000117,0.000000,0.479659,MOVE,0,7,-0.080585,4.145369,0.312831,1,54.778
22.122676,0.045119,-0.050601,-0.139670,0.814922,0.828352,0.166034,-0.183448,-0.150137,0.289416,-0.183448,0.000000,0.277210,MOVE,0,7,-0.088862,4.145369,0.312831,1,54.587
22.164089,0.041414,-0.021475,-0.231336,0.926535,0.955220,-0.607929,0.432607,0.035563,0.746988,0.432607,0.000000,0.209187,MOVE,0,7,-0.070946,4.145369,0.312831,1,54.560
22.209191,0.045102,-0.036532,-0.105657,0.891199,0.898184,-0.374578,0.129923,0.238065,0.462454,0.129923,0.000000,0.096634,MOVE,0,7,-0.065087,4.145369,0.312831,1,55.123
22.257571,0.048380,0.006061,-0.269449,0.888519,0.928496,-0.251489,0.225524,0.259750,0.426120,0.225524,0.000000,0.022617,MOVE,1,8,-0.054176,4.594709,0.288464,1,55.665
22.302668,0.045097,-0.016291,-0.256906,0.965040,0.998783,-0.020582,0.545312,0.099704,0.554734,0.545312,0.000000,0.019260,MOVE,0,8,-0.029584,4.594709,0.288464,1,55.721
22.344424,0.041756,-0.073804,-0.193463,1.041317,1.061704,-0.011724,0.156496,0.010517,0.157287,0.156496,0.000000,0.072867,MOVE,0,8,-0.023049,4.594709,0.288464,1,55.866
22.389498,0.045074,-0.039000,-0.123749,0.918981,0.928095,0.111059,0.018441,0.392308,0.408142,0.018441,0.000000,0.000866,MOVE,0,8,-0.022218,4.594709,0.288464,1,57.056
22.437915,0.048417,-0.046158,-0.127609,0.929460,0.939314,-0.059372,0.152220,0.327556,0.366045,0.152220,0.000000,-0.053838,MOVE,0,8,-0.014848,4.594709,0.288464,1,57.892
22.475770,0.037856,-0.051342,-0.193222,0.975518,0.995795,-0.068535,0.208725,0.391697,0.449099,0.208725,0.000000,-0.052239,MOVE,0,8,-0.006947,4.594709,0.288464,1,58.914
22.517357,0.041587,-0.002222,-0.208419,0.990871,1.012556,0.141908,0.132672,0.317782,0.372459,0.132672,0.000000,-0.035715,MOVE,0,8,-0.001429,4.594709,0.288464,1,59.815
22.558940,0.041583,-0.022215,-0.198288,1.001107,1.020797,0.418936,0.392901,0.177589,0.601179,0.392901,0.000000,-0.013426,MOVE,0,8,0.014909,4.594709,0.288464,1,60.320
22.600772,0.041832,-0.053563,-0.212761,1.024014,1.047254,0.528280,0.308601,0.001965,0.611816,0.308601,0.000000,0.030445,MOVE,0,8,0.027818,4.594709,0.288464,1,60.374
22.638656,0.037884,-0.105152,-0.134122,0.954317,0.969415,0.568903,0.015997,-0.140672,0.586255,0.015997,0.000000,-0.000126,MOVE,0,8,0.028424,4.594709,0.288464,1,60.214
22.687148,0.048492,-0.087380,-0.116753,1.005006,1.015531,0.327611,0.021800,-0.113488,0.347396,0.021800,0.000000,0.013865,MOVE,0,8,0.029481,4.594709,0.288464,1,60.094
22.732073,0.044925,-0.056279,-0.107346,0.983804,0.991242,0.162678,-0.079909,-0.173964,0.251223,-0.079909,0.000000,0.004596,MOVE,0,8,0.025891,4.594709,0.288464,1,59.940
22.773702,0.041629,-0.046405,-0.112652,1.066661,1.073597,0.393890,-0.235985,-0.218252,0.508402,-0.235985,0.000000,0.070374,MOVE,0,8,0.016067,4.594709,0.288464,1,59.753
22.815200,0.041498,-0.022215,-0.052346,1.024258,1.025835,0.372815,-0.016379,-0.042323,0.375567,-0.016379,0.000000,0.086588,MOVE,0,8,0.015388,4.594709,0.288464,1,59.800
22.862511,0.047311,0.000242,0.025250,0.982342,0.982667,0.406107,-0.164208,0.079545,0.445213,-0.164208,0.000000,0.062329,MOVE,0,8,0.007619,4.594709,0.288464,1,60.144
22.914014,0.051503,-0.078741,0.039332,1.114913,1.118382,-0.249962,-0.335861,0.020291,0.419160,-0.335861,0.000000,0.162640,MOVE,0,8,-0.009679,4.594709,0.288464,1,60.292
22.957455,0.043441,-0.013823,-0.001206,0.988191,0.988288,-0.310438,-0.245148,0.082294,0.404031,-0.245148,0.000000,0.135835,MOVE,0,8,-0.020328,4.594709,0.288464,1,60.404
23.008140,0.050686,-0.000000,-0.035701,1.075678,1.076270,-0.363583,-0.321201,-0.219168,0.532350,-0.321201,0.000000,0.190895,MOVE,0,8,-0.036609,4.594709,0.288464,1,59.954
23.051680,0.043540,0.023760,0.015782,1.005006,1.005411,-0.464681,0.051733,-0.042323,0.469463,0.051733,0.000000,0.176675,MOVE,0,8,-0.034356,4.594709,0.288464,1,59.737
23.102505,0.050825,0.023275,0.015296,1.111501,1.111850,-0.173298,-0.114728,-0.011779,0.208167,-0.114728,0.000000,0.259673,MOVE,0,8,-0.040187,4.594709,0.288464,1,59.839
23.146051,0.043545,0.008243,0.027193,1.012317,1.012715,-0.206285,-0.199027,0.302511,0.416747,-0.199027,0.000000,0.245149,MOVE,0,8,-0.048854,4.594709,0.288464,1,60.530
23.189718,0.043667,0.025942,-0.020263,0.938720,0.939297,-0.319906,-0.185894,0.234705,0.438158,-0.185894,0.000000,0.166002,MOVE,0,8,-0.056971,4.594709,0.288464,1,61.097
23.236841,0.047123,0.018183,-0.013026,0.937502,0.937769,-0.417034,-0.090904,0.249671,0.494486,-0.090904,0.000000,0.093393,MOVE,0,8,-0.061255,4.594709,0.288464,1,61.753
23.280547,0.043706,0.007516,0.007041,0.924342,0.924400,-0.317768,-0.261336,0.274411,0.494544,-0.261336,0.000000,0.016014,MOVE,1,9,-0.072677,5.043521,0.255788,1,62.482
23.324043,0.043495,0.001697,-0.079605,0.811998,0.815892,-0.368164,-0.169401,0.338857,0.528267,-0.169401,0.000000,-0.151285,MOVE,0,9,-0.080045,5.043521,0.255788,1,63.292
23.367709,0.043666,0.022305,-0.140876,0.919712,0.930706,-0.606096,-0.050282,0.151627,0.626795,-0.050282,0.000000,-0.198521,MOVE,0,9,-0.082241,5.043521,0.255788,1,63.707
23.411193,0.043484,0.065218,-0.202630,0.900947,0.925753,-0.340370,0.032185,0.045337,0.344881,0.032185,0.000000,-0.245491,MOVE,0,9,-0.080841,5.043521,0.255788,1,63.895
23.461810,0.050617,0.128496,-0.086118,0.997939,1.009856,0.420158,0.288746,0.071301,0.514773,0.288746,0.000000,-0.212072,MOVE,0,9,-0.066226,5.043521,0.255788,1,64.079
23.505543,0.043732,0.014547,-0.178990,1.101022,1.115571,-0.100299,0.661679,0.347106,0.753898,0.661679,0.000000,-0.086851,MOVE,0,9,-0.037289,5.043521,0.255788,1,64.779
23.556635,0.051093,0.095281,-0.276686,1.211661,1.246497,0.120224,0.457956,0.223406,0.523534,0.457956,0.000000,0.143682,MOVE,0,9,-0.013891,5.043521,0.255788,1,65.235
23.600905,0.044270,0.092857,-0.303703,1.198501,1.239864,0.588452,0.066086,0.177897,0.618296,0.066086,0.000000,0.345192,MOVE,0,9,-0.010965,5.043521,0.255788,1,65.793
23.644773,0.043869,0.080250,-0.316971,1.103947,1.151351,0.582038,0.031266,0.143383,0.600253,0.031266,0.000000,0.446888,MOVE,0,9,-0.009594,5.043521,0.255788,1,66.224
23.695668,0.050894,0.017941,-0.255699,1.114426,1.143525,0.125416,-0.166043,0.057862,0.215980,-0.166043,0.000000,0.531372,MOVE,0,9,-0.018044,5.043521,0.255788,1,66.599
23.739390,0.043722,0.032003,-0.244844,0.911183,0.944048,0.206356,-0.344416,0.297626,0.499786,-0.344416,0.000000,0.427878,MOVE,0,9,-0.033103,5.043521,0.255788,1,67.490
23.789822,0.050432,0.030306,-0.329515,0.883645,0.943571,0.152905,-0.307458,-0.006279,0.343438,-0.307458,0.000000,0.334304,MOVE,0,9,-0.048609,5.043521,0.255788,1,67.584
23.833018,0.043195,0.076613,-0.241226,0.820040,0.858210,-0.003782,-0.164502,-0.004752,0.164614,-0.164502,0.000000,0.173263,MOVE,0,9,-0.055714,5.043521,0.255788,1,67.600
23.876761,0.043744,0.078795,-0.236160,0.884376,0.918750,-0.096312,-0.051774,-0.004754,0.109449,-0.051774,0.000000,0.082811,MOVE,0,9,-0.057979,5.043521,0.255788,1,67.501
23.924128,0.047366,0.074673,-0.299603,0.953586,1.002329,-0.059347,0.117130,-0.315980,0.342177,0.117130,0.000000,0.076626,MOVE,0,9,-0.052431,5.043521,0.255788,1,66.629
23.967557,0.043429,0.060854,-0.188880,1.057401,1.075860,0.362456,0.020613,-0.683721,0.774128,0.020613,0.000000,0.137238,MOVE,0,9,-0.051536,5.043521,0.255788,1,65.099
24.011336,0.043779,0.041458,-0.003860,1.112232,1.113012,0.534109,0.008396,-0.134248,0.550786,0.008396,0.000000,0.225224,MOVE,0,9,-0.051168,5.043521,0.255788,1,64.670
24.054970,0.043634,0.078310,-0.148595,0.870485,0.886542,-0.104551,-0.125078,0.187678,0.248593,-0.125078,0.000000,0.100590,MOVE,0,9,-0.056626,5.043521,0.255788,1,65.052
24.098690,0.043720,0.126072,-0.149319,0.980149,0.999441,-0.349202,0.062152,0.089329,0.365766,0.062152,0.000000,0.090028,MOVE,0,9,-0.053909,5.043521,0.255788,1,65.158
24.142295,0.043605,0.097706,-0.113859,0.985266,0.996624,-0.147617,-0.136379,0.117429,0.232765,-0.136379,0.000000,0.077987,MOVE,0,9,-0.059856,5.043521,0.255788,1,65.298
24.186004,0.043709,0.107404,-0.246050,0.961140,0.997931,0.075967,-0.012054,-0.188317,0.203420,-0.012054,0.000000,0.068326,MOVE,0,9,-0.060382,5.043521,0.255788,1,64.745
24.233964,0.047961,0.083401,-0.065372,1.043997,1.049362,0.121477,0.022765,-0.477562,0.493295,0.022765,0.000000,0.105919,MOVE,0,9,-0.059291,5.043521,0.255788,1,63.558
24.277852,0.043888,0.094554,0.038361,1.046922,1.051883,0.199667,-0.022745,-0.175794,0.266998,-0.022745,0.000000,0.142021,MOVE,0,9,-0.060289,5.043521,0.255788,1,62.903
24.321451,0.043598,0.102555,-0.029671,1.080552,1.085813,-0.033693,0.099414,-0.103692,0.147548,0.099414,0.000000,0.205051,MOVE,0,9,-0.055955,5.043521,0.255788,1,62.566
24.372174,0.050723,0.112980,-0.043179,1.060325,1.067201,-0.173268,0.085361,0.130265,0.232975,0.085361,0.000000,0.245027,MOVE,0,9,-0.051625,5.043521,0.255788,1,62.647
24.415809,0.043635,0.094311,-0.056929,0.987216,0.993343,-0.141492,0.291523,0.063981,0.330302,0.291523,0.000000,0.214533,MOVE,0,9,-0.038904,5.043521,0.255788,1,62.576
24.459155,0.043346,0.084371,-0.067543,1.070560,1.076002,-0.202579,0.148275,-0.151349,0.293139,0.148275,0.000000,0.261481,MOVE,0,9,-0.032477,5.043521,0.255788,1,62.035
24.509678,0.050523,0.074431,0.002185,1.036686,1.039357,-0.117952,0.034952,-0.096353,0.156264,0.034952,0.000000,0.270755,MOVE,0,9,-0.030711,5.043521,0.255788,1,61.789
24.553052,0.043374,0.047277,0.022337,0.997207,0.998577,-0.077318,-0.179145,0.073164,0.208384,-0.179145,0.000000,0.242399,MOVE,0,9,-0.038481,5.043521,0.255788,1,61.945
24.604294,0.051242,0.067642,-0.101074,0.916788,0.924819,-0.177470,0.016943,-0.031602,0.181056,0.016943,0.000000,0.150497,MOVE,0,9,-0.037613,5.043521,0.255788,1,61.904
24.647495,0.043200,0.090675,-0.087806,0.960409,0.968668,0.035731,-0.128442,-0.161709,0.209580,-0.128442,0.000000,0.107248,MOVE,0,9,-0.043162,5.043521,0.255788,1,61.561
24.690498,0.043004,0.048004,-0.109517,1.045216,1.052033,-0.070563,0.208758,-0.195598,0.294648,0.208758,0.000000,0.143353,MOVE,0,9,-0.034185,5.043521,0.255788,1,61.007
24.733541,0.043043,0.034427,-0.140393,1.014997,1.025239,-0.170134,0.036494,-0.315938,0.360686,0.036494,0.000000,0.151733,MOVE,0,9,-0.032614,5.043521,0.255788,1,60.363
24.777307,0.043766,0.051641,-0.157762,1.009880,1.023432,0.173783,0.133011,-0.140009,0.259798,0.133011,0.000000,0.157649,MOVE,0,9,-0.026792,5.043521,0.255788,1,60.049
24.820704,0.043396,0.043155,-0.226270,1.028401,1.053883,0.131011,0.103986,-0.031578,0.170218,0.103986,0.000000,0.190378,MOVE,0,9,-0.022280,5.043521,0.255788,1,59.958
24.864418,0.043714,0.042428,-0.197323,0.982342,1.002862,0.254394,0.082295,0.035318,0.269697,0.082295,0.000000,0.173916,MOVE,0,9,-0.018682,5.043521,0.255788,1,59.983
24.911685,0.047268,0.028124,-0.201665,1.008417,1.028769,0.335945,0.265860,0.082966,0.436376,0.265860,0.000000,0.182417,MOVE,0,9,-0.006116,5.043521,0.255788,1,60.215
24.954816,0.043131,-0.006171,-0.136293,0.992577,1.001910,0.408943,0.156821,0.218883,0.489630,0.156821,0.000000,0.165894,MOVE,0,9,0.000648,5.043521,0.255788,1,60.666
24.998121,0.043304,-0.010120,-0.236884,1.007199,1.034730,0.148714,-0.107684,0.363658,0.407381,-0.107684,0.000000,0.180561,MOVE,0,9,-0.004015,5.043521,0.255788,1,61.536
25.041230,0.043110,0.028609,-0.222169,0.839292,0.868671,0.175287,0.023347,0.388704,0.427038,0.023347,0.000000,0.044309,MOVE,0,9,-0.003009,5.043521,0.255788,1,62.244
25.085210,0.043980,0.017214,-0.254493,1.049359,1.079915,0.323727,0.043811,-0.048676,0.330285,0.043811,0.000000,0.111801,MOVE,0,9,-0.001082,5.043521,0.255788,1,62.091
25.128515,0.043305,-0.018019,-0.106139,0.977712,0.983621,0.504849,0.076492,0.066778,0.514959,0.076492,0.000000,0.085880,MOVE,0,9,0.002231,5.043521,0.255788,1,61.987
25.171650,0.043135,-0.024930,-0.144494,0.981855,0.992743,0.314259,-0.397845,-0.163213,0.532614,-0.397845,0.000000,0.070761,MOVE,0,9,-0.014930,5.043521,0.255788,1,61.556
25.215385,0.043735,-0.018266,-0.116271,0.971376,0.978480,-0.017745,0.132070,-0.096620,0.164599,0.132070,0.000000,0.044317,MOVE,0,9,-0.009154,5.043521,0.255788,1,61.063
25.258488,0.043103,0.008001,-0.120613,0.940913,0.948646,-0.192444,-0.218574,-0.121655,0.315610,-0.218574,0.000000,-0.006333,MOVE,1,10,-0.018575,5.493443,0.247430,1,60.618
25.301693,0.043205,0.056005,-0.172718,1.006224,1.022475,-0.200996,0.259733,-0.091723,0.340990,0.259733,0.000000,0.014528,MOVE,0,10,-0.007354,5.493443,0.247430,1,60.138
25.345389,0.043695,0.057217,-0.148595,1.038880,1.051012,-0.018348,0.192538,-0.129291,0.232645,0.192538,0.000000,0.058985,MOVE,0,10,0.001060,5.493443,0.247430,1,59.615
25.396009,0.050620,0.023275,-0.078398,1.119300,1.122283,0.261734,0.165660,0.085122,0.321238,0.165660,0.000000,0.163142,MOVE,0,10,0.009445,5.493443,0.247430,1,59.682
25.439226,0.043217,0.016486,-0.108552,0.961140,0.967391,-0.051640,0.027299,0.335577,0.340623,0.027299,0.000000,0.117480,MOVE,0,10,0.010625,5.493443,0.247430,1,60.263
25.482352,0.043125,0.056975,-0.243879,1.039611,1.069352,-0.126165,0.238964,0.170338,0.319431,0.238964,0.000000,0.168149,MOVE,0,10,0.020930,5.493443,0.247430,1,60.420
25.525633,0.043281,0.031276,-0.113376,1.042048,1.048664,0.164001,0.031873,-0.008949,0.167309,0.031873,0.000000,0.195131,MOVE,0,10,0.022310,5.493443,0.247430,1,60.232
25.576417,0.050785,-0.016044,-0.070920,1.073241,1.075701,0.226920,0.010187,0.009988,0.227368,0.010187,0.000000,0.243749,MOVE,0,10,0.022827,5.493443,0.247430,1,60.113
25.619729,0.043311,-0.015304,-0.046315,1.043997,1.045136,0.020132,-0.027990,0.032891,0.047650,-0.027990,0.000000,0.259997,MOVE,0,10,0.021615,5.493443,0.247430,1,60.057
25.663121,0.043392,0.011637,-0.097455,0.999157,1.003966,-0.010101,-0.009659,-0.014149,0.019888,-0.009659,0.000000,0.237567,MOVE,0,10,0.021196,5.493443,0.247430,1,59.844
25.713601,0.050480,0.013577,-0.078640,0.939695,0.943078,0.075104,0.034624,-0.057509,0.100730,0.034624,0.000000,0.162580,MOVE,0,10,0.022944,5.493443,0.247430,1,59.619
25.757041,0.043440,0.020123,-0.082982,1.039854,1.043354,0.019514,0.008038,-0.177516,0.178766,0.008038,0.000000,0.185341,MOVE,0,10,0.023293,5.493443,0.247430,1,59.137
25.800461,0.043420,0.016729,-0.018333,1.014997,1.015301,0.087321,-0.017618,-0.175378,0.196704,-0.017618,0.000000,0.180577,MOVE,0,10,0.022528,5.493443,0.247430,1,58.647
25.843445,0.042984,0.014304,-0.006272,1.064955,1.065070,0.112665,-0.152005,-0.146043,0.239013,-0.152005,0.000000,0.221082,MOVE,0,10,0.015994,5.493443,0.247430,1,58.276
25.886540,0.043095,0.025942,-0.044868,0.986241,0.987602,-0.009207,-0.077770,-0.044636,0.090141,-0.077770,0.000000,0.187816,MOVE,0,10,0.012643,5.493443,0.247430,1,58.015
25.936675,0.050135,0.026669,-0.042697,1.010855,1.012107,-0.018363,-0.033474,-0.113935,0.120162,-0.033474,0.000000,0.179931,MOVE,0,10,0.010964,5.493443,0.247430,1,57.582
25.987076,0.050401,0.015759,-0.034978,0.998670,0.999406,0.111137,-0.092420,-0.141414,0.202215,-0.092420,0.000000,0.161404,MOVE,0,10,0.006306,5.493443,0.247430,1,57.173
26.030423,0.043347,0.009698,-0.052346,0.999401,1.000818,0.070807,-0.038046,-0.174685,0.192291,-0.038046,0.000000,0.145999,MOVE,0,10,0.004657,5.493443,0.247430,1,56.685
26.074012,0.043589,0.020123,-0.026294,0.975762,0.976324,0.133104,0.024871,-0.122140,0.182355,0.024871,0.000000,0.110091,MOVE,0,10,0.005741,5.493443,0.247430,1,56.326
26.117567,0.043555,0.003394,-0.091183,1.038636,1.042636,-0.030007,0.127795,-0.212539,0.249810,0.127795,0.000000,0.137454,MOVE,0,10,0.011307,5.493443,0.247430,1,55.693
26.160651,0.043084,0.016486,-0.044627,1.021821,1.022928,-0.099637,-0.060958,-0.169154,0.205564,-0.060958,0.000000,0.144344,MOVE,0,10,0.008681,5.493443,0.247430,1,55.192
26.203861,0.043210,0.022305,-0.098420,1.049115,1.053957,-0.162241,0.188581,-0.222900,0.334020,0.188581,0.000000,0.178471,MOVE,0,10,0.016830,5.493443,0.247430,1,54.560
26.247015,0.043154,-0.000494,-0.060065,1.056913,1.058619,-0.268837,0.142156,-0.304145,0.430100,0.142156,0.000000,0.213381,MOVE,0,10,0.022964,5.493443,0.247430,1,53.881
26.290719,0.043704,0.016729,-0.063684,1.037905,1.039991,-0.070306,-0.122044,-0.232673,0.271983,-0.122044,0.000000,0.228035,MOVE,0,10,0.017630,5.493443,0.247430,1,53.414
26.341109,0.050390,0.010425,-0.095525,0.995258,0.999886,-0.011671,0.032818,-0.121776,0.126659,0.032818,0.000000,0.205129,MOVE,0,10,0.019284,5.493443,0.247430,1,53.251
26.384436,0.043327,0.009940,-0.111929,1.005981,1.012237,-0.209271,-0.084163,-0.056408,0.232507,-0.084163,0.000000,0.195629,MOVE,0,10,0.015637,5.493443,0.247430,1,53.281
26.435219,0.050783,0.031760,-0.148595,0.960166,0.972115,-0.042173,-0.026115,0.017812,0.052705,-0.026115,0.000000,0.150970,MOVE,0,10,0.014311,5.493443,0.247430,1,53.455
26.478315,0.043096,0.015274,-0.175130,0.974056,0.989793,0.005477,-0.128110,-0.068925,0.145577,-0.128110,0.000000,0.126686,MOVE,0,10,0.008790,5.493443,0.247430,1,53.485
26.521293,0.042979,0.028124,-0.155108,0.941888,0.954989,0.071443,-0.158626,-0.056084,0.182789,-0.158626,0.000000,0.073507,MOVE,0,10,0.001973,5.493443,0.247430,1,53.553
26.565103,0.043810,0.022063,-0.142323,0.932384,0.943442,-0.008897,-0.020551,-0.023700,0.032606,-0.020551,0.000000,0.015254,MOVE,1,11,0.001072,5.943443,0.247912,1,53.581
26.612456,0.047353,0.016729,-0.149319,0.970888,0.982446,-0.206491,-0.176620,0.020588,0.272501,-0.176620,0.000000,-0.002070,MOVE,0,11,-0.007291,5.943443,0.247912,1,53.763
26.655886,0.043430,0.056732,-0.158003,0.928729,0.943780,-0.336605,0.011221,0.148564,0.368103,0.011221,0.000000,-0.052461,MOVE,0,11,-0.006804,5.943443,0.247912,1,54.146
26.699498,0.043612,0.063763,-0.077192,1.032056,1.036901,-0.765127,-0.058417,0.196212,0.792042,-0.058417,0.000000,-0.014004,MOVE,0,11,-0.009351,5.943443,0.247912,1,54.712
26.750162,0.050664,0.037094,-0.238814,1.081527,1.108200,-0.798419,0.097048,0.453691,0.923432,0.097048,0.000000,0.084777,MOVE,0,11,-0.004435,5.943443,0.247912,1,55.838
26.793692,0.043530,0.045822,-0.229888,1.122224,1.146445,-0.252611,0.006029,0.569145,0.622715,0.006029,0.000000,0.208099,MOVE,0,11,-0.004172,5.943443,0.247912,1,57.300
26.837187,0.043495,-0.004690,-0.247257,1.117106,1.144152,-0.075766,0.070170,0.516916,0.527130,0.070170,0.000000,0.317026,MOVE,0,11,-0.001120,5.943443,0.247912,1,58.654
26.880736,0.043549,0.010910,-0.276686,1.090543,1.125148,-0.182056,-0.035510,0.270126,0.327679,-0.035510,0.000000,0.397957,MOVE,0,11,-0.002667,5.943443,0.247912,1,59.412
26.924113,0.043377,0.004606,-0.187433,1.096636,1.112548,0.225089,0.012138,-0.165120,0.279422,0.012138,0.000000,0.459455,MOVE,0,11,-0.002140,5.943443,0.247912,1,59.365
26.967212,0.043099,-0.010367,-0.004342,1.102241,1.102298,0.039997,-0.344302,0.121681,0.367355,-0.344302,0.000000,0.505577,MOVE,0,11,-0.016979,5.943443,0.247912,1,60.064
27.017690,0.050478,0.071279,-0.028947,0.939208,0.942353,-0.083703,-0.252977,0.237135,0.356703,-0.252977,0.000000,0.403138,MOVE,0,11,-0.029749,5.943443,0.247912,1,61.020
27.061150,0.043461,0.110555,-0.021952,0.970157,0.976683,-0.104778,-0.125001,0.234997,0.286055,-0.125001,0.000000,0.341838,MOVE,0,11,-0.035181,5.943443,0.247912,1,61.765
27.104631,0.043481,0.108858,-0.007960,0.928729,0.935121,0.075729,-0.069093,0.116786,0.155395,-0.069093,0.000000,0.249263,MOVE,0,11,-0.038186,5.943443,0.247912,1,62.160
27.155025,0.050394,0.082674,0.059970,1.034249,1.039280,0.391851,-0.129569,-0.015161,0.412996,-0.129569,0.000000,0.259689,MOVE,0,11,-0.044715,5.943443,0.247912,1,62.211
27.198312,0.043287,0.038549,0.069681,0.928485,0.931894,0.352451,-0.134456,0.007441,0.377300,-0.134456,0.000000,0.172424,MOVE,0,11,-0.050535,5.943443,0.247912,1,62.219
27.242168,0.043856,0.001455,0.000243,0.945056,0.945058,-0.019569,0.045741,-0.042645,0.065527,0.045741,0.000000,0.105734,MOVE,0,11,-0.048529,5.943443,0.247912,1,62.098
27.292470,0.050301,0.037094,-0.023399,0.960897,0.961897,0.069615,-0.026644,0.024555,0.078479,-0.026644,0.000000,0.060868,MOVE,0,11,-0.049870,5.943443,0.247912,1,62.080
27.335808,0.043338,0.052853,-0.130744,1.055451,1.064831,0.180172,0.038721,-0.202682,0.273937,0.038721,0.000000,0.113129,MOVE,0,11,-0.048191,5.943443,0.247912,1,61.716
27.379400,0.043592,0.067885,-0.058618,0.888275,0.892792,0.251338,-0.154312,0.022727,0.295803,-0.154312,0.000000,0.005328,MOVE,1,12,-0.054918,6.392765,0.223211,1,61.713
27.429927,0.050527,0.081947,-0.171029,0.996476,1.014363,0.152073,0.187772,-0.177026,0.299538,0.187772,0.000000,0.017722,MOVE,0,12,-0.045431,6.392765,0.223211,1,61.316
27.473244,0.043318,0.052611,-0.078640,1.004275,1.008722,0.268442,0.057658,-0.044163,0.278094,0.057658,0.000000,0.023799,MOVE,0,12,-0.042933,6.392765,0.223211,1,61.141
27.516776,0.043531,0.077340,-0.162104,1.012073,1.027887,0.164901,0.247026,-0.064627,0.303959,0.247026,0.000000,0.046517,MOVE,0,12,-0.032180,6.392765,0.223211,1,60.906
27.568182,0.051407,0.093099,-0.116995,0.987216,0.998474,0.059221,0.062545,0.095420,0.128545,0.062545,0.000000,0.040492,MOVE,0,12,-0.028964,6.392765,0.223211,1,61.025
27.619696,0.051513,0.112495,-0.264866,1.028157,1.067668,-0.020492,0.185317,-0.355092,0.401064,0.185317,0.000000,0.097345,MOVE,0,12,-0.019418,6.392765,0.223211,1,60.098
27.670006,0.050310,0.100130,-0.169823,0.997451,1.016747,0.175596,-0.031235,-0.351122,0.393822,-0.031235,0.000000,0.102683,MOVE,0,12,-0.020990,6.392765,0.223211,1,59.103
27.723759,0.053753,0.089463,-0.136534,0.995014,1.008315,0.131308,-0.087740,-0.434505,0.462314,-0.087740,0.000000,0.099898,MOVE,0,12,-0.025706,6.392765,0.223211,1,58.378
27.767219,0.043460,0.119768,-0.087083,0.965040,0.976335,0.022873,0.049098,-0.024608,0.059493,0.049098,0.000000,0.068609,MOVE,0,12,-0.023572,6.392765,0.223211,1,58.511
27.818336,0.051117,0.152014,-0.109758,0.975762,0.993613,0.135270,0.344139,0.181864,0.412073,0.344139,0.000000,0.056000,MOVE,0,12,-0.005981,6.392765,0.223211,1,59.125
27.862400,0.044064,0.087765,-0.152696,1.060081,1.074612,0.107781,0.280609,0.035256,0.302657,0.280609,0.000000,0.117551,MOVE,0,12,0.006384,6.392765,0.223211,1,59.499
27.909649,0.047249,0.073704,-0.164516,0.992821,1.009055,-0.322853,0.087556,0.038916,0.336770,0.087556,0.000000,0.113945,MOVE,0,12,0.010521,6.392765,0.223211,1,59.756
27.953140,0.043491,0.081219,-0.124473,0.992821,1.003884,-0.270624,0.040214,0.100002,0.291298,0.040214,0.000000,0.106046,MOVE,0,12,0.012270,6.392765,0.223211,1,60.209
27.996275,0.043135,0.065703,-0.295502,1.026451,1.070159,-0.547957,0.024331,0.013870,0.548672,0.024331,0.000000,0.158584,MOVE,0,12,0.013319,6.392765,0.223211,1,60.542
28.039399,0.043125,0.073704,-0.026052,1.034493,1.037442,-0.768479,0.081752,0.367561,0.855771,0.081752,0.000000,0.176424,MOVE,0,12,0.016845,6.392765,0.223211,1,61.712
28.090648,0.051248,0.068612,-0.103245,1.013291,1.020846,-0.864690,0.183156,0.805551,1.195888,0.183156,0.000000,0.177543,MOVE,0,12,0.026231,6.392765,0.223211,1,63.569
28.134439,0.043791,0.013335,-0.241467,1.113695,1.139649,-0.323158,0.318768,0.276237,0.531367,0.318768,0.000000,0.285473,MOVE,0,12,0.040191,6.392765,0.223211,1,64.378
28.177979,0.043540,-0.095032,-0.094078,1.103703,1.111774,-0.186630,0.037465,0.191021,0.269673,0.037465,0.000000,0.357523,MOVE,0,12,0.041822,6.392765,0.223211,1,65.123
28.222020,0.044041,-0.072817,-0.084912,1.106140,1.111781,0.053440,-0.258499,0.231644,0.351193,-0.258499,0.000000,0.422374,MOVE,0,12,0.030437,6.392765,0.223211,1,66.129
28.265350,0.043329,-0.110089,-0.067302,1.118569,1.125986,0.386056,0.001424,0.224313,0.446495,0.001424,0.000000,0.493524,MOVE,0,12,0.030499,6.392765,0.223211,1,66.995
28.308834,0.043484,-0.071829,-0.091425,1.096392,1.102540,-0.123711,0.002035,0.215761,0.248719,0.002035,0.000000,0.536457,MOVE,0,12,0.030587,6.392765,0.223211,1,67.814
28.359359,0.050525,-0.057266,-0.015921,1.002569,1.004329,0.232732,-0.375476,0.087163,0.450271,-0.375476,0.000000,0.486708,MOVE,0,12,0.011616,6.392765,0.223211,1,68.432
28.403034,0.043675,-0.037272,-0.021469,0.880233,0.881283,0.236092,-0.176334,0.063950,0.301534,-0.176334,0.000000,0.331192,MOVE,0,12,0.003915,6.392765,0.223211,1,68.875
28.453606,0.050572,-0.001728,-0.030153,0.987703,0.988165,0.020455,-0.010483,0.030656,0.038315,-0.010483,0.000000,0.287421,MOVE,0,12,0.003385,6.392765,0.223211,1,69.087
28.497219,0.043613,0.008001,0.007527,0.963577,0.963640,-0.093759,-0.091711,0.026685,0.133842,-0.091711,0.000000,0.225955,MOVE,0,12,-0.000615,6.392765,0.223211,1,69.261
28.540735,0.043516,0.015032,-0.010373,0.975031,0.975202,-0.101700,-0.112786,0.261562,0.302454,-0.112786,0.000000,0.181041,MOVE,0,12,-0.005523,6.392765,0.223211,1,69.915
28.588912,0.048177,0.029336,-0.055964,0.955048,0.957136,0.119433,0.091854,0.355941,0.386517,0.091854,0.000000,0.124360,MOVE,0,12,-0.001098,6.392765,0.223211,1,70.741
28.632625,0.043713,-0.053810,-0.023640,1.041560,1.043217,0.207703,0.223800,0.686114,0.750986,0.223800,0.000000,0.150819,MOVE,0,12,0.008685,6.392765,0.223211,1,72.196
28.675881,0.043255,-0.051342,-0.133398,1.003787,1.013913,-0.006099,-0.223964,0.762472,0.794708,-0.223964,0.000000,0.148259,MOVE,0,12,-0.001002,6.392765,0.223211,1,73.784
28.719475,0.043594,0.039276,-0.185020,1.009636,1.027200,-0.165230,-0.054449,0.300658,0.347362,-0.054449,0.000000,0.157913,MOVE,0,12,-0.003376,6.392765,0.223211,1,74.454
28.769901,0.050426,0.015759,-0.159209,1.055695,1.067749,0.027801,0.089703,-0.000510,0.093914,0.089703,0.000000,0.203096,MOVE,0,12,0.001147,6.392765,0.223211,1,74.170
28.813149,0.043248,0.041216,-0.198288,1.007443,1.027598,-0.229068,0.158731,-0.509666,0.580885,0.158731,0.000000,0.207624,MOVE,0,12,0.008012,6.392765,0.223211,1,72.730
28.856629,0.043479,0.048247,-0.195875,1.110283,1.128460,-0.819164,0.428733,-0.895733,1.287315,0.428733,0.000000,0.302476,MOVE,0,12,0.026653,6.392765,0.223211,1,70.256
28.901421,0.044792,0.005576,-0.195634,0.891199,0.912436,-0.664310,0.150790,-1.370375,1.530351,0.150790,0.000000,0.193421,MOVE,0,12,0.033407,6.392765,0.223211,1,66.507
28.952069,0.050649,0.032973,-0.064166,0.984048,0.986689,0.251988,0.188663,-1.140690,1.183328,0.188663,0.000000,0.162099,MOVE,0,12,0.042963,6.392765,0.223211,1,64.098
28.995615,0.043546,0.014304,-0.090218,0.901922,0.906536,-0.145379,-0.337597,-0.579305,0.686077,-0.337597,0.000000,0.061772,MOVE,0,12,0.028262,6.392765,0.223211,1,62.780
29.046351,0.050736,0.077340,-0.106381,1.053501,1.061680,0.153944,-0.178772,-0.587551,0.633147,-0.178772,0.000000,0.111106,MOVE,0,12,0.019192,6.392765,0.223211,1,61.795
29.090200,0.043849,-0.042949,-0.111446,0.920930,0.928643,0.609650,0.101920,0.163202,0.639293,0.101920,0.000000,0.035774,MOVE,1,13,0.023661,6.842639,0.233858,1,62.240
29.141111,0.050911,-0.006665,-0.158968,1.035468,1.047621,0.742208,-0.215730,0.055384,0.774906,-0.215730,0.000000,0.075055,MOVE,0,13,0.012678,6.842639,0.233858,1,62.600
29.184409,0.043298,-0.015797,-0.092872,0.947250,0.951923,0.576358,0.018232,0.450003,0.731453,0.018232,0.000000,0.024280,MOVE,0,13,0.013467,6.842639,0.233858,1,63.710
29.228125,0.043716,0.001455,-0.076710,1.008174,1.011089,0.192124,0.108945,0.768875,0.799968,0.108945,0.000000,0.031832,MOVE,0,13,0.018230,6.842639,0.233858,1,65.591
29.278616,0.050491,-0.047392,-0.159450,0.979905,0.993924,0.573914,-0.167471,0.502232,0.780808,-0.167471,0.000000,0.023180,MOVE,0,13,0.009774,6.842639,0.233858,1,66.743
29.322458,0.043842,-0.013823,-0.127609,1.024745,1.032753,0.671958,0.235394,0.398080,0.815724,0.235394,0.000000,0.050340,MOVE,0,13,0.020094,6.842639,0.233858,1,67.652
29.369763,0.047305,-0.061956,-0.149560,1.106140,1.117923,0.714108,-0.118907,0.065158,0.726866,-0.118907,0.000000,0.151437,MOVE,0,13,0.014469,6.842639,0.233858,1,67.595
29.413437,0.043673,0.064976,-0.024364,1.072022,1.074266,0.815817,-0.172053,0.136324,0.844834,-0.172053,0.000000,0.203132,MOVE,0,13,0.006955,6.842639,0.233858,1,67.766
29.457069,0.043632,0.056247,-0.086841,1.001838,1.007166,0.204341,-0.052323,0.184582,0.280292,-0.052323,0.000000,0.189269,MOVE,0,13,0.004672,6.842639,0.233858,1,67.815
29.500609,0.043540,0.094311,-0.025570,1.059838,1.064333,0.150579,-0.181208,-0.222245,0.323887,-0.181208,0.000000,0.228242,MOVE,0,13,-0.003218,6.842639,0.233858,1,67.129
29.544173,0.043564,0.063521,0.014810,0.998670,1.000797,-0.086438,-0.061472,0.056606,0.120227,-0.061472,0.000000,0.206135,MOVE,0,13,-0.005896,6.842639,0.233858,1,66.875
29.596202,0.052029,0.114434,-0.005548,0.994039,1.000620,-0.229371,-0.201960,-0.119317,0.328079,-0.201960,0.000000,0.186079,MOVE,0,13,-0.016403,6.842639,0.233858,1,66.260
29.640009,0.043807,0.152256,-0.024605,1.013291,1.024962,-0.245254,-0.152480,-0.192926,0.347304,-0.152480,0.000000,0.189937,MOVE,0,13,-0.023083,6.842639,0.233858,1,65.462
29.690669,0.050660,0.149347,0.007769,0.920199,0.932272,0.015891,0.163032,0.050504,0.171413,0.163032,0.000000,0.109989,MOVE,0,13,-0.014824,6.842639,0.233858,1,65.180
29.734478,0.043809,0.180137,-0.063925,1.075678,1.092529,0.424560,0.039637,-0.168492,0.458488,0.039637,0.000000,0.182265,MOVE,0,13,-0.013087,6.842639,0.233858,1,64.519
29.786034,0.051556,0.177955,0.024279,1.010855,1.026686,0.100190,0.152647,0.299737,0.350972,0.152647,0.000000,0.188056,MOVE,0,13,-0.005218,6.842639,0.233858,1,64.897
29.836602,0.050568,0.139164,0.003399,0.973569,0.983471,0.164637,-0.111552,0.458256,0.499548,-0.111552,0.000000,0.154374,MOVE,0,13,-0.010859,6.842639,0.233858,1,65.729
29.881177,0.044575,0.098918,-0.095043,1.099316,1.107842,-0.106588,-0.053214,0.317757,0.339356,-0.053214,0.000000,0.235995,MOVE,0,13,-0.013231,6.842639,0.233858,1,66.348
29.928319,0.047142,0.120011,-0.078881,1.087132,1.096576,-0.598945,-0.286260,0.019655,0.664128,-0.286260,0.000000,0.299314,MOVE,0,13,-0.026725,6.842639,0.233858,1,65.969
29.971842,0.043524,0.055763,0.043217,1.113938,1.116170,-0.574510,-0.566341,-0.304409,0.862247,-0.566341,0.000000,0.373936,MOVE,0,13,-0.051374,6.842639,0.233858,1,64.706
30.022280,0.050438,0.048732,0.035933,1.129291,1.130913,0.103550,-0.154007,-0.079611,0.201937,-0.154007,0.000000,0.454364,MOVE,0,13,-0.059142,6.842639,0.233858,1,64.122
30.065622,0.043343,0.028366,0.049044,1.090787,1.092258,0.062916,-0.050768,-0.363960,0.372830,-0.050768,0.000000,0.491960,MOVE,0,13,-0.061343,6.842639,0.233858,1,63.000
30.109617,0.043994,-0.016044,0.094932,1.092006,1.096242,0.262669,0.176474,0.106101,0.333760,0.176474,0.000000,0.529381,MOVE,0,13,-0.053579,6.842639,0.233858,1,62.809
30.160398,0.050782,-0.113544,0.057299,1.123443,1.130619,0.299321,-0.019919,0.018442,0.300549,-0.019919,0.000000,0.594000,MOVE,0,13,-0.054590,6.842639,0.233858,1,62.483
30.204013,0.043615,-0.137734,0.031320,1.027913,1.037573,-0.010693,-0.489064,-0.276301,0.561818,-0.489064,0.000000,0.568416,MOVE,0,13,-0.075921,6.842639,0.233858,1,61.448
30.254893,0.050880,-0.077013,0.055114,0.887788,0.892824,0.021377,-0.284424,0.012639,0.285506,-0.284424,0.000000,0.415116,MOVE,0,13,-0.090392,6.842639,0.233858,1,61.147
30.298692,0.043798,-0.001481,-0.022434,0.954804,0.955069,0.140496,0.242753,0.069144,0.288875,0.242753,0.000000,0.333166,MOVE,0,13,-0.079760,6.842639,0.233858,1,60.847
30.342370,0.043679,-0.000494,0.015296,0.920687,0.920814,-0.144472,-0.083140,-0.053941,0.175198,-0.083140,0.000000,0.228582,MOVE,0,13,-0.083391,6.842639,0.233858,1,60.320
30.393046,0.050676,0.021578,0.001942,0.919956,0.920211,-0.200672,-0.002201,-0.123885,0.235842,-0.002201,0.000000,0.133914,MOVE,0,13,-0.083503,6.842639,0.233858,1,59.685
30.443331,0.050286,0.011395,0.084735,0.903872,0.907906,-0.074223,0.046668,0.172690,0.193672,0.046668,0.000000,0.037638,MOVE,1,14,-0.081156,7.291158,0.197378,0,59.541
30.486717,0.043386,0.042670,-0.028947,1.086157,1.087380,0.665840,1.052763,0.065484,1.247374,1.052763,0.000000,0.112516,MOVE,0,14,-0.035481,7.291158,0.197378,0,59.506
30.530314,0.043597,-0.022709,0.001700,1.007686,1.007944,0.881476,0.581481,-0.010264,1.056042,0.581481,0.000000,0.108414,MOVE,0,14,-0.010130,7.291158,0.197378,0,59.275
30.582249,0.051935,0.025214,0.023794,1.117106,1.117644,0.813364,0.947084,0.039216,1.249026,0.947084,0.000000,0.203452,MOVE,0,14,0.039056,7.291158,0.197378,0,59.222
30.626226,0.043977,-0.062203,0.016024,1.013048,1.015082,0.907743,0.477634,0.244467,1.054465,0.477634,0.000000,0.196681,MOVE,0,14,0.060061,7.291158,0.197378,0,59.959
30.676748,0.050522,-0.052082,0.117269,0.813216,0.823277,-0.025048,0.310868,0.401154,0.508125,0.310868,0.000000,0.017962,MOVE,0,14,0.075767,7.291158,0.197378,0,60.707
30.719841,0.043093,-0.066646,0.154416,1.038149,1.051684,-0.456319,-0.337871,0.065178,0.571518,-0.337871,0.000000,0.062681,MOVE,0,14,0.061207,7.291158,0.197378,0,60.611
30.763035,0.043194,0.051156,0.073566,1.308408,1.311473,-0.071169,-0.094441,-0.015456,0.119260,-0.094441,0.000000,0.336739,MOVE,0,14,0.057127,7.291158,0.197378,0,60.588
30.807682,0.044648,-0.065165,0.236480,0.955292,0.986282,-0.956921,-0.108173,0.159547,0.976143,-0.108173,0.000000,0.290718,MOVE,0,14,0.052298,7.291158,0.197378,0,60.733
30.851385,0.043703,-0.002222,0.084977,1.051064,1.054496,-1.086119,-0.344884,-0.206972,1.158204,-0.344884,0.000000,0.310693,MOVE,0,14,0.037225,7.291158,0.197378,0,60.010
30.902413,0.051028,0.086553,0.015782,1.007686,1.011520,0.249843,-0.273718,-0.409779,0.552505,-0.273718,0.000000,0.289992,MOVE,0,14,0.023258,7.291158,0.197378,0,58.996
30.945648,0.043235,0.228626,0.017724,0.971132,0.997838,0.200363,-0.563573,-0.170625,0.621992,-0.563573,0.000000,0.259047,MOVE,0,14,-0.001108,7.291158,0.197378,0,58.448
30.996142,0.050493,0.230324,0.034719,0.971863,0.999386,-0.118508,-0.730034,0.188258,0.763174,-0.730034,0.000000,0.232590,MOVE,0,14,-0.037970,7.291158,0.197378,0,58.805
31.039672,0.043530,0.196381,0.034234,1.046678,1.065492,-0.034514,-0.388561,0.300963,0.492696,-0.388561,0.000000,0.268273,MOVE,0,14,-0.054884,7.291158,0.197378,0,59.236
31.090468,0.050796,0.195896,0.019181,0.959678,0.979656,-0.146608,0.548507,0.109456,0.578216,0.548507,0.000000,0.223136,MOVE,0,14,-0.027022,7.291158,0.197378,0,59.324
31.140516,0.050048,0.065460,-0.010131,0.925561,0.927928,-0.416916,0.632806,-0.065557,0.760632,0.632806,0.000000,0.135958,MOVE,0,14,0.004648,7.291158,0.197378,0,59.110
31.183424,0.042908,0.200503,-0.060789,0.989653,1.011588,-0.346361,0.387849,-0.138860,0.538215,0.387849,0.000000,0.132791,MOVE,0,14,0.021290,7.291158,0.197378,0,58.807
31.227751,0.044327,0.021578,-0.087806,0.937258,0.941609,-0.468534,0.071726,-0.032875,0.475131,0.071726,0.000000,0.066960,MOVE,0,14,0.024470,7.291158,0.197378,0,58.765
31.278189,0.050438,0.107404,-0.132915,1.048628,1.062460,-0.418443,0.575385,-0.124811,0.722316,0.575385,0.000000,0.116478,MOVE,0,14,0.053491,7.291158,0.197378,0,58.672
31.321346,0.043156,-0.071336,-0.102521,1.021577,1.029184,-0.170126,-0.183615,0.048675,0.255004,-0.183615,0.000000,0.131096,MOVE,0,14,0.045567,7.291158,0.197378,0,58.958
31.364847,0.043501,0.001697,-0.012061,1.139526,1.139592,-0.095906,-0.432543,-0.214608,0.492288,-0.432543,0.000000,0.243619,MOVE,0,14,0.026751,7.291158,0.197378,0,58.986
31.415217,0.050370,-0.159949,0.053657,1.096636,1.109537,-0.114232,0.022246,-0.208805,0.239047,0.022246,0.000000,0.317841,MOVE,0,14,0.027871,7.291158,0.197378,0,58.931
31.465490,0.050273,-0.053070,-0.018816,1.123199,1.124609,-0.045204,0.073559,-0.285163,0.297947,0.073559,0.000000,0.398205,MOVE,0,14,0.031569,7.291158,0.197378,0,58.597
31.508888,0.043399,-0.023943,-0.097696,1.122955,1.127451,0.172264,-0.187891,0.182760,0.313654,-0.187891,0.000000,0.473090,MOVE,0,14,0.023415,7.291158,0.197378,0,59.415
31.552147,0.043259,-0.191051,0.021366,1.032787,1.050527,-0.076969,-0.309148,0.238043,0.397695,-0.309148,0.000000,0.471255,MOVE,0,14,0.010042,7.291158,0.197378,0,60.258
31.595546,0.043399,-0.047639,-0.037872,1.125636,1.127280,0.215635,-0.170482,-0.002332,0.274896,-0.170482,0.000000,0.538682,MOVE,0,14,0.002643,7.291158,0.197378,0,60.485
31.645850,0.050304,-0.143658,0.007041,0.995989,1.006321,-0.233962,0.120901,0.255758,0.367107,0.120901,0.000000,0.490502,MOVE,0,14,0.008725,7.291158,0.197378,0,61.292
31.689032,0.043182,-0.149829,-0.058618,0.991602,1.004570,-0.448986,0.070199,0.054173,0.457659,0.070199,0.000000,0.445565,MOVE,0,14,0.011756,7.291158,0.197378,0,61.605
31.732319,0.043287,-0.088614,-0.045592,0.893636,0.899176,-0.194545,-0.007075,0.039814,0.198703,-0.007075,0.000000,0.310266,MOVE,0,14,0.011450,7.291158,0.197378,0,61.841
31.775545,0.043226,-0.034557,-0.049451,0.935796,0.937739,0.029640,-0.010433,0.093868,0.098988,-0.010433,0.000000,0.223204,MOVE,0,14,0.010999,7.291158,0.197378,0,62.274
31.818734,0.043190,-0.058500,0.021851,0.925317,0.927422,-0.097420,-0.366568,0.038585,0.381250,-0.366568,0.000000,0.135564,MOVE,0,14,-0.004833,7.291158,0.197378,0,62.612
31.869469,0.050734,0.014547,-0.021710,0.963577,0.963932,-0.028990,-0.010717,-0.074413,0.080576,-0.010717,0.000000,0.089546,MOVE,0,14,-0.005377,7.291158,0.197378,0,62.480
31.913043,0.043575,0.032488,-0.123266,0.941645,0.950234,-0.133440,-0.150595,-0.136409,0.243089,-0.150595,0.000000,0.035802,MOVE,1,15,-0.011939,7.741126,0.192005,0,62.275
31.956403,0.043359,0.095524,-0.093113,0.947737,0.957079,-0.132218,0.053740,0.139702,0.199716,0.053740,0.000000,-0.006407,MOVE,0,15,-0.009609,7.741126,0.192005,0,62.440
32.006806,0.050404,0.107888,-0.062719,0.950174,0.958334,-0.117252,-0.010401,0.035244,0.122876,-0.010401,0.000000,-0.043266,MOVE,0,15,-0.010133,7.741126,0.192005,0,62.459
32.050061,0.043255,0.084614,-0.116753,0.935796,0.946839,0.112121,-0.100515,0.138160,0.204359,-0.100515,0.000000,-0.086784,MOVE,0,15,-0.014481,7.741126,0.192005,0,62.651
32.093545,0.043484,0.036609,-0.055723,1.030838,1.032992,0.227269,-0.452985,-0.273869,0.576065,-0.452985,0.000000,-0.048413,MOVE,0,15,-0.034178,7.741126,0.192005,0,62.013
32.144202,0.050658,0.113707,-0.073815,1.033762,1.042613,0.303322,-0.171070,-0.271731,0.441709,-0.171070,0.000000,-0.005220,MOVE,0,15,-0.042844,7.741126,0.192005,0,61.241
32.187383,0.043181,0.147165,-0.041008,1.022308,1.033660,-0.045482,-0.284080,-0.173993,0.336220,-0.284080,0.000000,0.025596,MOVE,0,15,-0.055111,7.741126,0.192005,0,60.712
32.231551,0.044168,0.211655,-0.023158,1.040586,1.062145,-0.105025,-0.030867,-0.164802,0.197845,-0.030867,0.000000,0.078967,MOVE,0,15,-0.056474,7.741126,0.192005,0,60.158
32.274721,0.043169,0.159045,-0.018333,0.982586,0.995543,-0.288590,-0.057745,-0.280867,0.406822,-0.057745,0.000000,0.067059,MOVE,0,15,-0.058967,7.741126,0.192005,0,59.364
32.318002,0.043281,0.193229,-0.065855,1.010123,1.030545,-0.045771,-0.125856,-0.337066,0.362696,-0.125856,0.000000,0.087844,MOVE,0,15,-0.064414,7.741126,0.192005,0,58.557
