t,dt,acc_x_g,acc_y_g,acc_z_g,acc_mag_g,gyro_x_rads,gyro_y_rads,gyro_z_rads,state,step,heading_rad,pos_x_m,pos_y_m,walkable
0.000009,0.000009,0.023517,-0.023158,1.022065,1.022597,0.000530,0.001254,-0.001945,MOVE,0,-0.000000,1.000000,0.250000,1
0.134245,0.134236,0.023517,-0.022916,1.019628,1.020156,-0.000649,-0.000289,-0.000974,MOVE,0,-0.000131,1.000000,0.250000,1
0.181409,0.047163,0.025457,-0.022193,1.020846,1.021404,-0.000322,0.001242,0.000249,MOVE,0,-0.000119,1.000000,0.250000,1
0.212803,0.031394,0.023517,-0.022675,1.020602,1.021125,-0.001187,0.001536,-0.002131,MOVE,0,-0.000186,1.000000,0.250000,1
0.257304,0.044501,0.024245,-0.021228,1.022308,1.022816,0.000324,0.000884,0.000348,MOVE,0,-0.000170,1.000000,0.250000,1
0.300362,0.043058,0.022790,-0.021469,1.027913,1.028390,0.002130,-0.001517,-0.002637,MOVE,0,-0.000284,1.000000,0.250000,1
0.331737,0.031375,0.024002,-0.022675,1.024502,1.025034,0.000578,0.000916,0.000429,MOVE,0,-0.000271,1.000000,0.250000,1
0.368526,0.036789,0.022790,-0.023399,1.023039,1.023561,-0.000312,0.000274,-0.001357,MOVE,0,-0.000320,1.000000,0.250000,1
0.406453,0.037927,0.024002,-0.022916,1.018409,1.018950,0.000890,0.001461,0.001381,MOVE,0,-0.000268,1.000000,0.250000,1
0.441732,0.035279,0.024002,-0.022434,1.020359,1.020888,-0.001502,-0.002171,-0.002814,MOVE,0,-0.000367,1.000000,0.250000,1
0.478885,0.037153,0.023517,-0.021228,1.019871,1.020363,0.000335,-0.000607,-0.002190,MOVE,0,-0.000449,1.000000,0.250000,1
0.513891,0.035006,0.025457,-0.023158,1.020602,1.021182,0.001199,-0.000912,-0.001236,STILL,0,-0.000492,1.000000,0.250000,1
0.545215,0.031325,0.024972,-0.022675,1.019871,1.020429,0.002371,0.000920,0.000296,STILL,0,-0.000483,1.000000,0.250000,1
0.576561,0.031345,0.025214,-0.023158,1.020359,1.020933,-0.000651,-0.002134,-0.001796,STILL,0,-0.000539,1.000000,0.250000,1
0.607918,0.031357,0.023275,-0.022193,1.019628,1.020135,-0.000369,0.001195,-0.000224,STILL,0,-0.000546,1.000000,0.250000,1
0.639253,0.031335,0.022305,-0.022675,1.020115,1.020611,0.001155,-0.000606,-0.002589,STILL,0,-0.000627,1.000000,0.250000,1
0.670585,0.031332,0.024972,-0.021710,1.021333,1.021869,-0.000981,-0.001512,0.000150,STILL,0,-0.000622,1.000000,0.250000,1
0.701914,0.031328,0.024729,-0.023158,1.021090,1.021652,-0.000042,-0.001171,0.000745,STILL,0,-0.000599,1.000000,0.250000,1
0.734622,0.032708,0.022547,-0.022675,1.019871,1.020373,-0.000046,-0.001117,-0.001361,STILL,0,-0.000644,1.000000,0.250000,1
0.765942,0.031320,0.024729,-0.022916,1.020602,1.021159,-0.001251,-0.002266,-0.000130,STILL,0,-0.000648,1.000000,0.250000,1
0.797273,0.031332,0.023760,-0.021952,1.020602,1.021115,-0.001229,-0.000109,-0.001302,STILL,0,-0.000688,1.000000,0.250000,1
0.828647,0.031374,0.024002,-0.022193,1.019871,1.020395,-0.000272,0.000180,-0.001263,STILL,0,-0.000728,1.000000,0.250000,1
0.859994,0.031347,0.025457,-0.022193,1.018409,1.018969,0.001524,-0.001322,-0.001221,STILL,0,-0.000766,1.000000,0.250000,1
0.891336,0.031342,0.024487,-0.021952,1.020115,1.020645,-0.000904,-0.000398,-0.001180,STILL,0,-0.000803,1.000000,0.250000,1
0.922673,0.031337,0.022790,-0.022434,1.020602,1.021103,0.000302,-0.000695,0.000651,STILL,0,-0.000783,1.000000,0.250000,1
0.954111,0.031437,0.024729,-0.021952,1.021821,1.022356,0.001193,0.000509,0.000679,STILL,0,-0.000762,1.000000,0.250000,1
0.985450,0.031339,0.023760,-0.021710,1.019628,1.020135,0.001188,-0.000678,-0.000825,STILL,0,-0.000787,1.000000,0.250000,1
1.017971,0.032521,0.025942,-0.022916,1.021090,1.021676,-0.000598,0.000800,-0.000207,STILL,0,-0.000794,1.000000,0.250000,1
1.049534,0.031563,0.024245,-0.022193,1.020115,1.020644,0.002385,-0.000733,0.000411,STILL,0,-0.000781,1.000000,0.250000,1
1.080906,0.031373,0.025699,-0.022916,1.021090,1.021670,-0.001909,0.001694,-0.000784,STILL,0,-0.000806,1.000000,0.250000,1
1.112257,0.031350,0.023760,-0.023399,1.018653,1.019198,-0.002822,0.001087,-0.000157,STILL,0,-0.000811,1.000000,0.250000,1
1.144606,0.032349,0.023032,-0.022434,1.020359,1.020865,0.000550,-0.001321,0.000454,STILL,0,-0.000796,1.000000,0.250000,1
1.180020,0.035414,0.023517,-0.022916,1.020359,1.020887,-0.001240,-0.000717,0.000444,STILL,0,-0.000780,1.000000,0.250000,1
1.213163,0.033143,0.024245,-0.022434,1.020115,1.020650,-0.000628,-0.000102,0.000154,STILL,0,-0.000775,1.000000,0.250000,1
1.248102,0.034939,0.024002,-0.024846,1.019140,1.019726,-0.002144,0.000206,0.000139,STILL,0,-0.000770,1.000000,0.250000,1
1.281302,0.033200,0.024972,-0.021710,1.019628,1.020164,0.000875,0.000800,-0.000466,STILL,0,-0.000786,1.000000,0.250000,1
1.312775,0.031473,0.022790,-0.022434,1.018409,1.018911,-0.001521,-0.001003,-0.002263,STILL,0,-0.000857,1.000000,0.250000,1
1.344122,0.031348,0.023760,-0.022193,1.021577,1.022094,-0.000575,-0.000659,-0.000721,STILL,0,-0.000880,1.000000,0.250000,1
1.376233,0.032111,0.025699,-0.022916,1.018409,1.018991,0.000976,0.000579,-0.000748,STILL,0,-0.000904,1.000000,0.250000,1
1.407653,0.031420,0.024245,-0.020987,1.021090,1.021593,-0.001739,0.000529,0.000789,STILL,0,-0.000879,1.000000,0.250000,1
1.439026,0.031373,0.024245,-0.023158,1.020115,1.020666,0.001577,-0.001876,-0.000699,STILL,0,-0.000901,1.000000,0.250000,1
1.473445,0.034420,0.024002,-0.022675,1.019140,1.019675,-0.000542,-0.000011,-0.001286,STILL,0,-0.000945,1.000000,0.250000,1
1.514787,0.041342,0.023275,-0.023399,1.019871,1.020405,-0.000509,-0.000627,0.000248,STILL,0,-0.000935,1.000000,0.250000,1
1.553631,0.038844,0.024487,-0.022434,1.018897,1.019438,-0.001398,0.002402,-0.000080,STILL,0,-0.000938,1.000000,0.250000,1
1.594035,0.040404,0.023517,-0.022916,1.017922,1.018451,-0.002273,-0.000315,0.000538,STILL,0,-0.000916,1.000000,0.250000,1
1.630256,0.036222,0.024245,-0.022434,1.021577,1.022111,0.000481,-0.000309,-0.000366,STILL,0,-0.000929,1.000000,0.250000,1
1.661587,0.031331,0.024729,-0.022434,1.018165,1.018713,0.000159,0.000912,-0.001875,STILL,0,-0.000988,1.000000,0.250000,1
1.695900,0.034314,0.024002,-0.022675,1.020115,1.020649,-0.000772,-0.000594,-0.000667,STILL,0,-0.001011,1.000000,0.250000,1
1.728081,0.032181,0.025457,-0.023158,1.019628,1.020208,0.001055,-0.000279,0.000536,STILL,0,-0.000994,1.000000,0.250000,1
1.764321,0.036240,0.024002,-0.022675,1.019628,1.020162,0.000455,0.001847,0.000814,STILL,0,-0.000964,1.000000,0.250000,1
1.797242,0.032921,0.024972,-0.024364,1.021821,1.022416,-0.000151,0.001541,0.002273,STILL,0,-0.000890,1.000000,0.250000,1
1.830023,0.032781,0.024245,-0.023399,1.018653,1.019210,-0.000446,-0.001778,0.000431,STILL,0,-0.000875,1.000000,0.250000,1
1.861407,0.031384,0.024245,-0.022193,1.019628,1.020157,-0.000752,-0.000553,-0.001065,STILL,0,-0.000909,1.000000,0.250000,1
1.892845,0.031438,0.024729,-0.021469,1.019140,1.019666,-0.000997,-0.000540,-0.001350,STILL,0,-0.000951,1.000000,0.250000,1
1.924242,0.031397,0.024002,-0.023158,1.018897,1.019442,0.000263,0.000074,0.001072,STILL,0,-0.000918,1.000000,0.250000,1
1.955617,0.031375,0.024245,-0.022916,1.019628,1.020173,0.002642,-0.001705,-0.001361,STILL,0,-0.000960,1.000000,0.250000,1
1.988464,0.032847,0.023032,-0.021952,1.019628,1.020124,-0.000969,-0.000142,0.000441,STILL,0,-0.000946,1.000000,0.250000,1
2.020699,0.032235,0.024972,-0.022916,1.020602,1.021165,-0.000056,0.001369,0.001617,STILL,0,-0.000894,1.000000,0.250000,1
2.052071,0.031372,0.024245,-0.022193,1.019140,1.019670,-0.000360,0.001028,-0.001104,STILL,0,-0.000928,1.000000,0.250000,1
2.083411,0.031340,0.023517,-0.023158,1.020359,1.020892,0.000202,-0.001958,0.000740,STILL,0,-0.000905,1.000000,0.250000,1
2.126361,0.042950,0.023760,-0.022193,1.020846,1.021364,0.001367,0.001064,0.000435,STILL,0,-0.000887,1.000000,0.250000,1
2.159549,0.033188,0.024729,-0.022434,1.021090,1.021636,0.000476,-0.000177,-0.001366,STILL,0,-0.000932,1.000000,0.250000,1
2.195591,0.036041,0.023517,-0.021952,1.017678,1.018186,-0.001317,-0.003149,-0.000435,STILL,0,-0.000948,1.000000,0.250000,1
2.226966,0.031375,0.024972,-0.023640,1.019628,1.020207,0.000814,-0.000952,0.001651,STILL,0,-0.000896,1.000000,0.250000,1
2.258297,0.031331,0.024245,-0.023640,1.019140,1.019703,0.000201,0.000566,0.001626,STILL,0,-0.000845,1.000000,0.250000,1
2.289732,0.031435,0.024002,-0.021710,1.019871,1.020385,0.001737,0.001708,-0.000790,STILL,0,-0.000870,1.000000,0.250000,1
2.322514,0.032782,0.024002,-0.022675,1.018897,1.019431,0.001383,0.001686,0.001619,STILL,0,-0.000817,1.000000,0.250000,1
2.354672,0.032158,0.023517,-0.021469,1.020115,1.020612,-0.001941,-0.000452,-0.002019,STILL,0,-0.000881,1.000000,0.250000,1
2.390614,0.035943,0.025457,-0.022193,1.019871,1.020430,-0.000115,-0.000152,-0.000495,STILL,0,-0.000899,1.000000,0.250000,1
2.424108,0.033494,0.024729,-0.021469,1.018897,1.019423,-0.001587,-0.001663,0.000692,STILL,0,-0.000876,1.000000,0.250000,1
2.455473,0.031365,0.024002,-0.023158,1.020115,1.020660,0.001464,-0.000137,-0.000242,STILL,0,-0.000884,1.000000,0.250000,1
2.486948,0.031476,0.024729,-0.023399,1.020115,1.020683,0.000539,-0.000758,0.000677,STILL,0,-0.000862,1.000000,0.250000,1
2.520695,0.033747,0.025214,-0.022675,1.020359,1.020922,-0.001561,0.001645,0.000955,STILL,0,-0.000830,1.000000,0.250000,1
2.557565,0.036870,0.024487,-0.023158,1.018409,1.018967,0.000278,-0.000477,-0.001739,STILL,0,-0.000894,1.000000,0.250000,1
2.590943,0.033378,0.024245,-0.021710,1.019384,1.019903,0.000915,-0.000176,-0.000220,STILL,0,-0.000902,1.000000,0.250000,1
2.623954,0.033011,0.024002,-0.021952,1.017922,1.018441,-0.002699,-0.001076,-0.001414,STILL,0,-0.000948,1.000000,0.250000,1
2.657518,0.033564,0.024972,-0.023881,1.020115,1.020700,-0.000237,0.001382,-0.000166,STILL,0,-0.000954,1.000000,0.250000,1
2.692373,0.034854,0.024487,-0.022434,1.019628,1.020168,0.000046,-0.002242,-0.001376,STILL,0,-0.001002,1.000000,0.250000,1
2.723734,0.031362,0.025457,-0.024123,1.019871,1.020474,-0.000861,0.000821,-0.000745,STILL,0,-0.001025,1.000000,0.250000,1
2.755102,0.031368,0.025214,-0.022193,1.021090,1.021642,-0.001413,0.000803,-0.000120,STILL,0,-0.001029,1.000000,0.250000,1
2.786470,0.031368,0.024487,-0.021952,1.021577,1.022106,-0.002277,0.001072,-0.000106,STILL,0,-0.001032,1.000000,0.250000,1
2.817832,0.031362,0.025457,-0.022434,1.019384,1.019948,-0.000109,-0.000720,0.000779,STILL,0,-0.001008,1.000000,0.250000,1
2.849198,0.031366,0.023275,-0.022193,1.020115,1.020622,0.001366,0.001991,-0.000734,STILL,0,-0.001031,1.000000,0.250000,1
2.880531,0.031333,0.026184,-0.021469,1.020846,1.021407,-0.000731,-0.002269,0.000497,STILL,0,-0.001015,1.000000,0.250000,1
2.914973,0.034442,0.024729,-0.022434,1.020846,1.021392,0.001365,-0.000997,-0.001001,STILL,0,-0.001050,1.000000,0.250000,1
2.946298,0.031325,0.025699,-0.022193,1.020115,1.020680,0.001004,0.000802,-0.000973,STILL,0,-0.001080,1.000000,0.250000,1
2.978352,0.032054,0.023760,-0.022193,1.020602,1.021120,-0.000221,0.001081,-0.000019,STILL,0,-0.001081,1.000000,0.250000,1
3.009792,0.031440,0.023517,-0.022916,1.020602,1.021130,0.000713,0.001085,-0.000629,STILL,0,-0.001101,1.000000,0.250000,1
3.043711,0.033919,0.024729,-0.022434,1.018897,1.019444,-0.000502,-0.001033,0.000893,STILL,0,-0.001070,1.000000,0.250000,1
3.080936,0.037224,0.023275,-0.021952,1.020602,1.021104,0.000130,0.000162,0.000288,STILL,0,-0.001060,1.000000,0.250000,1
3.112281,0.031346,0.024487,-0.021710,1.020115,1.020640,0.000101,0.000462,-0.000317,STILL,0,-0.001069,1.000000,0.250000,1
3.143724,0.031443,0.023760,-0.023158,1.019140,1.019680,0.000113,-0.000439,-0.001217,STILL,0,-0.001108,1.000000,0.250000,1
3.175047,0.031322,0.024002,-0.022916,1.021090,1.021629,-0.001087,0.000441,-0.000286,STILL,0,-0.001117,1.000000,0.250000,1
3.206371,0.031324,0.023517,-0.023158,1.020846,1.021379,0.001917,-0.000434,0.000604,STILL,0,-0.001098,1.000000,0.250000,1
3.237689,0.031319,0.024487,-0.022916,1.021090,1.021640,-0.000494,0.000532,0.000289,STILL,0,-0.001089,1.000000,0.250000,1
3.269004,0.031314,0.023760,-0.021469,1.022796,1.023297,-0.001353,0.000194,-0.001528,STILL,0,-0.001137,1.000000,0.250000,1
3.300319,0.031315,0.024245,-0.021952,1.020359,1.020883,0.000529,0.000798,0.000600,STILL,0,-0.001118,1.000000,0.250000,1
3.331634,0.031315,0.023760,-0.021952,1.019628,1.020141,0.001422,0.000211,0.000901,STILL,0,-0.001090,1.000000,0.250000,1
3.362948,0.031315,0.023517,-0.021710,1.021333,1.021835,0.000774,0.001400,-0.000626,STILL,0,-0.001109,1.000000,0.250000,1
3.394265,0.031317,0.023517,-0.021952,1.020602,1.021109,-0.001644,-0.001304,-0.001791,STILL,0,-0.001165,1.000000,0.250000,1
3.425586,0.031320,0.023760,-0.021469,1.022552,1.023053,0.000478,0.000506,-0.000835,STILL,0,-0.001191,1.000000,0.250000,1
3.456902,0.031316,0.023760,-0.021469,1.021577,1.022079,0.001688,0.001400,-0.001408,STILL,0,-0.001236,1.000000,0.250000,1
3.488236,0.031335,0.024245,-0.021710,1.018897,1.019416,-0.001005,0.002595,0.000395,STILL,0,-0.001223,1.000000,0.250000,1
3.519552,0.031316,0.024487,-0.022675,1.019628,1.020174,-0.000391,-0.001930,0.000387,STILL,0,-0.001211,1.000000,0.250000,1
3.550866,0.031313,0.023760,-0.022193,1.021821,1.022338,0.000232,0.001422,-0.001433,STILL,0,-0.001256,1.000000,0.250000,1
3.584378,0.033512,0.023275,-0.022675,1.019628,1.020145,0.001090,-0.000677,-0.002586,STILL,0,-0.001343,1.000000,0.250000,1
3.615692,0.031314,0.024487,-0.022193,1.023039,1.023573,0.001940,-0.000048,-0.000148,STILL,0,-0.001347,1.000000,0.250000,1
3.647007,0.031315,0.023517,-0.023399,1.020359,1.020898,-0.001433,-0.000037,-0.000168,STILL,0,-0.001353,1.000000,0.250000,1
3.678327,0.031320,0.023275,-0.023158,1.019628,1.020156,0.003094,-0.001247,-0.001349,STILL,0,-0.001395,1.000000,0.250000,1
3.709649,0.031322,0.024972,-0.021952,1.018653,1.019195,-0.000557,0.001172,0.000483,STILL,0,-0.001380,1.000000,0.250000,1
3.740972,0.031323,0.024972,-0.022434,1.021333,1.021885,-0.002666,0.001153,-0.000424,STILL,0,-0.001393,1.000000,0.250000,1
3.772295,0.031323,0.024002,-0.022675,1.019140,1.019675,0.000070,-0.000077,-0.000430,STILL,0,-0.001406,1.000000,0.250000,1
3.803617,0.031322,0.023275,-0.021469,1.021577,1.022068,0.000057,0.000842,-0.001291,STILL,0,-0.001447,1.000000,0.250000,1
3.834933,0.031316,0.024002,-0.022193,1.020359,1.020882,-0.000820,-0.001563,0.000803,STILL,0,-0.001422,1.000000,0.250000,1
3.866250,0.031317,0.023517,-0.023881,1.018653,1.019204,0.001294,-0.000060,0.000506,STILL,0,-0.001406,1.000000,0.250000,1
3.897567,0.031317,0.024729,-0.023158,1.021821,1.022382,-0.000831,0.002650,0.001716,STILL,0,-0.001352,1.000000,0.250000,1
3.928879,0.031312,0.023760,-0.022675,1.019871,1.020400,0.000093,-0.000426,-0.000423,STILL,0,-0.001365,1.000000,0.250000,1
3.962502,0.033623,0.024245,-0.022193,1.019628,1.020157,0.000675,-0.001038,-0.000409,STILL,0,-0.001379,1.000000,0.250000,1
3.996039,0.033537,0.023517,-0.023399,1.019871,1.020411,0.000077,-0.000708,0.001066,STILL,0,-0.001343,1.000000,0.250000,1
4.027351,0.031312,0.023275,-0.023399,1.020602,1.021136,0.000975,-0.000054,0.000740,STILL,0,-0.001320,1.000000,0.250000,1
4.058669,0.031318,0.024729,-0.021710,1.020846,1.021376,0.000648,0.002671,-0.000165,STILL,0,-0.001325,1.000000,0.250000,1
4.089998,0.031329,0.024245,-0.022675,1.018897,1.019437,0.000346,-0.000090,-0.000140,STILL,0,-0.001330,1.000000,0.250000,1
4.121322,0.031325,0.022790,-0.022675,1.021090,1.021596,0.000630,0.000218,-0.000746,STILL,0,-0.001353,1.000000,0.250000,1
4.152645,0.031323,0.024729,-0.022916,1.020602,1.021159,0.000604,-0.000120,0.000160,STILL,0,-0.001348,1.000000,0.250000,1
4.183976,0.031331,0.023760,-0.022434,1.022308,1.022830,-0.000903,-0.000426,0.001346,STILL,0,-0.001306,1.000000,0.250000,1
4.215296,0.031320,0.024729,-0.022434,1.020359,1.020905,0.001525,-0.000117,-0.001066,STILL,0,-0.001339,1.000000,0.250000,1
4.246669,0.031374,0.024245,-0.023158,1.020359,1.020909,0.000003,0.001709,-0.000160,STILL,0,-0.001344,1.000000,0.250000,1
4.281653,0.034984,0.025942,-0.023158,1.023039,1.023630,-0.001489,0.000491,-0.001066,STILL,0,-0.001382,1.000000,0.250000,1
4.313772,0.032119,0.023032,-0.022434,1.021090,1.021596,0.000322,-0.000106,-0.000134,STILL,0,-0.001386,1.000000,0.250000,1
4.345108,0.031336,0.024002,-0.022434,1.019140,1.019670,0.001813,0.000814,-0.003133,STILL,0,-0.001484,1.000000,0.250000,1
4.376425,0.031317,0.024972,-0.021228,1.022308,1.022833,-0.000304,0.000227,-0.001883,STILL,0,-0.001543,1.000000,0.250000,1
4.407758,0.031332,0.023760,-0.021710,1.019384,1.019892,0.000912,-0.000091,-0.001550,STILL,0,-0.001592,1.000000,0.250000,1
4.439075,0.031317,0.024729,-0.022434,1.019871,1.020418,-0.000014,0.002289,0.001886,STILL,0,-0.001533,1.000000,0.250000,1
4.470444,0.031370,0.024972,-0.022193,1.021090,1.021636,0.003565,-0.000445,0.000046,STILL,0,-0.001531,1.000000,0.250000,1
4.501763,0.031319,0.024972,-0.021952,1.020359,1.020900,0.001975,-0.000465,0.001516,STILL,0,-0.001484,1.000000,0.250000,1
4.533080,0.031317,0.024487,-0.022434,1.021090,1.021630,0.004687,0.001307,0.000875,STILL,0,-0.001456,1.000000,0.250000,1
4.564395,0.031315,0.024729,-0.021710,1.019871,1.020402,-0.002921,-0.000508,-0.000060,STILL,0,-0.001458,1.000000,0.250000,1
4.595714,0.031320,0.024729,-0.022193,1.021577,1.022117,0.001050,-0.000211,0.001118,STILL,0,-0.001423,1.000000,0.250000,1
4.627048,0.031333,0.024729,-0.022916,1.020602,1.021159,-0.000466,-0.001115,0.000190,STILL,0,-0.001417,1.000000,0.250000,1
4.658379,0.031331,0.023760,-0.022434,1.019384,1.019908,0.001636,0.000403,0.000153,STILL,0,-0.001412,1.000000,0.250000,1
4.689713,0.031335,0.023760,-0.022193,1.018653,1.019172,0.000116,0.000680,-0.000748,STILL,0,-0.001436,1.000000,0.250000,1
4.721040,0.031327,0.023760,-0.020745,1.021577,1.022064,-0.000519,0.000693,-0.000763,STILL,0,-0.001460,1.000000,0.250000,1
4.752366,0.031326,0.023517,-0.021952,1.020846,1.021353,0.001040,-0.000236,-0.000763,STILL,0,-0.001484,1.000000,0.250000,1
4.783727,0.031361,0.024245,-0.022675,1.021333,1.021873,0.001626,-0.000229,-0.001654,STILL,0,-0.001536,1.000000,0.250000,1
4.815058,0.031331,0.025214,-0.022193,1.018897,1.019450,-0.000220,0.000645,0.001384,STILL,0,-0.001492,1.000000,0.250000,1
4.846376,0.031317,0.024245,-0.022916,1.020359,1.020904,0.000969,0.000643,0.001313,STILL,0,-0.001451,1.000000,0.250000,1
4.877692,0.031316,0.022790,-0.022434,1.023770,1.024270,-0.001726,0.001248,0.000979,STILL,0,-0.001420,1.000000,0.250000,1
4.909036,0.031344,0.024487,-0.022675,1.018653,1.019199,-0.000778,-0.000245,0.001542,STILL,0,-0.001372,1.000000,0.250000,1
4.940351,0.031314,0.025942,-0.023640,1.018897,1.019501,-0.000451,-0.000598,0.001210,STILL,0,-0.001334,1.000000,0.250000,1
4.971668,0.031317,0.024002,-0.021469,1.019871,1.020380,0.001365,0.003266,0.001185,STILL,0,-0.001297,1.000000,0.250000,1
5.002981,0.031313,0.024729,-0.022916,1.019871,1.020428,-0.000177,-0.000126,0.001135,STILL,0,-0.001262,1.000000,0.250000,1
5.034294,0.031313,0.024245,-0.023158,1.021821,1.022371,0.001005,-0.000112,-0.000078,STILL,0,-0.001264,1.000000,0.250000,1
5.065609,0.031314,0.023275,-0.021952,1.020115,1.020617,0.001918,-0.000684,0.000220,STILL,0,-0.001257,1.000000,0.250000,1
5.096921,0.031312,0.025214,-0.022193,1.021333,1.021886,0.001594,0.000475,-0.000699,STILL,0,-0.001279,1.000000,0.250000,1
5.130597,0.033676,0.023032,-0.022916,1.020846,1.021363,0.001587,0.000734,0.002938,STILL,0,-0.001180,1.000000,0.250000,1
5.165372,0.034775,0.024487,-0.022675,1.021577,1.022122,-0.001444,0.000735,0.001960,STILL,0,-0.001112,1.000000,0.250000,1
5.199567,0.034195,0.023032,-0.021469,1.019871,1.020357,-0.000220,-0.000175,0.000128,STILL,0,-0.001108,1.000000,0.250000,1
5.234138,0.034571,0.024487,-0.023158,1.019628,1.020184,0.000983,0.000797,0.000719,STILL,0,-0.001083,1.000000,0.250000,1
5.267844,0.033706,0.024487,-0.022193,1.019871,1.020407,0.001541,-0.001342,0.000985,STILL,0,-0.001049,1.000000,0.250000,1
5.304136,0.036292,0.024487,-0.023399,1.019384,1.019946,0.000869,0.001390,0.000647,STILL,0,-0.001026,1.000000,0.250000,1
5.345216,0.041080,0.023275,-0.022675,1.021333,1.021850,0.001145,0.000148,-0.000265,STILL,0,-0.001037,1.000000,0.250000,1
5.376529,0.031313,0.024972,-0.022675,1.020846,1.021403,-0.000069,-0.000448,0.000329,STILL,0,-0.001027,1.000000,0.250000,1
5.407843,0.031314,0.025699,-0.022675,1.020602,1.021178,-0.001263,-0.001038,0.001179,STILL,0,-0.000990,1.000000,0.250000,1
5.439164,0.031321,0.023760,-0.022193,1.018165,1.018684,0.001177,0.000778,0.000228,STILL,0,-0.000982,1.000000,0.250000,1
5.470478,0.031314,0.024487,-0.021469,1.020359,1.020878,0.000572,0.000156,0.001112,STILL,0,-0.000948,1.000000,0.250000,1
5.501792,0.031314,0.023275,-0.022193,1.018165,1.018673,-0.001498,0.000421,0.000484,STILL,0,-0.000933,1.000000,0.250000,1
5.533109,0.031317,0.022790,-0.022193,1.020359,1.020855,-0.000573,0.000107,0.001964,STILL,0,-0.000871,1.000000,0.250000,1
5.564425,0.031316,0.024245,-0.023399,1.020115,1.020671,0.000022,-0.000492,0.000112,STILL,0,-0.000867,1.000000,0.250000,1
5.595741,0.031316,0.024487,-0.021228,1.018165,1.018681,0.000352,0.000130,0.001595,STILL,0,-0.000818,1.000000,0.250000,1
5.634473,0.038733,0.025214,-0.021952,1.017434,1.017983,-0.000261,0.001302,0.000055,STILL,0,-0.000815,1.000000,0.250000,1
5.665776,0.031303,0.023760,-0.022434,1.020359,1.020882,-0.000532,0.001914,0.000949,STILL,0,-0.000786,1.000000,0.250000,1
5.697118,0.031342,0.024002,-0.021710,1.020846,1.021359,0.001573,-0.000242,0.000923,STILL,0,-0.000757,1.000000,0.250000,1
5.731660,0.034543,0.023032,-0.022193,1.020602,1.021103,-0.000516,0.000372,-0.000314,STILL,0,-0.000768,1.000000,0.250000,1
5.763012,0.031352,0.025457,-0.021952,1.017922,1.018477,0.002183,-0.000826,0.000892,STILL,0,-0.000740,1.000000,0.250000,1
5.794437,0.031425,0.023760,-0.022434,1.017678,1.018203,-0.000837,-0.000203,0.002955,STILL,0,-0.000647,1.000000,0.250000,1
5.825781,0.031343,0.022790,-0.022434,1.019140,1.019642,0.000102,-0.002273,0.001390,STILL,0,-0.000603,1.000000,0.250000,1
5.857120,0.031339,0.024245,-0.022916,1.019628,1.020173,-0.001688,0.000765,-0.000118,STILL,0,-0.000607,1.000000,0.250000,1
5.888451,0.031331,0.024245,-0.022675,1.016947,1.017489,-0.002538,-0.001032,0.001398,STILL,0,-0.000563,1.000000,0.250000,1
5.919789,0.031338,0.024487,-0.023640,1.018897,1.019465,-0.000086,0.000504,0.000135,STILL,0,-0.000559,1.000000,0.250000,1
5.951142,0.031353,0.023760,-0.022434,1.018409,1.018933,0.002289,0.000487,0.000751,STILL,0,-0.000535,1.000000,0.250000,1
5.982528,0.031386,0.024245,-0.022916,1.017922,1.018468,0.000171,0.000186,0.001307,STILL,0,-0.000494,1.000000,0.250000,1
6.013936,0.031408,0.024002,-0.021710,1.019384,1.019898,0.000140,0.001356,0.000973,STILL,0,-0.000464,1.000000,0.250000,1
6.045261,0.031325,0.023760,-0.022675,1.020115,1.020644,0.000085,-0.000767,0.000640,STILL,0,-0.000444,1.000000,0.250000,1
6.076576,0.031315,0.024002,-0.022434,1.018653,1.019182,0.001604,0.001046,0.000629,STILL,0,-0.000424,1.000000,0.250000,1
6.107891,0.031314,0.024245,-0.023158,1.019871,1.020422,-0.001743,-0.001076,-0.000288,STILL,0,-0.000433,1.000000,0.250000,1
6.139206,0.031316,0.024487,-0.021710,1.019140,1.019666,0.001914,-0.000785,-0.002080,STILL,0,-0.000498,1.000000,0.250000,1
6.170521,0.031315,0.023275,-0.022675,1.018409,1.018927,0.001010,0.000727,0.001547,STILL,0,-0.000450,1.000000,0.250000,1
6.204029,0.033507,0.024002,-0.023158,1.019384,1.019929,-0.000816,0.000117,-0.000912,STILL,0,-0.000480,1.000000,0.250000,1
6.235342,0.031313,0.023032,-0.022193,1.018165,1.018668,0.000347,-0.000752,-0.000881,STILL,0,-0.000508,1.000000,0.250000,1
6.266657,0.031315,0.024002,-0.021469,1.019140,1.019649,0.000045,-0.001042,0.001240,STILL,0,-0.000469,1.000000,0.250000,1
6.297972,0.031315,0.024002,-0.022916,1.019384,1.019924,-0.003285,0.000764,0.000308,STILL,0,-0.000459,1.000000,0.250000,1
6.329286,0.031314,0.023517,-0.023158,1.018897,1.019431,-0.000513,0.000468,-0.000308,STILL,0,-0.000469,1.000000,0.250000,1
6.360601,0.031315,0.023275,-0.022675,1.019628,1.020145,-0.001672,-0.001013,0.000909,STILL,0,-0.000441,1.000000,0.250000,1
6.391923,0.031321,0.023517,-0.022916,1.018897,1.019426,-0.000415,0.000842,0.002100,STILL,0,-0.000375,1.000000,0.250000,1
6.423239,0.031316,0.024487,-0.021710,1.018653,1.019178,-0.001867,0.002306,0.000844,STILL,0,-0.000348,1.000000,0.250000,1
6.454553,0.031314,0.023032,-0.023640,1.017678,1.018213,-0.002110,-0.000724,0.001121,STILL,0,-0.000313,1.000000,0.250000,1
6.485868,0.031315,0.024487,-0.023158,1.018409,1.018967,0.001478,0.001713,0.001379,STILL,0,-0.000270,1.000000,0.250000,1
6.517185,0.031318,0.025214,-0.022193,1.019871,1.020424,-0.003056,0.000490,-0.001365,STILL,0,-0.000313,1.000000,0.250000,1
6.548514,0.031329,0.023517,-0.022675,1.018897,1.019420,-0.000917,0.000163,0.000182,STILL,0,-0.000307,1.000000,0.250000,1
6.582129,0.033614,0.024245,-0.023158,1.018165,1.018717,0.001215,-0.000443,-0.001025,STILL,0,-0.000342,1.000000,0.250000,1
6.613456,0.031328,0.025457,-0.021710,1.019140,1.019689,-0.000612,-0.000158,0.000190,STILL,0,-0.000336,1.000000,0.250000,1
6.644777,0.031321,0.024245,-0.023399,1.019871,1.020428,-0.002383,-0.002820,-0.000437,STILL,0,-0.000349,1.000000,0.250000,1
6.676092,0.031315,0.024729,-0.021952,1.018409,1.018946,0.000979,-0.000344,-0.002540,STILL,0,-0.000429,1.000000,0.250000,1
6.707407,0.031316,0.023760,-0.022434,1.018897,1.019420,0.000656,0.000558,0.000192,STILL,0,-0.000423,1.000000,0.250000,1
6.738723,0.031316,0.024487,-0.022916,1.020115,1.020666,0.000355,0.001110,-0.001000,STILL,0,-0.000454,1.000000,0.250000,1
6.770037,0.031314,0.023032,-0.022675,1.019628,1.020140,0.000353,0.001409,0.000830,STILL,0,-0.000428,1.000000,0.250000,1
6.801351,0.031315,0.023275,-0.021710,1.018165,1.018663,0.000026,-0.001631,0.001133,STILL,0,-0.000393,1.000000,0.250000,1
6.832666,0.031314,0.024002,-0.021952,1.020359,1.020877,0.000080,-0.000701,-0.000381,STILL,0,-0.000405,1.000000,0.250000,1
6.863978,0.031313,0.025457,-0.023158,1.021090,1.021670,0.001259,0.001079,-0.001249,STILL,0,-0.000444,1.000000,0.250000,1
6.895292,0.031314,0.024002,-0.022675,1.017922,1.018457,-0.003568,-0.001665,-0.002409,STILL,0,-0.000519,1.000000,0.250000,1
6.926612,0.031320,0.024245,-0.022675,1.017922,1.018463,0.001290,-0.003136,0.000929,STILL,0,-0.000490,1.000000,0.250000,1
6.960127,0.033515,0.024002,-0.023881,1.018897,1.019459,-0.000835,-0.001255,-0.000608,STILL,0,-0.000510,1.000000,0.250000,1
6.991447,0.031319,0.023032,-0.020987,1.022065,1.022539,0.001260,-0.001254,0.000888,STILL,0,-0.000483,1.000000,0.250000,1
7.022763,0.031316,0.023517,-0.022193,1.018653,1.019166,-0.001439,0.001450,-0.000337,STILL,0,-0.000493,1.000000,0.250000,1
7.054094,0.031331,0.023760,-0.021952,1.018165,1.018679,-0.000521,0.001112,0.000264,STILL,0,-0.000485,1.000000,0.250000,1
7.085408,0.031314,0.023032,-0.022916,1.021333,1.021850,-0.000213,-0.000692,0.001161,STILL,0,-0.000449,1.000000,0.250000,1
7.116725,0.031317,0.024487,-0.022434,1.018897,1.019438,0.001000,-0.001880,0.001123,STILL,0,-0.000413,1.000000,0.250000,1
7.148038,0.031313,0.024729,-0.023158,1.020115,1.020677,-0.001685,-0.000376,-0.001277,STILL,0,-0.000453,1.000000,0.250000,1
7.179353,0.031315,0.024245,-0.023158,1.018409,1.018961,-0.001339,-0.000069,-0.001244,STILL,0,-0.000492,1.000000,0.250000,1
7.210644,0.031291,0.023760,-0.021710,1.018653,1.019161,0.001449,-0.001863,0.000874,STILL,0,-0.000465,1.000000,0.250000,1
7.241959,0.031314,0.024487,-0.021469,1.018409,1.018930,0.001400,-0.000925,0.000560,STILL,0,-0.000447,1.000000,0.250000,1
7.273273,0.031314,0.024729,-0.021952,1.019871,1.020407,0.000188,0.001488,0.003549,STILL,0,-0.000336,1.000000,0.250000,1
7.304587,0.031315,0.023517,-0.021710,1.019384,1.019886,0.000797,-0.000043,0.001064,STILL,0,-0.000303,1.000000,0.250000,1
7.335901,0.031314,0.025699,-0.023399,1.019384,1.019976,0.001407,-0.000907,0.001043,STILL,0,-0.000270,1.000000,0.250000,1
7.367216,0.031315,0.026427,-0.026535,1.018897,1.019585,-0.000167,-0.000276,-0.001103,STILL,0,-0.000305,1.000000,0.250000,1
7.398532,0.031317,0.025457,-0.023881,1.017678,1.018277,0.001330,0.000033,-0.000746,STILL,0,-0.000328,1.000000,0.250000,1
7.429866,0.031333,0.020365,-0.016403,1.017678,1.018014,0.000741,0.000327,0.000765,STILL,0,-0.000304,1.000000,0.250000,1
7.461181,0.031315,0.020365,-0.016403,1.019140,1.019476,-0.002862,0.000937,0.001936,STILL,0,-0.000244,1.000000,0.250000,1
7.492504,0.031322,0.023760,-0.024846,1.019384,1.019963,-0.000670,0.000926,0.002482,STILL,0,-0.000166,1.000000,0.250000,1
7.523818,0.031314,0.029094,-0.030394,1.018409,1.019278,-0.000963,0.000320,-0.000243,STILL,0,-0.000174,1.000000,0.250000,1
7.555137,0.031320,0.026184,-0.025087,1.017678,1.018324,-0.000976,0.000900,-0.000800,STILL,0,-0.000199,1.000000,0.250000,1
7.586450,0.031313,0.021820,-0.017851,1.021333,1.021722,-0.000333,-0.000932,-0.000768,STILL,0,-0.000223,1.000000,0.250000,1
7.617776,0.031326,0.022063,-0.019298,1.017434,1.017856,0.001174,0.000600,0.001079,STILL,0,-0.000189,1.000000,0.250000,1
7.649092,0.031317,0.024002,-0.022916,1.020602,1.021142,0.000835,-0.000285,0.000463,STILL,0,-0.000174,1.000000,0.250000,1
7.680407,0.031315,0.025942,-0.025811,1.018653,1.019310,0.002023,0.001806,0.000462,STILL,0,-0.000160,1.000000,0.250000,1
7.711723,0.031316,0.024002,-0.022193,1.018653,1.019177,0.002297,-0.000957,-0.000138,STILL,0,-0.000164,1.000000,0.250000,1
7.743036,0.031313,0.023275,-0.020745,1.017434,1.017912,-0.000412,-0.000069,-0.000124,STILL,0,-0.000168,1.000000,0.250000,1
7.774350,0.031314,0.026911,-0.023158,1.021333,1.021950,-0.001269,0.000233,0.000481,STILL,0,-0.000153,1.000000,0.250000,1
7.805666,0.031317,0.024002,-0.024605,1.019871,1.020450,0.004098,-0.000060,0.000460,STILL,0,-0.000139,1.000000,0.250000,1
7.836980,0.031314,0.022063,-0.020263,1.020359,1.020798,0.000408,0.001139,0.000129,STILL,0,-0.000135,1.000000,0.250000,1
7.870440,0.033459,0.024002,-0.020987,1.016460,1.016960,-0.001407,0.000215,0.001011,STILL,0,-0.000101,1.000000,0.250000,1
7.901755,0.031315,0.024245,-0.023640,1.017434,1.017998,0.000371,-0.000678,-0.000830,STILL,0,-0.000127,1.000000,0.250000,1
7.933070,0.031315,0.025214,-0.025087,1.018897,1.019517,-0.001754,-0.000085,-0.000202,STILL,0,-0.000133,1.000000,0.250000,1
7.964386,0.031316,0.026669,-0.026294,1.019140,1.019828,0.000972,0.000523,-0.001386,STILL,0,-0.000176,1.000000,0.250000,1
7.995706,0.031320,0.025699,-0.023158,1.017922,1.018509,0.001275,0.000211,-0.001630,STILL,0,-0.000228,1.000000,0.250000,1
8.027021,0.031315,0.021335,-0.018092,1.018897,1.019281,-0.000839,0.000219,-0.000975,STILL,0,-0.000258,1.000000,0.250000,1
8.058335,0.031314,0.021820,-0.019057,1.018165,1.018577,0.000080,-0.000099,0.000864,STILL,0,-0.000231,1.000000,0.250000,1
8.089655,0.031320,0.024245,-0.022193,1.020115,1.020644,0.000658,-0.000396,0.001736,STILL,0,-0.000177,1.000000,0.250000,1
8.120970,0.031316,0.022547,-0.019057,1.017678,1.018106,0.000636,0.000208,0.000767,STILL,0,-0.000153,1.000000,0.250000,1
8.152284,0.031314,0.024487,-0.023881,1.017922,1.018496,-0.000847,0.002593,-0.000154,STILL,0,-0.000157,1.000000,0.250000,1
8.183598,0.031314,0.028609,-0.031601,1.017434,1.018327,0.000403,-0.001367,-0.001370,STILL,0,-0.000200,1.000000,0.250000,1
8.214912,0.031313,0.024487,-0.024846,1.016703,1.017302,0.001555,0.000135,-0.001340,STILL,0,-0.000242,1.000000,0.250000,1
8.248367,0.033455,0.023517,-0.022675,1.015485,1.016010,0.000348,-0.000776,-0.002481,STILL,0,-0.000325,1.000000,0.250000,1
8.279680,0.031314,0.023275,-0.016886,1.021333,1.021738,0.002133,0.000121,-0.000301,STILL,0,-0.000335,1.000000,0.250000,1
8.310994,0.031313,0.020123,-0.018092,1.017922,1.018281,0.001532,-0.001039,0.000289,STILL,0,-0.000326,1.000000,0.250000,1
8.342308,0.031314,0.023760,-0.023881,1.021333,1.021889,-0.002072,-0.001920,0.001160,STILL,0,-0.000289,1.000000,0.250000,1
8.373624,0.031316,0.024245,-0.020504,1.016947,1.017443,0.002120,-0.000395,0.001101,STILL,0,-0.000255,1.000000,0.250000,1
8.404940,0.031316,0.022547,-0.020022,1.020846,1.021291,-0.001524,-0.000097,0.002861,STILL,0,-0.000165,1.000000,0.250000,1
8.436266,0.031326,0.028366,-0.031118,1.021577,1.022445,0.000034,-0.002176,-0.001418,STILL,0,-0.000210,1.000000,0.250000,1
8.467582,0.031316,0.028124,-0.027259,1.020602,1.021354,-0.001179,0.002371,-0.001386,STILL,0,-0.000253,1.000000,0.250000,1
8.498895,0.031313,0.022305,-0.020987,1.019384,1.019844,0.000953,0.002353,-0.000169,STILL,0,-0.000258,1.000000,0.250000,1
8.530210,0.031315,0.022547,-0.018333,1.014023,1.014439,-0.000285,-0.000078,-0.000443,STILL,0,-0.000272,1.000000,0.250000,1
8.561527,0.031317,0.024972,-0.023158,1.017434,1.018004,0.001811,0.001151,-0.001339,STILL,0,-0.000314,1.000000,0.250000,1
8.592843,0.031316,0.023032,-0.021228,1.016947,1.017429,0.000895,-0.001269,0.001087,STILL,0,-0.000280,1.000000,0.250000,1
8.626471,0.033628,0.024729,-0.024364,1.021090,1.021680,0.001191,-0.000967,0.000466,STILL,0,-0.000264,1.000000,0.250000,1
8.657785,0.031314,0.022547,-0.021710,1.014266,1.014749,0.001161,0.000256,-0.001607,STILL,0,-0.000315,1.000000,0.250000,1
8.689102,0.031317,0.024487,-0.024123,1.020602,1.021181,-0.001845,-0.000017,-0.001838,STILL,0,-0.000372,1.000000,0.250000,1
8.720416,0.031314,0.028124,-0.021952,1.015972,1.016598,-0.000292,0.002085,0.000010,STILL,0,-0.000372,1.000000,0.250000,1
8.751729,0.031314,0.024245,-0.020263,1.017922,1.018412,0.001209,-0.002443,0.000009,STILL,0,-0.000372,1.000000,0.250000,1
8.783045,0.031316,0.026669,-0.024846,1.021090,1.021740,0.002070,0.002113,-0.000892,STILL,0,-0.000400,1.000000,0.250000,1
8.814361,0.031316,0.020365,-0.016886,1.019384,1.019727,0.000484,-0.000340,-0.000302,STILL,0,-0.000409,1.000000,0.250000,1
8.845676,0.031316,0.023760,-0.021952,1.020846,1.021358,-0.002210,0.000572,0.001495,STILL,0,-0.000362,1.000000,0.250000,1
8.876990,0.031314,0.028366,-0.029188,1.017191,1.018005,-0.003923,0.003836,0.000254,STILL,0,-0.000354,1.000000,0.250000,1
8.908303,0.031312,0.023760,-0.024123,1.017434,1.017998,0.000332,-0.001621,-0.000350,STILL,0,-0.000365,1.000000,0.250000,1
8.939674,0.031372,0.019638,-0.017851,1.043023,1.043360,-0.011972,0.001701,-0.000354,STILL,0,-0.000376,1.000000,0.250000,1
8.971007,0.031333,0.032245,-0.038114,1.026695,1.027908,-0.004542,0.003262,-0.005081,STILL,0,-0.000536,1.000000,0.250000,1
9.002321,0.031313,0.012850,0.005341,1.039854,1.039948,0.002635,0.003504,0.000153,STILL,0,-0.000531,1.000000,0.250000,1
9.033734,0.031413,0.017699,-0.005066,1.013779,1.013946,-0.003754,-0.003164,0.006114,STILL,0,-0.000339,1.000000,0.250000,1
9.066159,0.032425,0.017214,-0.026776,1.027426,1.027919,-0.000967,0.005905,0.003172,STILL,0,-0.000236,1.000000,0.250000,1
9.100663,0.034505,0.037094,-0.041491,1.027426,1.028932,0.002614,-0.001068,-0.001383,STILL,0,-0.000284,1.000000,0.250000,1
9.136287,0.035624,0.030063,-0.031359,1.017922,1.018848,-0.000767,0.000114,-0.004024,STILL,0,-0.000427,1.000000,0.250000,1
9.168183,0.031895,0.016729,-0.013750,1.024502,1.024730,0.003768,-0.001071,0.071495,STILL,0,0.001853,1.000000,0.250000,1
9.201248,0.033065,0.026184,-0.018574,1.017434,1.017941,0.001927,0.000736,-0.001438,STILL,0,0.001806,1.000000,0.250000,1
9.233456,0.032208,0.021820,-0.016162,1.014510,1.014873,0.001012,0.000386,0.000106,STILL,0,0.001809,1.000000,0.250000,1
9.264800,0.031344,0.027639,-0.027017,1.019384,1.020116,-0.000182,-0.000498,-0.001083,STILL,0,0.001775,1.000000,0.250000,1
9.296168,0.031368,0.020365,-0.015197,1.017678,1.017995,0.000684,0.000700,0.001325,STILL,0,0.001817,1.000000,0.250000,1
9.327503,0.031335,0.023517,-0.020504,1.021333,1.021810,-0.002026,-0.001675,0.003638,STILL,0,0.001931,1.000000,0.250000,1
9.358837,0.031334,0.027881,-0.030636,1.016216,1.017060,-0.000763,-0.001955,0.000854,STILL,0,0.001958,1.000000,0.250000,1
9.390203,0.031367,0.030063,-0.029188,1.020602,1.021462,0.000754,-0.000699,-0.002732,STILL,0,0.001872,1.000000,0.250000,1
9.421561,0.031358,0.024729,-0.024846,1.016460,1.017064,0.001019,0.000170,-0.003507,STILL,0,0.001762,1.000000,0.250000,1
9.452890,0.031329,0.019638,-0.014474,1.021821,1.022112,0.000095,0.001330,-0.001894,STILL,0,0.001703,1.000000,0.250000,1
9.484229,0.031339,0.020608,-0.018092,1.017434,1.017804,-0.000794,0.001321,-0.001255,STILL,0,0.001663,1.000000,0.250000,1
9.515702,0.031472,0.024729,-0.023399,1.018897,1.019465,0.000764,0.001302,0.001159,STILL,0,0.001700,1.000000,0.250000,1
9.547167,0.031465,0.026669,-0.027500,1.018653,1.019373,0.001029,-0.002034,-0.002423,STILL,0,0.001624,1.000000,0.250000,1
9.585349,0.038182,0.022063,-0.020987,1.019140,1.019595,-0.000812,0.001597,-0.001741,STILL,0,0.001557,1.000000,0.250000,1
9.616679,0.031331,0.022547,-0.020263,1.018409,1.018860,0.000080,0.001864,-0.000477,STILL,0,0.001542,1.000000,0.250000,1
9.648030,0.031350,0.025457,-0.024364,1.019140,1.019749,0.001609,0.001211,0.000440,STILL,0,0.001556,1.000000,0.250000,1
9.679417,0.031387,0.024487,-0.022434,1.017922,1.018463,0.001021,0.001232,-0.002258,STILL,0,0.001485,1.000000,0.250000,1
9.710751,0.031334,0.023517,-0.022675,1.019871,1.020394,-0.000506,-0.000601,-0.001646,STILL,0,0.001433,1.000000,0.250000,1
9.742112,0.031361,0.022547,-0.021469,1.018409,1.018885,0.000715,0.000315,-0.001646,STILL,0,0.001382,1.000000,0.250000,1
9.773471,0.031359,0.024972,-0.023640,1.019628,1.020207,0.001326,0.000926,-0.001035,STILL,0,0.001349,1.000000,0.250000,1
9.804846,0.031375,0.025214,-0.023640,1.018165,1.018752,-0.000201,0.000315,-0.000119,STILL,0,0.001346,1.000000,0.250000,1
9.836229,0.031384,0.024002,-0.020745,1.019140,1.019634,0.000409,0.000620,-0.001951,STILL,0,0.001284,1.000000,0.250000,1
9.867561,0.031332,0.024729,-0.022193,1.018897,1.019438,0.001326,-0.000296,-0.002256,STILL,0,0.001214,1.000000,0.250000,1
9.898917,0.031356,0.023517,-0.021710,1.019384,1.019886,0.001020,-0.000296,-0.000729,STILL,0,0.001191,1.000000,0.250000,1
9.930291,0.031374,0.024729,-0.022675,1.019628,1.020179,0.001325,-0.001212,-0.001340,STILL,0,0.001149,1.000000,0.250000,1
9.961667,0.031375,0.024245,-0.022675,1.017922,1.018463,0.000714,0.003064,-0.001645,STILL,0,0.001097,1.000000,0.250000,1
9.993049,0.031382,0.024245,-0.022434,1.019384,1.019919,0.000103,0.000926,-0.001034,STILL,0,0.001065,1.000000,0.250000,1
10.024412,0.031363,0.022790,-0.023399,1.019140,1.019664,0.000409,0.000620,-0.001644,STILL,0,0.001013,1.000000,0.250000,1
10.055769,0.031357,0.024245,-0.021952,1.019628,1.020152,0.001325,0.002147,-0.001950,STILL,0,0.000952,1.000000,0.250000,1
10.087166,0.031397,0.024487,-0.021952,1.019628,1.020158,0.002241,0.000009,-0.000728,STILL,0,0.000929,1.000000,0.250000,1
10.118634,0.031468,0.024002,-0.021469,1.018165,1.018674,0.001630,-0.003045,-0.002865,STILL,0,0.000839,1.000000,0.250000,1
10.149952,0.031317,0.023517,-0.023881,1.018409,1.018961,-0.000814,-0.000296,-0.001949,STILL,0,0.000778,1.000000,0.250000,1
10.181265,0.031313,0.024245,-0.021710,1.019140,1.019660,-0.001425,-0.001212,-0.001643,STILL,0,0.000726,1.000000,0.250000,1
10.212579,0.031314,0.024245,-0.021469,1.017191,1.017706,0.000103,0.001537,-0.003475,STILL,0,0.000618,1.000000,0.250000,1
10.243894,0.031315,0.024487,-0.022193,1.018653,1.019189,-0.002646,0.000926,-0.001337,STILL,0,0.000576,1.000000,0.250000,1
10.275208,0.031314,0.024245,-0.021952,1.019871,1.020396,0.000713,-0.001212,-0.001947,STILL,0,0.000515,1.000000,0.250000,1
10.306522,0.031314,0.023760,-0.021710,1.020115,1.020623,-0.002035,-0.001823,-0.001947,STILL,0,0.000454,1.000000,0.250000,1
10.337856,0.031334,0.023275,-0.022675,1.017678,1.018197,-0.000813,-0.000601,-0.001336,STILL,0,0.000412,1.000000,0.250000,1
10.369183,0.031327,0.025214,-0.022675,1.017922,1.018486,-0.001119,0.000010,-0.002558,STILL,0,0.000332,1.000000,0.250000,1
10.400522,0.031339,0.023760,-0.023399,1.019384,1.019929,-0.000813,0.001842,-0.001641,STILL,0,0.000280,1.000000,0.250000,1
10.431878,0.031356,0.023275,-0.021952,1.017434,1.017937,-0.000508,0.000315,-0.001641,STILL,0,0.000229,1.000000,0.250000,1
10.463215,0.031337,0.023760,-0.020745,1.021821,1.022308,0.000714,-0.000907,-0.000725,STILL,0,0.000206,1.000000,0.250000,1
10.494570,0.031355,0.023517,-0.023158,1.016460,1.016995,0.000408,-0.000296,0.001108,STILL,0,0.000241,1.000000,0.250000,1
10.525916,0.031346,0.023760,-0.020987,1.015485,1.015979,-0.000508,-0.000296,-0.001030,STILL,0,0.000209,1.000000,0.250000,1
10.557524,0.031608,0.024729,-0.022916,1.018897,1.019454,-0.000202,0.000010,-0.001030,STILL,0,0.000176,1.000000,0.250000,1
10.591828,0.034304,0.024972,-0.022193,1.018165,1.018713,0.000103,0.002147,-0.005610,STILL,0,-0.000016,1.000000,0.250000,1
10.627821,0.035993,0.023760,-0.021952,1.018653,1.019166,0.001325,0.002453,0.001109,STILL,0,0.000024,1.000000,0.250000,1
10.660282,0.032460,0.025457,-0.021710,1.015485,1.016036,0.000714,0.000009,0.000193,STILL,0,0.000030,1.000000,0.250000,1
10.691651,0.031369,0.023032,-0.023158,1.018897,1.019420,0.000103,0.000925,-0.001334,STILL,0,-0.000012,1.000000,0.250000,1
10.723007,0.031356,0.022063,-0.021952,1.015972,1.016449,0.001325,-0.001823,-0.002555,STILL,0,-0.000092,1.000000,0.250000,1
10.754324,0.031317,0.022547,-0.021952,1.018409,1.018895,-0.000813,-0.001518,-0.001028,STILL,0,-0.000124,1.000000,0.250000,1
10.785639,0.031315,0.024002,-0.022434,1.014266,1.014798,-0.001729,0.000315,-0.000722,STILL,0,-0.000147,1.000000,0.250000,1
10.816954,0.031315,0.024487,-0.023399,1.018653,1.019216,0.000714,0.002147,-0.002555,STILL,0,-0.000227,1.000000,0.250000,1
10.848267,0.031313,0.024487,-0.022916,1.016947,1.017500,-0.001424,0.001537,-0.001027,STILL,0,-0.000259,1.000000,0.250000,1
10.879581,0.031314,0.024487,-0.023640,1.018165,1.018734,0.000408,0.000315,-0.000111,STILL,0,-0.000263,1.000000,0.250000,1
10.910898,0.031317,0.023032,-0.022675,1.018409,1.018922,-0.000203,0.000620,-0.000416,STILL,0,-0.000276,1.000000,0.250000,1
10.942214,0.031316,0.023760,-0.022434,1.018409,1.018933,-0.001424,0.000926,-0.001027,STILL,0,-0.000308,1.000000,0.250000,1
10.973528,0.031315,0.024002,-0.022675,1.019628,1.020162,-0.001424,-0.000601,-0.000721,STILL,0,-0.000330,1.000000,0.250000,1
11.004850,0.031322,0.014304,-0.011338,1.022796,1.022959,-0.000508,0.003674,-0.001637,STILL,0,-0.000382,1.000000,0.250000,1
11.036165,0.031315,0.021093,-0.031359,1.032544,1.033235,-0.009669,0.000009,-0.001331,STILL,0,-0.000423,1.000000,0.250000,1
11.067479,0.031313,0.025942,-0.024123,1.021577,1.022191,0.001936,-0.003655,-0.001331,STILL,0,-0.000465,1.000000,0.250000,1
11.098797,0.031318,0.024002,-0.020987,1.021577,1.022075,0.001631,0.001842,0.000196,STILL,0,-0.000459,1.000000,0.250000,1
11.130111,0.031314,0.025699,-0.021952,1.014754,1.015316,0.000714,-0.000601,-0.000415,STILL,0,-0.000472,1.000000,0.250000,1
11.161424,0.031313,0.022063,-0.021710,1.022065,1.022533,-0.000813,-0.000295,-0.001026,STILL,0,-0.000504,1.000000,0.250000,1
11.192737,0.031313,0.023760,-0.021228,1.021577,1.022074,0.001020,0.000010,-0.001636,STILL,0,-0.000555,1.000000,0.250000,1
11.224051,0.031315,0.022305,-0.022193,1.016460,1.016946,-0.001423,-0.001822,0.000807,STILL,0,-0.000530,1.000000,0.250000,1
11.255367,0.031315,0.024729,-0.023158,1.018165,1.018729,0.000715,-0.000295,0.000196,STILL,0,-0.000524,1.000000,0.250000,1
11.286681,0.031314,0.022305,-0.019298,1.016216,1.016644,0.001631,-0.000906,-0.001331,STILL,0,-0.000565,1.000000,0.250000,1
11.317997,0.031316,0.024729,-0.023158,1.015485,1.016050,0.000715,-0.001211,-0.000109,STILL,0,-0.000569,1.000000,0.250000,1
11.349310,0.031314,0.024245,-0.024605,1.020846,1.021430,0.001020,-0.002127,0.000196,STILL,0,-0.000563,1.000000,0.250000,1
11.380639,0.031329,0.023032,-0.019539,1.019140,1.019588,0.001631,-0.000905,-0.001025,STILL,0,-0.000595,1.000000,0.250000,1
11.411955,0.031316,0.022547,-0.022193,1.017922,1.018413,-0.000202,-0.001516,-0.001636,STILL,0,-0.000646,1.000000,0.250000,1
11.443270,0.031315,0.023517,-0.023881,1.017678,1.018230,-0.000507,-0.003348,0.000197,STILL,0,-0.000640,1.000000,0.250000,1
11.474584,0.031314,0.025699,-0.025087,1.017191,1.017825,0.002547,-0.002737,-0.001025,STILL,0,-0.000672,1.000000,0.250000,1
11.505901,0.031317,0.023275,-0.022434,1.017434,1.017948,-0.000813,-0.000599,-0.000414,STILL,0,-0.000685,1.000000,0.250000,1
11.537227,0.031326,0.023517,-0.021952,1.017191,1.017699,0.002852,-0.002736,-0.002246,STILL,0,-0.000755,1.000000,0.250000,1
11.568543,0.031316,0.023032,-0.021952,1.017922,1.018419,-0.001118,0.001234,-0.002246,STILL,0,-0.000826,1.000000,0.250000,1
11.599863,0.031320,0.024245,-0.024364,1.019140,1.019720,-0.001423,-0.000904,-0.000413,STILL,0,-0.000839,1.000000,0.250000,1
11.631177,0.031314,0.024002,-0.022916,1.020115,1.020655,0.001020,0.001234,0.000503,STILL,0,-0.000823,1.000000,0.250000,1
11.662493,0.031316,0.024002,-0.022916,1.017434,1.017975,-0.000202,0.002151,-0.000718,STILL,0,-0.000845,1.000000,0.250000,1
11.693810,0.031317,0.026184,-0.023399,1.020115,1.020719,0.002241,0.000623,-0.000413,STILL,0,-0.000858,1.000000,0.250000,1
11.725124,0.031314,0.025699,-0.024605,1.020602,1.021222,0.002547,-0.000598,0.000198,STILL,0,-0.000852,1.000000,0.250000,1
11.756438,0.031314,0.023032,-0.019298,1.019871,1.020314,-0.001119,0.001845,-0.000718,STILL,0,-0.000875,1.000000,0.250000,1
11.787751,0.031312,0.021578,-0.014956,1.024014,1.024351,-0.000202,0.002456,-0.002245,STILL,0,-0.000945,1.000000,0.250000,1
11.819065,0.031314,0.031760,-0.014474,1.038880,1.039466,0.000408,0.000318,0.002336,STILL,0,-0.000872,1.000000,0.250000,1
11.850380,0.031315,0.026184,-0.025811,1.026695,1.027353,-0.001119,-0.000598,-0.001329,STILL,0,-0.000913,1.000000,0.250000,1
11.881695,0.031315,0.024245,-0.024846,1.019140,1.019731,-0.002341,-0.002431,-0.001328,STILL,0,-0.000955,1.000000,0.250000,1
11.913008,0.031313,0.023275,-0.021952,1.016947,1.017450,0.000714,0.000318,-0.001328,STILL,0,-0.000996,1.000000,0.250000,1
11.944324,0.031315,0.024245,-0.023399,1.017434,1.017992,-0.001119,0.000013,-0.001328,STILL,0,-0.001038,1.000000,0.250000,1
11.975638,0.031314,0.025214,-0.023158,1.020359,1.020933,-0.002645,-0.002125,-0.001633,STILL,0,-0.001089,1.000000,0.250000,1
12.006954,0.031317,0.024245,-0.022675,1.017922,1.018463,0.001936,-0.000292,0.000199,STILL,0,-0.001083,1.000000,0.250000,1
12.038272,0.031317,0.023760,-0.019057,1.021333,1.021788,0.001630,0.000624,-0.000411,STILL,0,-0.001096,1.000000,0.250000,1
12.069585,0.031313,0.023517,-0.022434,1.018409,1.018928,0.002546,0.000624,-0.000106,STILL,0,-0.001099,1.000000,0.250000,1
12.100903,0.031317,0.025214,-0.027259,1.021090,1.021765,0.001935,-0.014341,-0.002854,STILL,0,-0.001189,1.000000,0.250000,1
12.132216,0.031313,0.024729,-0.022434,1.021333,1.021879,0.001629,-0.000596,-0.001022,STILL,0,-0.001221,1.000000,0.250000,1
12.163529,0.031313,0.024002,-0.021228,1.019871,1.020375,-0.001119,0.004595,0.000811,STILL,0,-0.001195,1.000000,0.250000,1
12.194844,0.031315,0.024002,-0.022675,1.019140,1.019675,-0.001424,0.004594,-0.000411,STILL,0,-0.001208,1.000000,0.250000,1
12.226158,0.031314,0.024002,-0.022193,1.019384,1.019908,-0.000508,-0.000598,-0.001937,STILL,0,-0.001269,1.000000,0.250000,1
12.259609,0.033451,0.024972,-0.022916,1.018409,1.018973,0.000408,0.001234,-0.001937,STILL,0,-0.001333,1.000000,0.250000,1
12.290923,0.031315,0.025699,-0.024846,1.022308,1.022933,-0.002035,0.005816,-0.000716,STILL,0,-0.001356,1.000000,0.250000,1
12.322239,0.031315,0.023517,-0.021952,1.019140,1.019648,0.000103,0.000623,-0.004380,STILL,0,-0.001493,1.000000,0.250000,1
12.353559,0.031320,0.047035,-0.020745,1.019384,1.020679,0.001935,-0.002734,-0.023009,STILL,0,-0.002214,1.000000,0.250000,1
12.384876,0.031317,0.040246,-0.019298,1.020846,1.021821,-0.001121,-0.016166,-0.008346,STILL,0,-0.002475,1.000000,0.250000,1
12.416192,0.031316,0.040973,-0.024846,1.020115,1.021240,0.015981,-0.028988,0.071062,STILL,0,-0.000250,1.000000,0.250000,1
12.447509,0.031316,0.001212,-0.016886,1.033518,1.033657,0.043161,0.035760,0.009974,STILL,0,0.000063,1.000000,0.250000,1
12.478825,0.031316,0.006788,-0.027500,1.015972,1.016367,0.003455,-0.007307,-0.002243,STILL,0,-0.000008,1.000000,0.250000,1
12.510139,0.031314,0.024245,-0.015921,1.017678,1.018091,0.002843,-0.041509,-0.006824,STILL,0,-0.000221,1.000000,0.250000,1
12.541455,0.031316,-0.015304,-0.019539,1.013535,1.013839,0.006814,-0.020127,0.002033,STILL,0,-0.000158,1.000000,0.250000,1
12.572769,0.031315,0.020850,-0.015921,1.019384,1.019721,0.008035,-0.027760,-0.010183,STILL,0,-0.000476,1.000000,0.250000,1
12.604084,0.031314,0.027881,-0.013991,1.024745,1.025220,0.012308,-0.051574,-0.018427,STILL,0,-0.001054,1.000000,0.250000,1
12.637644,0.033560,0.036852,-0.019057,1.022552,1.023393,0.010169,-0.028661,-0.016591,STILL,0,-0.001610,1.000000,0.250000,1
12.668960,0.031316,0.025214,-0.020745,1.018409,1.018932,0.011389,-0.047591,-0.036133,STILL,0,-0.002742,1.000000,0.250000,1
12.700283,0.031323,0.033942,-0.014956,1.018897,1.019571,-0.001133,0.005248,-0.026048,STILL,0,-0.003558,1.000000,0.250000,1
12.731597,0.031314,0.035155,-0.017368,1.033031,1.033775,-0.069845,0.148472,-0.033679,STILL,0,-0.004612,1.000000,0.250000,1
12.762910,0.031313,0.142558,-0.062478,1.008661,1.020600,-0.082062,0.188789,0.053063,STILL,0,-0.002951,1.000000,0.250000,1
12.794225,0.031315,-0.068620,-0.017368,0.957729,0.960341,0.053550,-0.250117,0.000834,STILL,0,-0.002925,1.000000,0.250000,1
12.825540,0.031315,-0.034063,0.002185,1.057644,1.058195,-0.024030,-0.015545,0.004805,MOVE,0,-0.002774,1.000000,0.250000,1
12.856854,0.031314,0.006788,-0.017368,1.020115,1.020285,0.014147,-0.010657,0.000224,MOVE,0,-0.002767,1.000000,0.250000,1
12.888166,0.031312,0.017456,-0.018574,1.024258,1.024575,0.004065,0.002478,-0.000998,MOVE,0,-0.002799,1.000000,0.250000,1
12.919479,0.031314,0.017214,-0.026535,1.025233,1.025720,0.003759,0.000950,0.001140,MOVE,0,-0.002763,1.000000,0.250000,1
12.950794,0.031314,0.018911,-0.022193,1.017191,1.017608,0.014142,-0.011877,-0.006190,MOVE,0,-0.002957,1.000000,0.250000,1
12.982105,0.031312,0.021335,-0.017609,1.019628,1.020003,0.013528,-0.016149,-0.003142,MOVE,0,-0.003055,1.000000,0.250000,1
13.015820,0.033715,0.024245,-0.023640,1.018165,1.018728,0.005585,-0.008817,-0.005584,MOVE,0,-0.003243,1.000000,0.250000,1
13.047151,0.031331,0.023275,-0.023399,1.017434,1.017969,-0.007853,-0.007288,-0.003751,MOVE,0,-0.003361,1.000000,0.250000,1
13.078466,0.031315,0.018183,-0.020745,1.014754,1.015129,0.004975,-0.014617,-0.002828,MOVE,0,-0.003449,1.000000,0.250000,1
13.112109,0.033643,0.017214,-0.016403,1.019384,1.019661,0.000393,-0.016752,-0.002217,MOVE,0,-0.003524,1.000000,0.250000,1
13.143776,0.031667,0.020365,-0.021228,1.019384,1.019808,0.012304,-0.012779,-0.004660,MOVE,0,-0.003672,1.000000,0.250000,1
13.175104,0.031329,-0.003456,-0.078157,1.027913,1.030886,0.020245,-0.024080,-0.000994,MOVE,0,-0.003703,1.000000,0.250000,1
13.206445,0.031340,0.026184,-0.015921,1.023039,1.023498,-0.013352,-0.007585,-0.002826,STILL,0,-0.003791,1.000000,0.250000,1
13.237764,0.031319,0.026669,-0.025329,1.011829,1.012498,-0.004493,-0.031708,-0.007102,STILL,0,-0.004014,1.000000,0.250000,1
13.269078,0.031314,0.015759,-0.018574,1.025964,1.026253,-0.010905,-0.122712,-0.008322,STILL,0,-0.004274,1.000000,0.250000,1
13.300454,0.031376,0.023517,-0.020263,1.016703,1.017177,0.004671,-0.013366,-0.002213,STILL,0,-0.004344,1.000000,0.250000,1
13.331767,0.031313,0.028609,-0.019539,1.015485,1.016075,0.002533,-0.006340,-0.000380,STILL,0,-0.004356,1.000000,0.250000,1
13.363079,0.031312,0.029336,-0.022916,1.016216,1.016898,-0.003270,-0.000536,-0.001602,STILL,0,-0.004406,1.000000,0.250000,1
13.394393,0.031314,0.029094,-0.022434,1.017191,1.017854,0.002838,-0.000536,-0.004045,STILL,0,-0.004532,1.000000,0.250000,1
13.428128,0.033735,0.027154,-0.019781,1.015485,1.016040,0.000700,-0.003285,-0.002517,STILL,0,-0.004617,1.000000,0.250000,1
13.461652,0.033525,0.027881,-0.018333,1.016947,1.017494,-0.000522,0.000686,-0.002517,STILL,0,-0.004702,1.000000,0.250000,1
13.492964,0.031312,0.027639,-0.018333,1.015972,1.016513,0.001311,-0.000230,-0.002517,STILL,0,-0.004781,1.000000,0.250000,1
13.524279,0.031315,0.028124,-0.020987,1.017922,1.018526,-0.002354,-0.000230,-0.000989,STILL,0,-0.004811,1.000000,0.250000,1
13.555604,0.031325,0.028366,-0.020263,1.014997,1.015596,-0.000521,0.000076,-0.000378,STILL,0,-0.004823,1.000000,0.250000,1
13.586917,0.031313,0.028366,-0.020987,1.017191,1.017803,0.001006,-0.002979,-0.000378,STILL,0,-0.004835,1.000000,0.250000,1
13.618231,0.031314,0.031033,-0.021469,1.016947,1.017647,-0.001437,0.000076,0.000538,STILL,0,-0.004818,1.000000,0.250000,1
13.649545,0.031314,0.028124,-0.021952,1.024502,1.025123,0.002838,-0.000840,-0.000684,STILL,0,-0.004840,1.000000,0.250000,1
13.680875,0.031329,0.027639,-0.019781,1.015728,1.016297,-0.000827,-0.000840,-0.000378,STILL,0,-0.004852,1.000000,0.250000,1
13.712189,0.031314,0.029336,-0.021469,1.017191,1.017840,-0.000216,-0.000230,-0.001294,STILL,0,-0.004892,1.000000,0.250000,1
13.745633,0.033444,0.028366,-0.018333,1.010367,1.010932,0.000090,-0.000535,-0.000989,STILL,0,-0.004925,1.000000,0.250000,1
13.776945,0.031311,0.025699,-0.018092,1.018165,1.018650,0.000090,-0.003283,-0.000378,STILL,0,-0.004937,1.000000,0.250000,1
13.808260,0.031315,0.068612,0.092018,1.203862,1.209322,0.293305,-0.513051,-0.005876,MOVE,0,-0.005121,1.000000,0.250000,1
13.839571,0.031312,-0.044184,0.007041,1.007930,1.008923,-0.016709,-0.020082,0.002982,MOVE,1,-0.005028,1.699991,0.246481,1
13.870886,0.031314,0.046550,-0.015680,1.004275,1.005475,-0.084500,0.151852,0.006647,MOVE,0,-0.004820,1.699991,0.246481,1
13.902203,0.031317,0.027881,-0.018092,1.034737,1.035271,-0.013942,0.021123,0.000843,MOVE,0,-0.004793,1.699991,0.246481,1
13.933523,0.031320,0.033942,-0.032565,1.004518,1.005619,0.094169,-0.064696,0.000538,MOVE,0,-0.004776,1.699991,0.246481,1
13.964836,0.031313,0.050671,-0.016645,0.957485,0.958969,0.045606,-0.014299,-0.017483,MOVE,0,-0.005324,1.699991,0.246481,1
13.996148,0.031312,0.046065,-0.012785,1.021577,1.022695,-0.104350,0.087706,-0.041607,MOVE,0,-0.006626,1.699991,0.246481,1
14.027461,0.031313,0.020850,-0.012785,0.996720,0.997020,-0.122960,0.099296,-0.009534,MOVE,0,-0.006925,1.699991,0.246481,1
14.058774,0.031313,0.040246,-0.010614,1.024502,1.025347,0.028534,0.012550,0.001760,MOVE,0,-0.006870,1.699991,0.246481,1
14.090086,0.031313,0.176501,-0.166928,1.017678,1.046273,0.038614,0.039734,-0.343378,MOVE,0,-0.017622,1.699991,0.246481,1
14.123602,0.033516,0.021820,-0.051864,1.045703,1.047216,0.136657,0.108151,-0.334521,MOVE,0,-0.028834,1.699991,0.246481,1
14.154914,0.031312,0.060369,0.165827,1.113451,1.127349,-0.009339,0.708937,-0.018093,MOVE,0,-0.029400,1.699991,0.246481,1
14.186227,0.031313,-0.032335,-0.071162,1.130510,1.133209,-0.034079,0.943203,0.085449,MOVE,0,-0.026725,1.699991,0.246481,1
14.217540,0.031313,-0.086392,0.016024,0.970888,0.974856,-0.247271,0.692138,0.023141,MOVE,0,-0.026000,1.699991,0.246481,1
14.248852,0.031312,-0.067386,-0.062719,1.028644,1.032755,-0.029803,0.212914,-0.018704,MOVE,0,-0.026586,1.699991,0.246481,1
14.280163,0.031312,-0.035544,-0.011820,1.141963,1.142578,0.002878,0.004914,-0.066962,MOVE,0,-0.028682,1.699991,0.246481,1
14.311479,0.031316,-0.021475,-0.046557,1.226283,1.227354,-0.362419,0.185120,0.065290,MOVE,0,-0.026638,1.699991,0.246481,1
14.342791,0.031312,-0.070842,-0.013750,1.114426,1.116760,-0.081727,-0.772412,0.073537,MOVE,0,-0.024335,1.699991,0.246481,1
14.374106,0.031315,-0.009133,-0.027259,1.052283,1.052676,-0.071037,-0.230269,0.190823,MOVE,1,-0.018359,2.399873,0.233630,1
14.405423,0.031317,-0.044677,-0.039320,1.048384,1.050072,-0.105856,-0.301129,0.169443,MOVE,0,-0.013053,2.399873,0.233630,1
14.436738,0.031315,0.000485,-0.037390,1.083720,1.084365,-0.134872,-0.174069,0.119047,MOVE,0,-0.009325,2.399873,0.233630,1
14.468050,0.031312,-0.014316,-0.028706,1.047896,1.048387,-0.078666,0.088901,0.127588,MOVE,0,-0.005330,2.399873,0.233630,1
14.501512,0.033462,-0.081703,-0.125196,1.069585,1.079983,-0.204504,0.047973,0.095517,MOVE,0,-0.002134,2.399873,0.233630,1
14.532829,0.031317,-0.022709,-0.110723,1.044485,1.050582,-0.075917,-0.294722,0.027406,MOVE,0,-0.001276,2.399873,0.233630,1
14.564142,0.031314,-0.027152,-0.082017,0.969913,0.973754,-0.477256,0.123720,0.243041,MOVE,0,0.006335,2.399873,0.233630,1
14.595454,0.031312,0.014789,-0.139429,1.117837,1.126596,-0.147999,-0.105354,0.149274,MOVE,0,0.011009,2.399873,0.233630,1
14.626771,0.031317,-0.049614,-0.153178,1.054476,1.066698,-0.128146,-0.172244,-0.084688,MOVE,0,0.008357,2.399873,0.233630,1
14.658084,0.031313,-0.025424,-0.079122,1.080308,1.083500,-0.262522,-0.083049,-0.053832,MOVE,0,0.006671,2.399873,0.233630,1
14.689413,0.031329,-0.061709,-0.183573,0.980880,0.999816,-0.464107,-0.269363,-0.044058,MOVE,0,0.005291,2.399873,0.233630,1
14.720728,0.031315,-0.035791,-0.098661,1.033031,1.038349,-0.227397,-0.048841,-0.034285,MOVE,0,0.004217,2.399873,0.233630,1
14.752040,0.031312,-0.002715,-0.141117,1.107602,1.116559,-0.238393,0.022936,-0.101785,MOVE,0,0.001030,2.399873,0.233630,1
14.783351,0.031312,-0.068373,-0.063442,0.996233,1.000590,-0.378892,-0.201862,-0.009239,MOVE,0,0.000741,2.399873,0.233630,1
14.814665,0.031314,0.030063,-0.030153,0.998182,0.999090,-0.122012,0.026599,0.131249,MOVE,0,0.004851,2.399873,0.233630,1
14.845977,0.031312,0.008243,-0.100109,1.008661,1.013650,-0.237771,-0.031128,0.133387,MOVE,0,0.009027,2.399873,0.233630,1
14.879403,0.033426,0.029821,-0.055000,0.969670,0.971686,-0.200814,0.011633,0.272053,MOVE,0,0.018121,2.399873,0.233630,1
14.910719,0.031316,0.069340,-0.041491,0.966258,0.969631,0.003826,-0.147192,0.302291,MOVE,0,0.027588,2.399873,0.233630,1
14.942034,0.031315,0.003152,-0.164516,1.001838,1.015261,-0.049625,0.009189,0.125140,MOVE,0,0.031506,2.399873,0.233630,1
14.973348,0.031314,0.067400,-0.053552,1.091518,1.094908,-0.152556,-0.084578,0.327337,MOVE,0,0.041757,2.399873,0.233630,1
15.004669,0.031321,0.076855,-0.092631,1.104921,1.111458,0.431431,-0.531732,0.252811,MOVE,0,0.049675,2.399873,0.233630,1
15.035994,0.031325,-0.034557,-0.067302,0.965040,0.968001,0.344994,-0.643520,0.200888,MOVE,0,0.055968,2.399873,0.233630,1
15.067307,0.031313,-0.005430,-0.036908,1.011098,1.011786,0.020625,-0.270892,0.281522,MOVE,0,0.064783,2.399873,0.233630,1
15.098619,0.031312,0.049701,-0.087083,1.023039,1.027941,0.196554,-0.068391,0.316036,MOVE,0,0.074679,2.399873,0.233630,1
15.129943,0.031323,0.054793,-0.097696,1.063249,1.069133,0.208160,-0.121230,0.187754,MOVE,0,0.080560,2.399873,0.233630,1
15.161255,0.031312,0.009455,-0.076710,0.980149,0.983191,0.085987,-0.045789,0.034732,MOVE,0,0.081647,2.399873,0.233630,1
15.192567,0.031312,0.045337,-0.049451,1.006955,1.009188,0.306510,-0.113595,0.045728,MOVE,0,0.083079,2.399873,0.233630,1
15.223880,0.031313,0.030063,-0.097214,1.013291,1.018388,0.056360,-0.130699,-0.091106,MOVE,0,0.080226,2.399873,0.233630,1
15.257299,0.033418,0.053338,-0.186226,0.974787,0.993849,-0.150723,0.131362,-0.124704,MOVE,0,0.076059,2.399873,0.233630,1
15.288610,0.031311,0.024245,-0.097696,0.899241,0.904858,-0.309853,-0.485306,0.090932,MOVE,0,0.078906,2.399873,0.233630,1
15.319925,0.031315,-0.037766,-0.197805,0.792746,0.817924,-0.458599,-0.471256,0.191419,MOVE,0,0.084901,2.399873,0.233630,1
15.351238,0.031313,0.128496,-0.221445,0.883157,0.919520,-0.613759,0.138387,0.174315,MOVE,0,0.090359,2.399873,0.233630,1
15.382560,0.031322,0.057460,-0.178748,0.904846,0.924121,-0.612232,-0.058617,0.112312,MOVE,0,0.093877,2.399873,0.233630,1
15.413875,0.031315,0.071279,-0.156556,0.922393,0.938296,-0.395985,-0.061671,0.221352,MOVE,0,0.100808,2.399873,0.233630,1
15.445189,0.031314,0.065460,-0.162586,0.924586,0.941052,-0.056645,-0.074493,0.094589,MOVE,0,0.103770,2.399873,0.233630,1
15.476503,0.031314,0.077583,-0.192257,0.985266,1.006842,0.061557,0.157941,-0.072483,MOVE,0,0.101500,2.399873,0.233630,1
15.507818,0.031315,0.126314,-0.169341,1.024258,1.045818,0.102171,-0.081816,-0.072782,MOVE,0,0.099221,2.399873,0.233630,1
15.539131,0.031313,0.110070,-0.161380,0.965527,0.985089,0.094230,-0.318527,-0.236494,MOVE,0,0.091816,2.399873,0.233630,1
15.570446,0.031315,0.146195,-0.085876,0.936040,0.951272,0.025202,0.041273,-0.313157,MOVE,0,0.082009,2.399873,0.233630,1
15.601759,0.031313,0.121950,-0.103727,0.985754,0.998670,-0.096352,0.012256,-0.140271,MOVE,0,0.077617,2.399873,0.233630,1
15.635299,0.033540,0.156135,-0.070197,0.977712,0.992586,-0.022126,-0.145021,0.034135,MOVE,0,0.078762,2.399873,0.233630,1
15.666613,0.031314,0.116616,-0.106622,0.959191,0.972119,-0.017845,-0.117203,0.005116,MOVE,0,0.078922,2.399873,0.233630,1
15.697930,0.031317,0.125345,-0.121095,0.935552,0.951648,0.011476,-0.182538,0.006950,MOVE,0,0.079140,2.399873,0.233630,1
15.729245,0.031315,0.124375,-0.123025,0.908502,0.925192,0.094859,-0.197809,0.035660,MOVE,0,0.080257,2.399873,0.233630,1
15.760577,0.031332,0.104979,-0.153661,0.910451,0.929276,0.013916,-0.172434,-0.108488,MOVE,0,0.076857,2.399873,0.233630,1
15.791912,0.031335,0.123647,-0.056929,0.852452,0.863252,0.067977,-0.097908,0.113256,MOVE,0,0.080406,2.399873,0.233630,1
15.823455,0.031543,0.115404,-0.033530,0.969182,0.976605,0.082638,0.205081,0.194501,MOVE,0,0.086541,2.399873,0.233630,1
15.854793,0.031338,0.109343,-0.065613,0.993308,1.001460,0.046597,0.098485,0.267499,MOVE,0,0.094924,2.399873,0.233630,1
15.886128,0.031335,0.105706,-0.078157,0.976006,0.984820,0.001698,-0.023688,0.276662,MOVE,0,0.103594,2.399873,0.233630,1
15.917465,0.031337,0.069582,-0.038355,0.965527,0.968790,0.158080,0.009299,0.218324,MOVE,0,0.110435,2.399873,0.233630,1
15.948800,0.031334,0.076855,-0.088047,0.984292,0.991206,0.246655,0.040147,0.155711,MOVE,0,0.115314,2.399873,0.233630,1
15.980136,0.031336,0.071764,-0.139429,0.978687,0.991170,0.197786,-0.029491,0.134941,MOVE,0,0.119543,2.399873,0.233630,1
16.011475,0.031339,0.069097,-0.081052,0.952855,0.958789,0.221610,-0.009638,0.211605,MOVE,0,0.126174,2.399873,0.233630,1
16.042816,0.031341,0.096009,-0.164999,0.995258,1.013400,0.181904,0.017240,0.038730,MOVE,0,0.127388,2.399873,0.233630,1
16.074178,0.031363,0.065460,-0.184297,0.966745,0.986330,0.157774,-0.075612,-0.192177,MOVE,0,0.121361,2.399873,0.233630,1
16.105679,0.031501,0.046550,-0.119889,0.954317,0.962944,0.183431,-0.180375,-0.231272,MOVE,0,0.114076,2.399873,0.233630,1
16.137012,0.031333,0.035397,-0.222169,0.961628,0.987593,0.262538,-0.089051,-0.402620,MOVE,0,0.101460,2.399873,0.233630,1
16.168445,0.031433,0.063278,-0.169823,0.997207,1.013542,0.197786,0.140635,-0.436523,MOVE,0,0.087739,2.399873,0.233630,1
16.199808,0.031363,0.081219,-0.160415,0.997939,1.014007,0.239325,0.143994,-0.473786,MOVE,0,0.072880,2.399873,0.233630,1
16.231147,0.031339,0.047519,-0.207213,0.936771,0.960591,0.342561,-0.009944,-0.438967,MOVE,0,0.059123,2.399873,0.233630,1
16.262485,0.031338,0.045337,-0.194187,0.980392,1.000467,0.286362,0.201721,-0.511965,MOVE,0,0.043079,2.399873,0.233630,1
16.293819,0.031335,0.070309,-0.188397,1.086401,1.104854,0.212141,0.263113,-0.454849,MOVE,0,0.028827,2.399873,0.233630,1
16.325153,0.031334,0.093584,-0.251116,1.101022,1.133167,0.245739,0.110702,-0.497304,MOVE,0,0.013244,2.399873,0.233630,1
16.356490,0.031337,0.082432,-0.205524,1.055451,1.078430,0.151055,0.023349,-0.476229,MOVE,0,-0.001679,2.399873,0.233630,1
16.387830,0.031339,0.064248,-0.217827,0.918250,0.945917,0.092717,0.198972,-0.476535,MOVE,0,-0.016614,2.399873,0.233630,1
16.419165,0.031336,0.081462,-0.142565,0.992090,1.005586,0.091190,0.540751,-0.421251,MOVE,0,-0.029814,2.399873,0.233630,1
16.450761,0.031596,0.075886,-0.210831,1.122224,1.144376,-0.110395,0.625662,-0.347948,MOVE,0,-0.040807,2.399873,0.233630,1
16.482097,0.031336,0.068612,-0.162586,1.062762,1.077314,-0.097567,0.361768,-0.272506,MOVE,0,-0.049347,2.399873,0.233630,1
16.513436,0.031339,0.067400,-0.122060,1.067392,1.076461,-0.195917,0.355354,-0.269451,MOVE,0,-0.057791,2.399873,0.233630,1
16.544978,0.031542,0.013819,-0.120130,1.042779,1.049767,-0.267693,-0.048123,-0.367801,MOVE,0,-0.069392,2.399873,0.233630,1
16.576312,0.031334,0.041701,-0.092390,0.971863,0.977135,0.013610,-0.201450,-0.225469,MOVE,0,-0.076457,2.399873,0.233630,1
16.607650,0.031338,-0.036779,-0.192016,0.945787,0.965783,-0.033732,-0.209697,0.011547,MOVE,0,-0.076095,2.399873,0.233630,1
16.638982,0.031332,-0.058994,-0.183332,0.964308,0.983352,0.007202,0.158633,-0.079462,MOVE,0,-0.078585,2.399873,0.233630,1
16.670321,0.031339,-0.050848,-0.143288,0.976981,0.988741,0.232611,0.380377,0.015528,MOVE,0,-0.078098,2.399873,0.233630,1
16.701662,0.031341,-0.092317,-0.223134,1.029619,1.057557,-0.132076,0.831196,0.080585,MOVE,0,-0.075573,2.399873,0.233630,1
16.733001,0.031338,-0.086639,-0.148836,1.048140,1.062194,-0.258525,0.804623,-0.059608,MOVE,0,-0.077441,2.399873,0.233630,1
16.764333,0.031332,-0.099722,-0.172235,1.039854,1.058729,-0.072822,0.484224,-0.109699,MOVE,0,-0.080878,2.399873,0.233630,1
16.795920,0.031587,-0.140943,-0.156073,0.935065,0.958421,-0.198965,0.425886,-0.145435,MOVE,0,-0.085472,2.399873,0.233630,1
16.827367,0.031447,-0.116260,-0.087083,0.899972,0.911620,-0.274102,0.406644,-0.124360,MOVE,0,-0.089382,2.399873,0.233630,1
16.858706,0.031339,-0.103918,-0.125437,0.991602,1.004893,-0.011735,0.636024,-0.128942,MOVE,0,-0.093423,2.399873,0.233630,1
16.890063,0.031356,0.085099,-0.034495,1.098342,1.102173,0.192599,0.479337,-0.245006,MOVE,0,-0.101106,2.399873,0.233630,1
16.921459,0.031397,-0.085405,-0.139429,1.072022,1.084420,0.163278,0.165963,-0.102369,MOVE,0,-0.104320,2.399873,0.233630,1
16.952795,0.031335,-0.059734,-0.117477,1.000376,1.009019,0.143730,0.301270,-0.326862,MOVE,0,-0.114562,2.399873,0.233630,1
16.984125,0.031330,0.026669,-0.005548,1.040098,1.040455,0.181604,0.288747,-0.100231,MOVE,0,-0.117702,2.399873,0.233630,1
17.015460,0.031335,-0.048873,0.519333,1.011342,1.137940,-0.255165,0.187954,0.428778,MOVE,0,-0.104267,2.399873,0.233630,1
17.046791,0.031331,-0.277937,-0.437584,0.995745,1.122603,0.483066,0.001946,-0.815860,MOVE,0,-0.129828,2.399873,0.233630,1
17.078124,0.031332,-0.012589,0.043460,1.051064,1.052038,0.398155,0.334868,-0.533640,MOVE,0,-0.146549,2.399873,0.233630,1
17.109468,0.031344,-0.057760,-0.140635,1.117837,1.128129,0.367307,0.014163,-0.410856,MOVE,0,-0.159427,2.399873,0.233630,1
17.140826,0.031358,-0.056772,-0.093113,1.065930,1.071494,-0.204158,-0.133361,-0.234010,MOVE,0,-0.166765,2.399873,0.233630,1
17.172155,0.031329,-0.063930,0.030349,1.010611,1.013086,-0.193773,0.253928,-0.018375,MOVE,0,-0.167340,2.399873,0.233630,1
17.203485,0.031330,-0.035297,-0.059824,1.057888,1.060166,0.034996,0.060894,-0.229429,MOVE,0,-0.174528,2.399873,0.233630,1
17.234814,0.031329,-0.067139,-0.073815,0.941401,0.946674,-0.126578,-0.124809,0.041184,MOVE,0,-0.173238,2.399873,0.233630,1
17.266296,0.031482,-0.072323,0.007041,0.940670,0.943472,-0.095118,-0.113202,0.116932,MOVE,0,-0.169557,2.399873,0.233630,1
17.297630,0.031333,-0.052576,-0.047280,1.067392,1.069732,0.068594,0.222468,0.103798,MOVE,0,-0.166304,2.399873,0.233630,1
17.328962,0.031332,-0.127861,-0.064407,1.052527,1.062219,0.082033,-0.006301,0.069895,MOVE,0,-0.164114,2.399873,0.233630,1
17.360292,0.031330,-0.137981,-0.004583,0.951636,0.961598,-0.134214,-0.027681,0.203369,MOVE,0,-0.157743,2.399873,0.233630,1
17.391629,0.031337,-0.005184,-0.040767,1.072510,1.073297,-0.053885,0.341587,0.111434,MOVE,0,-0.154251,2.399873,0.233630,1
17.422961,0.031332,-0.020734,-0.028706,1.064955,1.065544,-0.007764,0.031876,-0.154585,MOVE,0,-0.159094,2.399873,0.233630,1
17.454292,0.031331,-0.022709,0.002671,1.017922,1.018178,-0.075867,0.101202,0.006696,MOVE,0,-0.158884,2.399873,0.233630,1
17.485624,0.031332,-0.078247,-0.076469,1.090543,1.096018,-0.062123,-0.144061,-0.380287,MOVE,0,-0.170800,2.399873,0.233630,1
17.517052,0.031428,-0.048380,-0.046074,1.070560,1.072643,-0.390463,-0.652606,-0.210161,MOVE,0,-0.177405,2.399873,0.233630,1
17.548976,0.031924,-0.079728,0.060455,0.969670,0.974818,-0.075562,-0.094886,-0.000939,MOVE,0,-0.177435,2.399873,0.233630,1
17.580311,0.031334,-0.005430,-0.008684,1.000619,1.000672,0.312337,-0.243937,-0.206495,MOVE,0,-0.183905,2.399873,0.233630,1
17.611670,0.031359,-0.037519,-0.028947,1.030107,1.031196,0.214599,-0.255238,-0.154877,MOVE,0,-0.188762,2.399873,0.233630,1
17.643001,0.031331,-0.036532,-0.017609,1.128073,1.128801,0.204520,-0.368859,-0.164957,MOVE,0,-0.193930,2.399873,0.233630,1
17.674331,0.031330,-0.093798,-0.000724,1.004031,1.008403,0.196884,-0.590298,-0.030566,MOVE,0,-0.194888,2.399873,0.233630,1
17.705668,0.031337,-0.199196,-0.150043,1.146594,1.173401,0.244226,-1.495600,-1.164027,MOVE,0,-0.231365,2.399873,0.233630,1
17.737002,0.031334,-0.101943,-0.010855,1.088350,1.093168,0.412214,-0.138257,-0.914794,MOVE,0,-0.260029,2.399873,0.233630,1
17.768336,0.031334,-0.135760,0.021609,1.136846,1.145127,0.382587,-0.513023,-0.783763,MOVE,0,-0.284587,2.399873,0.233630,1
17.799671,0.031336,-0.145386,-0.022434,0.929216,0.940788,0.331580,-0.161776,-0.331417,MOVE,0,-0.294972,2.399873,0.233630,1
17.831007,0.031336,-0.203886,-0.068267,0.950661,0.974673,-0.083809,0.174811,-0.208633,MOVE,0,-0.301510,2.399873,0.233630,1
17.862342,0.031335,-0.147361,-0.039561,0.948712,0.960903,-0.429558,-0.449493,-0.198860,MOVE,0,-0.307741,2.399873,0.233630,1
17.893676,0.031334,-0.085652,-0.023399,0.820527,0.825317,-0.194681,-0.463543,-0.147547,MOVE,0,-0.312364,2.399873,0.233630,1
17.925010,0.031334,-0.064177,-0.022675,0.905821,0.908375,-0.080754,-0.049377,0.342672,MOVE,0,-0.301627,2.399873,0.233630,1
17.956341,0.031331,-0.013823,-0.043903,1.051308,1.052315,-0.076173,-0.122986,0.325874,MOVE,0,-0.291417,2.399873,0.233630,1
17.987669,0.031328,0.002182,-0.103727,1.007686,1.013013,-0.069148,-0.119015,0.516158,MOVE,0,-0.275247,2.399873,0.233630,1
18.019003,0.031334,-0.114532,-0.204318,1.005006,1.031940,-0.347702,-0.536542,0.606261,MOVE,0,-0.256250,2.399873,0.233630,1
18.050342,0.031338,0.006304,-0.011820,0.915325,0.915423,-0.328460,-0.301359,0.975529,MOVE,0,-0.225679,2.399873,0.233630,1
18.081675,0.031333,-0.015304,-0.240985,0.949930,0.980141,-0.115268,0.089595,0.954759,MOVE,0,-0.195763,2.399873,0.233630,1
18.113013,0.031338,0.040246,-0.316247,1.157316,1.200422,-0.319603,0.193442,0.664904,MOVE,0,-0.174926,2.399873,0.233630,1
18.144347,0.031334,0.222565,0.123581,1.113207,1.141945,-0.209341,-0.223779,0.638026,MOVE,0,-0.154935,2.399873,0.233630,1
18.175683,0.031337,0.253114,-0.001447,1.165846,1.193007,0.393888,-0.603126,0.870155,MOVE,0,-0.127667,2.399873,0.233630,1
18.207019,0.031335,0.173349,-0.161380,0.917519,0.947594,0.301647,-0.537152,0.823729,MOVE,0,-0.101855,2.399873,0.233630,1
18.238395,0.031376,0.068855,-0.097696,0.879258,0.887345,0.163592,-0.094581,0.864046,MOVE,0,-0.074744,2.399873,0.233630,1
18.269765,0.031370,0.093342,-0.010373,0.929460,0.934193,0.341048,0.216044,1.085179,MOVE,0,-0.040702,2.399873,0.233630,1
18.301101,0.031336,0.068612,-0.150525,0.945056,0.959425,0.476355,0.326000,0.920245,MOVE,0,-0.011865,2.399873,0.233630,1
18.332434,0.031333,0.076855,-0.156797,0.959922,0.975675,0.372508,0.202911,0.645967,MOVE,0,0.008375,2.399873,0.233630,1
18.363763,0.031329,0.072491,-0.136293,0.986485,0.998490,-0.005923,0.230400,0.797462,MOVE,0,0.033358,2.399873,0.233630,1
18.395096,0.031333,0.078310,-0.098420,0.975762,0.983835,-0.157723,0.295457,0.939488,MOVE,0,0.062795,2.399873,0.233630,1
18.428315,0.033219,0.025942,-0.157521,0.962359,0.975510,-0.300055,0.242617,0.873209,MOVE,0,0.091803,2.399873,0.233630,1
18.459642,0.031327,-0.003703,-0.240985,0.910939,0.942283,-0.294252,0.119528,0.461180,MOVE,0,0.106250,2.399873,0.233630,1
18.490972,0.031330,0.040004,-0.183573,0.925073,0.943960,-0.228889,-0.045101,0.179571,MOVE,0,0.111876,2.399873,0.233630,1
18.522302,0.031330,0.066915,-0.184297,1.021577,1.040223,-0.256378,0.035228,0.084887,MOVE,0,0.114536,2.399873,0.233630,1
18.553640,0.031338,0.056005,-0.235678,1.021090,1.049431,-0.156807,-0.160249,-0.470084,MOVE,0,0.099804,2.399873,0.233630,1
18.584979,0.031339,0.075886,-0.083947,0.990140,0.996586,-0.131456,0.017208,-0.472833,MOVE,0,0.084986,2.399873,0.233630,1
18.616347,0.031368,0.113950,-0.079605,1.120031,1.128623,0.068602,0.287516,-0.445344,MOVE,0,0.071016,2.399873,0.233630,1
18.647674,0.031327,0.106191,-0.013267,1.115888,1.121008,0.144350,-0.216143,-0.149380,MOVE,0,0.066337,2.399873,0.233630,1
18.679009,0.031335,0.097463,-0.100832,0.980392,0.990371,0.072878,-0.343508,0.024106,MOVE,0,0.067092,2.399873,0.233630,1
18.710346,0.031337,0.123890,-0.065131,0.904846,0.915608,-0.039518,-0.138246,0.010666,MOVE,0,0.067426,2.399873,0.233630,1
18.741682,0.031336,0.113950,-0.037631,0.962602,0.970054,-0.012334,0.112820,0.346948,MOVE,0,0.078298,2.399873,0.233630,1
18.773018,0.031336,0.094796,-0.125437,0.984292,0.996770,0.075325,0.052650,0.380851,MOVE,0,0.090233,2.399873,0.233630,1
18.804354,0.031336,0.053581,-0.159933,1.005006,1.019061,0.148323,-0.097318,0.268146,MOVE,0,0.098635,2.399873,0.233630,1
18.835693,0.031339,0.026427,-0.150284,1.096879,1.107442,0.063719,0.030048,0.199729,MOVE,0,0.104895,2.399873,0.233630,1
18.867026,0.031333,0.057217,-0.209867,1.115157,1.136174,-0.028217,0.009889,-0.075771,MOVE,0,0.102521,2.399873,0.233630,1
18.898357,0.031331,0.031760,-0.138222,1.040829,1.050447,-0.082584,-0.093042,-0.223295,MOVE,0,0.095525,2.399873,0.233630,1
18.929695,0.031338,0.071037,-0.057412,0.998426,1.002595,-0.209949,-0.075938,-0.181756,MOVE,0,0.089829,2.399873,0.233630,1
18.961029,0.031333,0.063036,-0.077916,0.992090,0.997139,-0.108536,-0.207565,0.104436,MOVE,0,0.093101,2.399873,0.233630,1
18.992359,0.031330,0.047762,-0.095043,0.977712,0.983481,-0.121357,0.234395,0.039374,MOVE,0,0.094335,2.399873,0.233630,1
19.023694,0.031335,0.077098,-0.085876,1.062518,1.068768,-0.203824,0.426207,0.036320,MOVE,0,0.095473,2.399873,0.233630,1
19.055026,0.031332,0.092129,-0.078881,1.079333,1.086126,-0.203213,0.376116,-0.003081,MOVE,0,0.095376,2.399873,0.233630,1
19.086390,0.031364,0.040004,-0.043662,1.074216,1.075847,-0.104253,0.003794,0.079691,MOVE,0,0.097876,2.399873,0.233630,1
19.117728,0.031338,-0.002222,-0.112411,0.949443,0.956077,0.057316,-0.144940,-0.117303,MOVE,0,0.094200,2.399873,0.233630,1
19.149082,0.031354,0.015032,-0.047280,0.960897,0.962177,-0.085620,0.065809,-0.110869,MOVE,0,0.090723,2.399873,0.233630,1
19.180414,0.031332,0.012850,-0.036184,0.974056,0.974813,-0.068808,0.146117,0.068114,MOVE,0,0.092858,2.399873,0.233630,1
19.211751,0.031337,0.035640,-0.013509,0.983804,0.984542,-0.083163,0.262181,0.145694,MOVE,0,0.097423,2.399873,0.233630,1
19.243089,0.031338,0.024002,-0.059100,1.000376,1.002407,-0.101794,0.216977,0.200366,MOVE,0,0.103702,2.399873,0.233630,1
19.274424,0.031335,0.011395,-0.010373,0.975762,0.975884,-0.047118,0.134805,0.111476,MOVE,0,0.107195,2.399873,0.233630,1
19.305761,0.031337,0.024245,-0.042938,1.013535,1.014734,-0.045285,0.169318,0.086736,MOVE,0,0.109913,2.399873,0.233630,1
19.337095,0.031333,0.008001,-0.095767,1.079821,1.084089,-0.068804,0.236514,0.073602,MOVE,0,0.112220,2.399873,0.233630,1
19.368433,0.031339,-0.002468,0.010926,0.983804,0.983868,0.058867,0.262170,-0.000007,MOVE,0,0.112219,2.399873,0.233630,1
19.399774,0.031340,0.015274,-0.032565,1.042779,1.043399,0.072001,0.232848,0.077267,MOVE,0,0.114641,2.399873,0.233630,1
19.431938,0.032164,-0.021722,-0.049693,1.039367,1.040781,-0.051089,0.120755,0.058025,MOVE,0,0.116507,2.399873,0.233630,1
19.467535,0.035597,-0.068620,-0.065372,0.998182,1.002672,-0.102994,0.113710,0.013428,MOVE,0,0.116985,2.399873,0.233630,1
19.499046,0.031511,-0.071336,-0.017127,0.975031,0.977787,-0.074573,0.097205,0.021060,MOVE,0,0.117649,2.399873,0.233630,1
19.534251,0.035206,-0.077753,-0.066820,0.972350,0.977740,-0.049215,-0.020699,0.015866,MOVE,0,0.118207,2.399873,0.233630,1
19.565588,0.031337,-0.053070,-0.081052,0.951149,0.956070,0.005154,-0.246099,0.047323,MOVE,0,0.119690,2.399873,0.233630,1
19.596921,0.031333,-0.068373,-0.171512,0.915325,0.933762,0.132825,-0.126369,-0.063854,MOVE,0,0.117690,2.399873,0.233630,1
19.628251,0.031330,-0.049367,-0.137981,0.950905,0.962131,0.184748,0.118893,-0.102950,MOVE,0,0.114464,2.399873,0.233630,1
19.659587,0.031336,0.013092,-0.166446,1.025964,1.039460,0.398856,0.055363,-0.123108,MOVE,0,0.110606,2.399873,0.233630,1
19.690924,0.031337,-0.012835,-0.214932,1.037174,1.059288,0.600136,0.086212,-0.309422,MOVE,0,0.100910,2.399873,0.233630,1
19.722266,0.031342,0.027154,-0.172959,1.053258,1.067710,0.517059,0.292684,-0.224512,MOVE,0,0.093873,2.399873,0.233630,1
19.753599,0.031333,0.022547,-0.162104,1.018653,1.031717,0.517975,0.236790,-0.249863,MOVE,0,0.086045,2.399873,0.233630,1
19.784933,0.031334,-0.078247,-0.248463,1.037905,1.070095,0.352431,0.288408,-0.018039,MOVE,0,0.085479,2.399873,0.233630,1
19.816272,0.031340,-0.067139,-0.175854,1.077627,1.093944,0.137406,0.090183,0.110242,MOVE,0,0.088934,2.399873,0.233630,1
19.847608,0.031336,-0.081456,-0.210349,1.053989,1.077856,0.097089,-0.109570,0.124598,MOVE,0,0.092839,2.399873,0.233630,1
19.879040,0.031432,-0.034063,-0.270897,0.998426,1.035084,-0.034858,-0.078111,0.168275,MOVE,0,0.098128,2.399873,0.233630,1
19.910389,0.031348,-0.039987,-0.127609,1.001350,1.010240,-0.087996,0.058107,0.127336,MOVE,0,0.102120,2.399873,0.233630,1
19.941750,0.031362,-0.047639,-0.120613,1.008905,1.017205,0.039981,0.106660,-0.061121,MOVE,0,0.100203,2.399873,0.233630,1
19.973094,0.031343,-0.037766,-0.098903,1.031569,1.036987,0.187505,-0.069269,-0.406566,MOVE,0,0.087460,2.399873,0.233630,1
20.004427,0.031334,-0.076272,-0.093354,0.986729,0.994065,0.300210,-0.146238,-0.879986,MOVE,0,0.059886,2.399873,0.233630,1
20.035764,0.031337,0.066188,-0.039320,0.927754,0.930943,0.109925,-0.012764,-1.127387,MOVE,0,0.024557,2.399873,0.233630,1
20.067103,0.031338,-0.023203,0.033263,1.031081,1.031879,-0.099296,0.236469,-0.949014,MOVE,0,-0.005183,2.399873,0.233630,1
20.098440,0.031338,0.005334,-0.027017,1.074459,1.074812,0.185978,-0.306895,-0.662213,MOVE,0,-0.025935,2.399873,0.233630,1
20.129780,0.031339,-0.059487,-0.136293,0.956023,0.967519,0.098013,-0.669139,-0.373579,MOVE,0,-0.037643,2.399873,0.233630,1
20.161155,0.031375,0.010183,-0.162827,1.019628,1.032597,-0.085246,-0.507870,-0.324099,MOVE,0,-0.047812,2.399873,0.233630,1
20.192484,0.031329,-0.027399,-0.155832,0.914838,0.928419,0.443152,-0.411048,-0.958788,MOVE,0,-0.077850,2.399873,0.233630,1
20.223820,0.031337,-0.204874,-0.058618,1.006224,1.028541,0.112674,0.615511,-0.619452,MOVE,0,-0.097261,2.399873,0.233630,1
20.255154,0.031333,0.052368,-0.054758,0.980392,0.983316,-0.134421,0.262125,-0.497585,MOVE,0,-0.112852,2.399873,0.233630,1
20.286493,0.031339,-0.048873,-0.005307,1.082014,1.083130,-0.132588,-0.640428,-0.118543,MOVE,0,-0.116567,2.399873,0.233630,1
20.317837,0.031344,-0.000247,-0.045350,1.068123,1.069086,-0.157328,-0.526807,0.280047,MOVE,0,-0.107790,2.399873,0.233630,1
20.349175,0.031338,-0.115519,-0.148595,0.900947,0.920397,-0.443519,-0.346907,0.190250,MOVE,0,-0.101827,2.399873,0.233630,1
20.380509,0.031334,-0.024437,-0.160656,0.951636,0.965411,-0.520793,0.048323,0.112059,MOVE,0,-0.098316,2.399873,0.233630,1
20.411850,0.031342,-0.026165,-0.185503,0.960166,0.978271,-0.210474,0.000981,0.014015,MOVE,0,-0.097877,2.399873,0.233630,1
20.443183,0.031332,0.043640,-0.075262,0.896317,0.900529,-0.015913,-0.099812,0.226902,MOVE,0,-0.090768,2.399873,0.233630,1
20.474522,0.031340,0.028124,-0.079846,0.987460,0.991082,-0.107848,0.241051,0.410161,MOVE,0,-0.077913,2.399873,0.233630,1
20.505854,0.031332,0.029336,-0.212520,1.063006,1.084438,-0.157023,-0.166396,0.247366,MOVE,0,-0.070163,2.399873,0.233630,1
20.537550,0.031696,0.072491,-0.075504,0.988191,0.993719,-0.295384,-0.343242,-0.042795,MOVE,0,-0.071519,2.399873,0.233630,1
20.568886,0.031336,0.099160,-0.077675,1.040829,1.048423,-0.071807,-0.072323,-0.309133,MOVE,0,-0.081206,2.399873,0.233630,1
20.600222,0.031336,0.223293,-0.096490,1.045703,1.073622,0.137414,-0.024065,-0.040963,MOVE,0,-0.082490,2.399873,0.233630,1
20.631554,0.031332,0.099888,-0.102280,1.192409,1.200948,0.752250,-0.229621,-0.069673,MOVE,0,-0.084673,2.399873,0.233630,1
20.662890,0.031336,0.039276,-0.137258,1.176325,1.184957,0.722318,-0.552158,-0.517132,MOVE,0,-0.100877,2.399873,0.233630,1
20.694225,0.031335,0.087281,0.011411,0.998426,1.002299,-0.103267,-0.316058,-0.368997,MOVE,1,-0.112440,3.095453,0.155088,1
20.725564,0.031339,0.125345,-0.039561,0.985266,0.993995,0.115423,-0.398831,0.183225,MOVE,0,-0.106698,3.095453,0.155088,1
20.756900,0.031337,0.133588,-0.112894,0.976250,0.991793,0.247370,-0.147765,0.426044,MOVE,0,-0.093347,3.095453,0.155088,1
20.788262,0.031362,0.109343,-0.113617,0.924098,0.937455,-0.067531,0.062373,0.352740,MOVE,0,-0.082285,3.095453,0.155088,1
20.819604,0.031342,0.114677,-0.113376,0.981367,0.994528,-0.177181,0.293890,0.324640,MOVE,0,-0.072110,3.095453,0.155088,1
20.850940,0.031336,0.131891,-0.022193,1.037174,1.045761,0.232098,0.182102,0.406801,MOVE,0,-0.059362,3.095453,0.155088,1
20.882395,0.031456,0.103040,-0.203595,1.015485,1.040806,0.245537,0.219059,0.207354,MOVE,0,-0.052840,3.095453,0.155088,1
20.913731,0.031336,0.102070,-0.123990,1.085669,1.097483,-0.110597,0.195541,0.184446,MOVE,0,-0.047060,3.095453,0.155088,1
20.945071,0.031340,0.104979,-0.002171,1.052770,1.057994,-0.077305,0.120405,0.288599,MOVE,0,-0.038016,3.095453,0.155088,1
20.976404,0.031334,0.118071,-0.068749,1.036443,1.045409,0.025015,0.086807,0.188417,MOVE,0,-0.032112,3.095453,0.155088,1
21.007734,0.031329,0.154196,-0.027017,1.006712,1.018810,-0.309434,0.169274,0.190861,MOVE,0,-0.026132,3.095453,0.155088,1
21.039067,0.031333,0.084129,-0.019298,1.041073,1.044645,-0.153968,0.206537,0.174978,MOVE,0,-0.020650,3.095453,0.155088,1
21.070396,0.031329,0.143528,-0.059824,1.008417,1.020336,0.141385,0.007089,0.200329,MOVE,0,-0.014373,3.095453,0.155088,1
21.101736,0.031339,0.215050,-0.058618,0.933603,0.959842,-0.071807,0.105133,0.077240,MOVE,0,-0.011953,3.095453,0.155088,1
21.133182,0.031446,0.247295,-0.034495,0.885594,0.920121,0.201861,0.296334,0.109310,MOVE,0,-0.008515,3.095453,0.155088,1
21.164565,0.031383,0.150316,-0.116995,0.936283,0.955463,0.379622,0.482648,0.277909,MOVE,0,0.000206,3.095453,0.155088,1
21.195901,0.031337,0.171167,-0.078640,1.011829,1.029214,0.233931,0.505861,0.307841,MOVE,0,0.009853,3.095453,0.155088,1
21.227238,0.031337,0.067400,-0.062960,1.046678,1.050734,-0.056841,0.179964,-0.150308,MOVE,0,0.005143,3.095453,0.155088,1
21.258577,0.031338,0.195654,-0.024846,1.000863,1.020110,-0.098685,-0.311172,-0.133814,MOVE,0,0.000949,3.095453,0.155088,1
21.289915,0.031338,0.211170,0.000243,0.974544,0.997160,-0.270033,-0.121803,-0.173521,MOVE,0,-0.004489,3.095453,0.155088,1
21.321258,0.031343,0.171409,0.015539,1.020602,1.035013,-0.292024,-0.040864,-0.142977,MOVE,0,-0.008970,3.095453,0.155088,1
21.352590,0.031332,0.161469,-0.121337,1.015485,1.035376,-0.053787,-0.593086,-0.175048,MOVE,0,-0.014455,3.095453,0.155088,1
21.383944,0.031354,0.131891,-0.079363,1.068611,1.079640,0.008522,-0.198467,-0.358002,MOVE,0,-0.025679,3.095453,0.155088,1
21.415276,0.031332,0.069824,0.053414,1.265274,1.268324,0.260504,0.219976,-0.366249,MOVE,0,-0.037155,3.095453,0.155088,1
21.446607,0.031331,0.014304,-0.055000,1.114426,1.115874,0.430630,-0.098590,-0.694283,MOVE,0,-0.058907,3.095453,0.155088,1
21.477972,0.031365,-0.057266,-0.086600,0.974544,0.980058,0.200028,-0.423876,-0.573332,MOVE,1,-0.076890,3.793385,0.101318,1
21.509303,0.031331,-0.052576,-0.052828,0.985997,0.988810,0.037843,0.110631,-0.422143,MOVE,0,-0.090116,3.793385,0.101318,1
21.540635,0.031332,-0.065658,-0.096973,1.027426,1.034079,0.253479,-0.093704,-0.318601,MOVE,0,-0.100098,3.793385,0.101318,1
21.571974,0.031339,-0.099722,-0.061030,0.942132,0.949359,0.098930,-0.238173,-0.603264,MOVE,0,-0.119004,3.793385,0.101318,1
21.603307,0.031332,-0.091329,-0.054517,0.973325,0.979120,-0.137781,0.252962,-0.461849,MOVE,0,-0.133475,3.793385,0.101318,1
21.634646,0.031339,-0.104165,-0.041008,0.958703,0.965217,0.208580,0.100857,-0.047682,MOVE,0,-0.134969,3.793385,0.101318,1
21.665974,0.031328,-0.076272,-0.120613,1.036686,1.046462,0.223852,-0.139824,-0.140839,MOVE,0,-0.139382,3.793385,0.101318,1
21.697303,0.031330,-0.128848,-0.064407,0.928972,0.940074,0.230571,-0.156012,-0.255377,MOVE,0,-0.147383,3.793385,0.101318,1
21.728639,0.031336,-0.023449,-0.109034,0.901191,0.908066,0.005773,-0.132799,-0.111212,MOVE,0,-0.150867,3.793385,0.101318,1
21.759932,0.031293,0.013335,0.014810,1.059106,1.059294,-0.212001,-0.034144,-0.043712,MOVE,0,-0.152235,3.793385,0.101318,1
21.794744,0.034812,-0.012342,-0.061513,0.939208,0.941301,-0.191842,-0.033533,-0.009809,MOVE,0,-0.152577,3.793385,0.101318,1
21.826166,0.031422,0.019396,-0.057171,0.968695,0.970574,-0.090431,0.027856,0.021954,MOVE,0,-0.151887,3.793385,0.101318,1
21.857535,0.031369,0.058429,-0.034254,1.001350,1.003638,-0.067519,0.159803,0.179546,MOVE,0,-0.146255,3.793385,0.101318,1
21.888866,0.031331,-0.037272,-0.061513,1.133190,1.135470,0.122155,-0.062552,-0.040976,MOVE,0,-0.147539,3.793385,0.101318,1
21.923816,0.034949,0.008970,0.027436,0.961140,0.961574,0.138648,-0.237871,-0.001575,MOVE,0,-0.147594,3.793385,0.101318,1
21.955153,0.031337,0.019153,-0.051864,0.978930,0.980490,-0.048888,0.037935,0.297749,MOVE,0,-0.138263,3.793385,0.101318,1
21.986492,0.031339,0.008001,-0.190327,1.060812,1.077781,-0.006432,0.032740,0.102569,MOVE,0,-0.135049,3.793385,0.101318,1
22.017822,0.031330,0.015517,-0.078881,0.952611,0.955997,0.003342,-0.140123,0.039341,MOVE,0,-0.133816,3.793385,0.101318,1
22.049570,0.031748,0.044852,-0.027982,0.978443,0.979870,-0.115462,0.006789,-0.024187,MOVE,0,-0.134584,3.793385,0.101318,1
22.080900,0.031331,0.048004,-0.015921,1.029375,1.030617,-0.112102,0.271905,0.013687,MOVE,0,-0.134155,3.793385,0.101318,1
22.112242,0.031341,0.082189,0.004856,1.030107,1.033392,0.123386,0.078872,0.050644,MOVE,0,-0.132568,3.793385,0.101318,1
22.143848,0.031606,0.096978,-0.033772,0.985997,0.991331,-0.046439,0.047404,0.004526,MOVE,0,-0.132425,3.793385,0.101318,1
22.175183,0.031335,0.093827,-0.009649,1.052039,1.056259,-0.135014,0.202869,0.019797,MOVE,0,-0.131804,3.793385,0.101318,1
22.206512,0.031329,0.086553,-0.006996,0.991846,0.995640,0.188437,0.061751,0.129437,MOVE,0,-0.127749,3.793385,0.101318,1
22.237843,0.031331,0.098675,0.008498,0.963577,0.968654,-0.015897,0.025099,0.280932,MOVE,0,-0.118947,3.793385,0.101318,1
22.269173,0.031331,0.102070,-0.028947,0.967476,0.973276,0.064737,0.000359,0.323082,MOVE,0,-0.108825,3.793385,0.101318,1
22.300505,0.031332,0.140619,-0.020263,0.937745,0.948446,0.280372,0.135971,0.318195,MOVE,0,-0.098855,3.793385,0.101318,1
22.331837,0.031332,0.135770,0.017967,1.002325,1.011638,-0.181442,0.146355,0.335604,MOVE,0,-0.088340,3.793385,0.101318,1
22.363176,0.031338,0.093342,0.069439,1.023527,1.030117,0.035721,-0.028963,0.330412,MOVE,0,-0.077986,3.793385,0.101318,1
22.394514,0.031338,0.095524,0.008255,0.935552,0.940452,-0.083093,-0.175876,0.291317,MOVE,0,-0.068856,3.793385,0.101318,1
22.425862,0.031349,0.184259,-0.055723,1.113695,1.130209,-0.015286,0.091988,0.279099,MOVE,0,-0.060107,3.793385,0.101318,1
22.457199,0.031337,0.172137,-0.089254,1.325223,1.339334,0.376584,0.244705,0.149291,MOVE,0,-0.055429,3.793385,0.101318,1
22.488922,0.031723,0.012365,0.161214,1.275266,1.285475,0.368031,0.142079,0.219845,MOVE,0,-0.048455,3.793385,0.101318,1
22.524957,0.036035,-0.070101,0.102458,1.186316,1.192794,0.331990,0.427964,0.554600,MOVE,0,-0.028470,3.793385,0.101318,1
22.557209,0.032252,-0.135019,-0.102280,1.028401,1.042257,0.352760,-0.532010,0.366148,MOVE,1,-0.016661,4.493288,0.089656,1
22.588541,0.031332,-0.004937,-0.180196,0.702334,0.725099,-0.376308,-0.979469,0.274823,MOVE,0,-0.008050,4.493288,0.089656,1
22.619874,0.031333,0.098191,0.024765,0.676015,0.683558,-0.663414,-0.586683,0.287652,MOVE,0,0.000963,4.493288,0.089656,1
22.651206,0.031332,0.067158,0.124310,0.957729,0.968095,-0.497259,-0.326149,0.285514,MOVE,0,0.009909,4.493288,0.089656,1
22.682535,0.031328,0.081947,0.096631,1.033762,1.041497,-0.119744,0.671394,0.379587,MOVE,0,0.021801,4.493288,0.089656,1
22.715588,0.033053,0.032730,0.079879,1.168526,1.171711,0.200044,0.857403,0.445255,MOVE,0,0.036518,4.493288,0.089656,1
22.746922,0.031335,-0.003209,-0.142082,1.212392,1.220693,-0.055298,0.507682,0.117831,MOVE,0,0.040210,4.493288,0.089656,1
22.778256,0.031333,-0.098487,-0.101315,1.124174,1.133018,0.242193,-0.009110,-0.228224,MOVE,0,0.033059,4.493288,0.089656,1
22.809588,0.031332,-0.007652,-0.007719,0.921661,0.921726,0.041829,-0.012164,-0.088031,MOVE,0,0.030301,4.493288,0.089656,1
22.840999,0.031411,-0.010614,0.000486,0.890468,0.890532,-0.306364,-0.134643,-0.172941,MOVE,0,0.024869,4.493288,0.089656,1
22.872328,0.031330,0.041943,0.089105,0.835393,0.841178,-0.197935,0.460340,-0.149728,MOVE,0,0.020178,4.493288,0.089656,1
22.903659,0.031330,0.053823,0.102944,0.994771,1.001530,-0.342710,0.358020,-0.104829,MOVE,0,0.016893,4.493288,0.089656,1
22.934996,0.031337,0.043640,-0.035460,1.096148,1.097590,0.119715,0.343970,-0.117047,MOVE,0,0.013225,4.493288,0.089656,1
22.966328,0.031332,-0.022956,0.009954,0.999157,0.999470,-0.150288,0.247148,-0.362920,MOVE,0,0.001854,4.493288,0.089656,1
22.997694,0.031366,-0.010861,0.060455,1.016216,1.018071,-0.054687,0.281357,-0.193710,MOVE,0,-0.004222,4.493288,0.089656,1
23.029033,0.031339,-0.038506,0.039090,1.037661,1.039111,0.427285,-0.315459,-0.512887,MOVE,0,-0.020295,4.493288,0.089656,1
23.060364,0.031331,0.039519,0.186707,0.757410,0.781083,0.265712,-0.207946,-0.475625,MOVE,0,-0.035197,4.493288,0.089656,1
23.091693,0.031329,0.071037,0.063854,0.876334,0.881524,-0.175639,-0.286443,-0.554121,MOVE,0,-0.052557,4.493288,0.089656,1
23.123025,0.031332,0.061581,0.032291,1.082258,1.084489,-0.131656,-0.178625,-0.698285,MOVE,0,-0.074436,4.493288,0.089656,1
23.154357,0.031332,0.020850,0.024279,1.106140,1.106603,-0.170446,-0.189315,-0.584359,MOVE,0,-0.092745,4.493288,0.089656,1
23.185693,0.031336,0.095039,-0.220480,1.198989,1.222791,-0.151204,-0.075389,-0.509833,MOVE,0,-0.108721,4.493288,0.089656,1
23.217025,0.031332,-0.065411,-0.029671,1.138552,1.140815,0.614210,-0.774218,-0.086503,MOVE,0,-0.111431,4.493288,0.089656,1
23.248355,0.031330,-0.101203,0.030835,0.985997,0.991657,0.478598,-0.164880,-0.160724,MOVE,1,-0.116467,5.188545,0.008313,1
23.279684,0.031329,-0.094785,0.118968,1.095417,1.105928,0.083979,-0.131588,-0.283813,MOVE,0,-0.125358,5.188545,0.008313,1
23.311015,0.031331,-0.104905,0.093961,0.990871,1.000830,-0.076984,-0.614477,0.166089,MOVE,0,-0.120155,5.188545,0.008313,1
23.342347,0.031332,-0.022709,-0.216138,0.805174,0.833989,0.142928,-0.251318,0.026201,MOVE,0,-0.119334,5.188545,0.008313,1
23.373675,0.031328,-0.018019,-0.112170,0.979174,0.985743,-0.490234,0.456064,0.059799,MOVE,0,-0.117460,5.188545,0.008313,1
23.405007,0.031331,-0.028880,-0.118201,1.135384,1.141885,-0.766651,0.376957,0.201825,MOVE,0,-0.111137,5.188545,0.008313,1
23.436348,0.031341,-0.070348,-0.325655,1.104190,1.153359,-0.573923,-0.092187,-0.337874,MOVE,0,-0.121726,5.188545,0.008313,1
23.467679,0.031331,-0.007405,-0.109034,0.930191,0.936589,-0.762375,-0.149914,-0.468905,MOVE,0,-0.136418,5.188545,0.008313,1
23.499009,0.031330,-0.045171,-0.046557,1.013779,1.015852,-0.608437,0.186062,-0.011978,MOVE,0,-0.136793,5.188545,0.008313,1
23.530343,0.031334,-0.043443,-0.141841,1.005250,1.016136,-0.420901,0.049839,0.111417,MOVE,0,-0.133302,5.188545,0.008313,1
23.561677,0.031334,-0.001728,-0.158485,0.959191,0.972197,-0.222370,-0.014608,0.023147,MOVE,0,-0.132576,5.188545,0.008313,1
23.593028,0.031351,-0.006171,-0.103968,0.919956,0.925833,-0.332631,0.184229,0.050941,MOVE,0,-0.130979,5.188545,0.008313,1
23.624397,0.031369,0.025942,-0.007719,0.995989,0.996357,-0.428231,0.478666,0.218929,MOVE,0,-0.124112,5.188545,0.008313,1
23.655741,0.031344,0.031033,-0.061754,1.049602,1.051875,-0.047357,0.414831,0.227176,MOVE,0,-0.116991,5.188545,0.008313,1
23.687072,0.031331,0.045580,-0.161380,0.960166,0.974699,0.309083,-0.028657,0.099505,MOVE,0,-0.113873,5.188545,0.008313,1
23.719227,0.032155,-0.056279,0.144462,1.032544,1.044118,0.125823,0.118561,0.522224,MOVE,0,-0.097082,5.188545,0.008313,1
23.750881,0.031654,-0.039741,-0.133398,1.041073,1.050337,0.381471,-0.241849,0.447087,MOVE,0,-0.082929,5.188545,0.008313,1
23.785827,0.034946,-0.062449,-0.127850,0.967720,0.978125,0.516777,-0.317597,0.165173,MOVE,0,-0.077157,5.188545,0.008313,1
23.817158,0.031331,-0.025177,-0.049693,0.886325,0.888074,0.357036,-0.325232,0.246113,MOVE,0,-0.069446,5.188545,0.008313,1
23.848492,0.031334,0.016001,-0.002653,0.909720,0.909865,0.171944,-0.123036,0.389666,MOVE,0,-0.057237,5.188545,0.008313,1
23.879822,0.031330,0.001940,-0.014956,0.958216,0.958335,0.152701,-0.047900,0.396080,MOVE,0,-0.044827,5.188545,0.008313,1
23.911152,0.031330,-0.000494,-0.038114,0.967720,0.968471,0.062904,-0.154801,0.356985,MOVE,0,-0.033643,5.188545,0.008313,1
23.942486,0.031334,0.001697,-0.083223,0.946031,0.949686,-0.018341,-0.048511,0.095229,MOVE,0,-0.030659,5.188545,0.008313,1
23.973820,0.031334,0.023760,-0.011579,1.061787,1.062116,-0.283762,0.214467,0.254970,MOVE,0,-0.022670,5.188545,0.008313,1
24.005182,0.031362,0.025214,-0.149801,1.024502,1.035702,-0.212901,0.034567,0.058577,MOVE,0,-0.020833,5.188545,0.008313,1
24.036706,0.031525,0.039761,-0.015921,1.032056,1.032944,-0.297812,0.025099,0.122107,MOVE,0,-0.016983,5.188545,0.008313,1
24.068173,0.031467,0.045337,-0.096973,1.071048,1.076384,-0.071175,-0.020104,0.096443,MOVE,0,-0.013949,5.188545,0.008313,1
24.099503,0.031330,0.057217,-0.043903,1.044972,1.047458,-0.206176,-0.184732,0.228695,MOVE,0,-0.006784,5.188545,0.008313,1
24.130929,0.031425,0.059399,-0.108552,0.972594,0.980434,-0.111186,-0.069584,0.246105,MOVE,0,0.000950,5.188545,0.008313,1
24.162275,0.031346,0.110798,-0.235919,0.958947,0.993737,0.011598,0.065723,0.260155,MOVE,0,0.009105,5.188545,0.008313,1
24.193607,0.031332,0.099888,-0.239537,1.016703,1.049305,0.262663,0.257229,0.029553,MOVE,0,0.010031,5.188545,0.008313,1
24.224949,0.031343,0.045337,-0.111688,1.113695,1.120199,-0.207092,0.471643,-0.156761,MOVE,0,0.005118,5.188545,0.008313,1
24.256280,0.031330,0.040973,0.057056,1.287938,1.289852,0.007627,0.695830,-0.001296,MOVE,0,0.005077,5.188545,0.008313,1
24.287608,0.031328,-0.006665,-0.079605,1.329366,1.331764,0.266023,0.175373,0.170663,MOVE,0,0.010424,5.188545,0.008313,1
24.318947,0.031339,-0.029867,-0.115547,1.111989,1.118375,0.438592,-0.639826,0.155391,MOVE,0,0.015294,5.188545,0.008313,1
24.350281,0.031334,0.032730,-0.168617,0.852695,0.869823,0.237007,-0.670370,0.084836,MOVE,1,0.017952,5.888433,0.020879,1
24.381614,0.031333,0.090432,-0.165481,0.871947,0.892107,0.071462,-0.228103,0.078728,MOVE,0,0.020419,5.888433,0.020879,1
24.413137,0.031523,0.119041,-0.150043,0.959191,0.978126,-0.084000,-0.089734,0.026799,MOVE,0,0.021263,5.888433,0.020879,1
24.444467,0.031330,0.108131,-0.096732,0.995014,1.005536,-0.136831,-0.163030,-0.064827,MOVE,0,0.019232,5.888433,0.020879,1
24.475797,0.031331,0.124860,-0.078157,0.954561,0.965859,-0.182646,-0.118742,-0.105755,MOVE,0,0.015919,5.888433,0.020879,1
24.507158,0.031360,0.120011,-0.060548,0.944082,0.953603,-0.218992,0.134767,-0.153708,MOVE,0,0.011099,5.888433,0.020879,1
24.538490,0.031332,0.088735,-0.031118,0.998913,1.003330,-0.112702,0.315583,-0.173561,MOVE,0,0.005661,5.888433,0.020879,1
24.569830,0.031341,0.061824,-0.060306,1.031081,1.034692,0.171045,0.162867,0.011226,MOVE,0,0.006013,5.888433,0.020879,1
24.601163,0.031333,0.080007,-0.113859,0.921418,0.931867,0.490222,0.124077,0.016113,MOVE,0,0.006517,5.888433,0.020879,1
24.632499,0.031336,0.077583,-0.041973,0.997939,1.001829,0.227856,0.432259,0.008172,MOVE,0,0.006773,5.888433,0.020879,1
24.663829,0.031330,0.060127,-0.169099,1.050090,1.065316,0.374158,0.216318,-0.270688,MOVE,0,-0.001707,5.888433,0.020879,1
24.695162,0.031333,0.041216,-0.067543,0.906796,0.910242,0.350029,-0.123629,-0.329942,MOVE,0,-0.012045,5.888433,0.020879,1
24.726509,0.031347,0.048489,-0.072368,0.938477,0.942511,0.160966,0.401410,-0.605442,MOVE,0,-0.031024,5.888433,0.020879,1
24.758426,0.031917,0.046307,-0.080811,1.041804,1.045959,-0.078188,0.365063,-0.696461,MOVE,0,-0.053253,5.888433,0.020879,1
24.789840,0.031414,0.015759,-0.095284,1.090787,1.095054,-0.291380,0.199824,-0.849789,MOVE,0,-0.079948,5.888433,0.020879,1
24.821171,0.031331,0.002667,-0.085153,1.070560,1.073945,-0.140496,-0.249773,-0.769460,MOVE,0,-0.104056,5.888433,0.020879,1
24.852562,0.031391,-0.011108,-0.026052,1.096636,1.097001,-0.069941,-0.284592,-0.522059,MOVE,0,-0.120444,5.888433,0.020879,1
24.883889,0.031327,0.022063,-0.231577,1.166333,1.189305,-0.142329,-0.396075,-0.480215,MOVE,0,-0.135488,5.888433,0.020879,1
24.915222,0.031332,0.028851,-0.131951,0.880477,0.890776,0.353388,0.724252,-0.365983,MOVE,0,-0.146955,5.888433,0.020879,1
24.946554,0.031332,-0.006418,-0.142323,0.986485,0.996719,-0.074217,0.628041,-0.289931,MOVE,0,-0.156040,5.888433,0.020879,1
24.977889,0.031335,-0.086886,-0.108793,1.186072,1.194216,-0.081242,0.283207,-0.307951,MOVE,0,-0.165689,5.888433,0.020879,1
25.009219,0.031330,-0.075285,-0.051864,0.949687,0.954077,0.071474,-0.222589,-0.207464,MOVE,0,-0.172189,5.888433,0.020879,1
25.040551,0.031332,-0.013576,-0.085394,0.956998,0.960896,-0.375679,-0.087282,-0.056275,MOVE,0,-0.173952,5.888433,0.020879,1
25.071883,0.031332,-0.034557,-0.186226,1.034981,1.052169,-0.196085,-0.223505,0.028941,MOVE,0,-0.173045,5.888433,0.020879,1
25.103213,0.031330,-0.004443,-0.186226,0.937014,0.955351,-0.120337,-0.219535,0.110186,MOVE,0,-0.169593,5.888433,0.020879,1
25.134551,0.031337,-0.003703,-0.178507,0.946519,0.963211,-0.346969,-0.202125,0.080865,MOVE,0,-0.167059,5.888433,0.020879,1
25.165882,0.031331,-0.001234,-0.154385,1.031569,1.043058,-0.143245,-0.558259,0.047573,MOVE,0,-0.165569,5.888433,0.020879,1
25.197211,0.031330,0.050429,-0.104210,0.971863,0.978734,-0.017407,-0.517942,0.187461,MOVE,0,-0.159695,5.888433,0.020879,1
25.228547,0.031336,0.070552,-0.083464,0.922393,0.928844,-0.081548,-0.114160,0.277258,MOVE,0,-0.151007,5.888433,0.020879,1
25.259877,0.031330,0.050186,-0.094802,0.998670,1.004414,-0.190892,0.277710,0.396987,MOVE,0,-0.138570,5.888433,0.020879,1
25.291206,0.031329,-0.018760,-0.098179,1.031081,1.035915,-0.207691,0.187302,0.457158,MOVE,0,-0.124247,5.888433,0.020879,1
25.322538,0.031332,-0.019994,-0.077916,1.001838,1.005062,0.025048,-0.159975,0.544817,MOVE,0,-0.107177,5.888433,0.020879,1
25.353870,0.031332,-0.002468,-0.139911,0.981855,0.991776,0.079110,-0.130654,0.509692,MOVE,0,-0.091208,5.888433,0.020879,1
25.385462,0.031592,0.003637,-0.089495,0.898998,0.903449,-0.043063,-0.192962,0.480065,MOVE,0,-0.076042,5.888433,0.020879,1
25.416853,0.031391,0.013092,-0.051140,0.958216,0.959669,0.061700,0.181193,0.631560,MOVE,0,-0.056216,5.888433,0.020879,1
25.448185,0.031332,-0.011108,-0.133398,1.041317,1.049885,0.302076,0.096894,0.580552,MOVE,0,-0.038026,5.888433,0.020879,1
25.479546,0.031361,0.011880,-0.126885,0.937989,0.946607,0.241906,-0.110801,0.441581,MOVE,0,-0.024178,5.888433,0.020879,1
25.510872,0.031327,0.025942,-0.082740,0.972594,0.976452,0.075445,0.242890,0.481592,MOVE,0,-0.009091,5.888433,0.020879,1
25.542207,0.031335,0.008728,-0.122302,1.034981,1.042218,0.029630,0.342461,0.512441,MOVE,0,0.006966,5.888433,0.020879,1
25.573548,0.031341,0.026911,-0.171994,1.042291,1.056730,0.084302,0.278015,0.504805,MOVE,0,0.022787,5.888433,0.020879,1
25.604881,0.031333,0.052853,-0.244121,1.058375,1.087450,0.332619,0.535800,0.392406,MOVE,0,0.035082,5.888433,0.020879,1
25.636213,0.031332,0.060369,-0.153661,1.028401,1.041568,0.285277,0.568482,0.298027,MOVE,0,0.044420,5.888433,0.020879,1
25.667543,0.031330,0.051883,-0.102521,1.082258,1.088340,0.085219,0.600857,0.290391,MOVE,0,0.053518,5.888433,0.020879,1
25.698873,0.031330,-0.021228,-0.177783,1.134896,1.148933,0.073307,0.270990,0.236635,MOVE,0,0.060932,5.888433,0.020879,1
25.730225,0.031352,-0.041222,-0.175612,1.088107,1.102957,-0.010687,0.087731,0.210063,MOVE,0,0.067518,5.888433,0.020879,1
25.761565,0.031340,-0.029867,-0.195393,1.068123,1.086259,-0.132860,-0.026196,0.201816,MOVE,0,0.073843,5.888433,0.020879,1
25.792900,0.031335,-0.021968,-0.191051,0.989165,1.007686,-0.123086,-0.010008,0.236941,MOVE,0,0.081267,5.888433,0.020879,1
25.824236,0.031336,-0.019006,-0.220963,0.996476,1.020858,0.019253,-0.003898,0.105899,MOVE,0,0.084586,5.888433,0.020879,1
25.856025,0.031789,-0.013082,-0.153661,0.945056,0.957556,-0.003350,-0.060088,0.106492,MOVE,0,0.087971,5.888433,0.020879,1
25.887361,0.031335,-0.048627,-0.179955,0.970645,0.988382,-0.105059,0.052616,0.008753,MOVE,0,0.088245,5.888433,0.020879,1
25.918699,0.031338,-0.074544,-0.190086,1.036930,1.056841,-0.031448,-0.032597,-0.061796,MOVE,0,0.086309,5.888433,0.020879,1
25.950043,0.031344,-0.049861,-0.089495,0.922149,0.927822,0.197932,-0.371932,-0.043165,MOVE,0,0.084956,5.888433,0.020879,1
25.981381,0.031338,-0.036038,-0.132433,0.945300,0.955212,0.078508,-0.211886,-0.098448,MOVE,0,0.081870,5.888433,0.020879,1
26.012716,0.031335,-0.041715,-0.134122,0.963334,0.973520,0.088282,-0.321841,-0.230701,MOVE,0,0.074641,5.888433,0.020879,1
26.044053,0.031337,-0.016044,-0.104451,0.887544,0.893813,0.062015,-0.471198,-0.188245,MOVE,0,0.068742,5.888433,0.020879,1
26.075387,0.031334,0.005091,-0.116995,0.924586,0.931972,0.022614,-0.072914,-0.143041,MOVE,0,0.064260,5.888433,0.020879,1
26.106723,0.031335,0.023275,-0.240985,0.955535,0.985730,0.035748,0.069418,-0.247194,MOVE,0,0.056514,5.888433,0.020879,1
26.138060,0.031337,0.010668,-0.194669,0.978199,0.997438,0.365309,-0.009689,-0.457332,MOVE,0,0.042183,5.888433,0.020879,1
26.169396,0.031336,-0.052329,-0.126644,1.002325,1.011649,0.555899,0.229770,-0.511088,MOVE,0,0.026167,5.888433,0.020879,1
26.200728,0.031332,-0.060475,-0.069956,1.098585,1.102470,0.264211,0.157077,-0.485126,MOVE,0,0.010967,5.888433,0.020879,1
26.232146,0.031418,-0.057760,-0.016886,1.109795,1.111426,0.147536,-0.108649,-0.411822,MOVE,0,-0.001971,5.888433,0.020879,1
26.263479,0.031333,0.004606,-0.045592,1.047653,1.048655,0.122185,-0.426910,-0.291482,MOVE,0,-0.011104,5.888433,0.020879,1
26.294811,0.031332,0.119526,-0.065131,0.922880,0.932864,-0.014343,-0.270834,-0.101503,MOVE,0,-0.014284,5.888433,0.020879,1
26.326147,0.031336,0.074673,-0.120613,0.992577,1.002663,-0.068405,0.169600,-0.237726,MOVE,0,-0.021734,5.888433,0.020879,1
26.357482,0.031335,0.051641,-0.151490,1.059838,1.071854,-0.095588,0.081941,-0.275599,MOVE,0,-0.030370,5.888433,0.020879,1
26.388830,0.031348,0.039761,-0.131227,1.040586,1.049581,0.189991,-0.209137,-0.242918,MOVE,0,-0.037985,5.888433,0.020879,1
26.420170,0.031339,-0.000494,-0.046315,1.061056,1.062067,0.380886,-0.037178,-0.349208,MOVE,0,-0.048929,5.888433,0.020879,1
26.451500,0.031331,-0.010120,0.037876,1.000376,1.001143,0.266655,-0.162100,-0.167171,MOVE,0,-0.054166,5.888433,0.020879,1
26.482909,0.031409,-0.036038,-0.041008,0.967964,0.969502,0.105386,0.147303,-0.252997,MOVE,0,-0.062113,5.888433,0.020879,1
26.514244,0.031335,-0.045665,-0.032565,1.007930,1.009489,-0.175306,0.090493,-0.303699,MOVE,0,-0.071629,5.888433,0.020879,1
26.545584,0.031340,-0.046899,-0.075986,1.007199,1.011150,-0.172863,-0.073525,-0.278959,MOVE,0,-0.080372,5.888433,0.020879,1
26.576921,0.031336,-0.028386,-0.105174,0.983317,0.989333,-0.302061,0.004055,-0.408462,MOVE,0,-0.093171,5.888433,0.020879,1
26.608258,0.031337,-0.011848,-0.128091,1.011586,1.019732,-0.505784,0.140584,-0.496732,MOVE,0,-0.108738,5.888433,0.020879,1
26.639598,0.031340,0.027639,-0.082258,0.957729,0.961652,-0.220510,0.392871,-0.342183,MOVE,0,-0.119462,5.888433,0.020879,1
26.670933,0.031336,0.010910,-0.112411,1.018409,1.024652,-0.256246,0.414862,-0.188856,MOVE,0,-0.125380,5.888433,0.020879,1
26.702269,0.031336,-0.019500,-0.172718,1.025476,1.040103,-0.189662,0.446933,-0.307975,MOVE,0,-0.135030,5.888433,0.020879,1
26.734587,0.032318,-0.053317,-0.123508,1.103216,1.111387,-0.074514,0.310404,-0.347987,MOVE,0,-0.146276,5.888433,0.020879,1
26.765976,0.031389,-0.073557,-0.119648,1.082014,1.091091,0.224810,0.079192,-0.290260,MOVE,0,-0.155387,5.888433,0.020879,1
26.797312,0.031337,-0.081949,-0.114341,0.990140,1.000084,0.301779,-0.086658,-0.192827,MOVE,0,-0.161430,5.888433,0.020879,1
26.828646,0.031334,-0.072817,-0.145459,0.979174,0.992594,0.181439,-0.125754,-0.134184,MOVE,0,-0.165634,5.888433,0.020879,1
26.859983,0.031337,-0.052576,-0.105416,0.965771,0.972928,0.189991,-0.294047,0.054879,MOVE,0,-0.163915,5.888433,0.020879,1
26.891323,0.031340,-0.018513,-0.101315,0.920443,0.926187,0.097750,-0.327645,0.159948,MOVE,0,-0.158902,5.888433,0.020879,1
26.922757,0.031434,-0.009380,-0.130986,0.927267,0.936519,0.103859,-0.261977,0.239360,MOVE,0,-0.151378,5.888433,0.020879,1
26.954333,0.031576,0.005576,-0.165481,0.908989,0.923946,0.038497,-0.236931,0.174914,MOVE,0,-0.145855,5.888433,0.020879,1
26.985672,0.031338,-0.013576,-0.146907,0.946519,0.957947,-0.243112,-0.130335,0.136429,MOVE,0,-0.141579,5.888433,0.020879,1
27.017029,0.031358,-0.014070,-0.072127,1.002325,1.005015,-0.296869,-0.010911,0.269293,MOVE,0,-0.133135,5.888433,0.020879,1
27.048560,0.031531,-0.027646,-0.107828,1.088350,1.094028,-0.156980,-0.032291,0.385662,MOVE,0,-0.120975,5.888433,0.020879,1
27.079931,0.031371,-0.010614,-0.207454,1.041804,1.062311,0.084922,-0.282135,0.359090,MOVE,0,-0.109709,5.888433,0.020879,1
27.111308,0.031377,0.030791,-0.231094,1.160241,1.183432,0.269404,0.256648,0.111689,MOVE,0,-0.106205,5.888433,0.020879,1
27.142796,0.031488,0.020123,-0.053311,1.208736,1.210079,0.609045,-0.327950,-0.085620,MOVE,0,-0.108901,5.888433,0.020879,1
27.174133,0.031336,0.040973,0.193991,1.033518,1.052365,0.491758,-0.818780,0.049381,MOVE,1,-0.107354,6.584403,-0.054124,0
27.205471,0.031338,-0.055785,0.039818,0.913376,0.915944,0.045827,-0.148967,0.224089,MOVE,0,-0.100331,6.584403,-0.054124,0
27.236810,0.031340,0.011637,-0.079363,0.935552,0.938984,-0.202184,-0.098570,-0.003153,MOVE,0,-0.100430,6.584403,-0.054124,0
27.268145,0.031334,0.059884,-0.051381,0.963334,0.966560,-0.219899,-0.063140,0.139484,MOVE,0,-0.096059,6.584403,-0.054124,0
27.299476,0.031331,0.090432,-0.044386,0.971619,0.976828,-0.138031,0.193419,0.131837,MOVE,0,-0.091929,6.584403,-0.054124,0
27.330808,0.031332,0.056975,-0.068267,1.091518,1.095134,-0.261731,0.406611,-0.072803,MOVE,0,-0.094210,6.584403,-0.054124,0
27.362146,0.031338,0.006304,-0.114824,1.144888,1.150649,-0.057091,0.047422,-0.227657,MOVE,0,-0.101344,6.584403,-0.054124,0
27.393958,0.031812,0.030306,0.025008,1.015728,1.016488,0.116394,-0.148971,-0.122894,MOVE,0,-0.105254,6.584403,-0.054124,0
27.425292,0.031334,0.051399,-0.009890,1.024014,1.025351,0.223601,0.011686,-0.037984,MOVE,0,-0.106444,6.584403,-0.054124,0
27.456628,0.031336,0.040488,-0.111205,1.018165,1.025020,0.177786,0.080409,-0.183370,MOVE,0,-0.112190,6.584403,-0.054124,0
27.488322,0.031694,0.033700,-0.088289,1.029375,1.033704,0.078521,-0.056730,-0.268891,MOVE,0,-0.120712,6.584403,-0.054124,0
27.519659,0.031337,0.068612,-0.001206,0.969426,0.971852,0.013158,-0.223497,-0.053561,MOVE,0,-0.122391,6.584403,-0.054124,0
27.550997,0.031338,0.081219,0.059241,0.950905,0.956204,0.086156,-0.096131,-0.100597,MOVE,0,-0.125543,6.584403,-0.054124,0
27.583097,0.032100,0.069824,-0.012303,0.958216,0.960835,-0.090382,-0.187444,-0.005293,MOVE,0,-0.125713,6.584403,-0.054124,0
27.618161,0.035064,0.109586,0.008498,0.876578,0.883442,-0.229354,-0.224401,0.116269,MOVE,0,-0.121636,6.584403,-0.054124,0
27.649639,0.031478,0.111283,-0.115788,0.905334,0.919467,-0.386957,-0.184084,0.008451,MOVE,0,-0.121370,6.584403,-0.054124,0
27.680974,0.031336,0.127042,-0.059824,0.990384,1.000289,-0.387263,-0.007544,-0.004072,MOVE,0,-0.121498,6.584403,-0.054124,0
27.712434,0.031459,0.110555,-0.029912,1.049602,1.055832,-0.341448,0.112186,0.152921,MOVE,0,-0.116687,6.584403,-0.054124,0
27.744635,0.032201,0.068127,-0.061271,1.082014,1.085887,-0.295633,0.122570,0.253408,MOVE,0,-0.108527,6.584403,-0.054124,0
27.775965,0.031330,0.106434,-0.109517,1.027913,1.039196,-0.265090,0.105466,0.312357,MOVE,0,-0.098741,6.584403,-0.054124,0
27.807308,0.031343,0.104252,-0.176577,1.115644,1.134332,0.080965,0.301859,0.173996,MOVE,0,-0.093287,6.584403,-0.054124,0
27.839106,0.031798,0.047277,-0.012061,1.277215,1.278147,0.558662,0.400819,0.005397,MOVE,0,-0.093116,6.584403,-0.054124,0
27.870444,0.031338,0.032488,0.130380,1.288182,1.295170,0.565382,0.124097,0.262266,MOVE,0,-0.084897,6.584403,-0.054124,0
27.901857,0.031413,-0.067633,0.084735,1.118569,1.123810,0.051339,-0.200272,0.253408,MOVE,0,-0.076937,6.584403,-0.054124,0
27.933218,0.031361,0.016971,-0.297432,0.804687,0.858064,-0.128867,-0.173394,-0.122885,MOVE,1,-0.080790,7.282119,-0.110616,0
27.964552,0.031334,0.036852,-0.023881,0.895586,0.896662,-0.517682,0.456408,0.049074,MOVE,0,-0.079253,7.282119,-0.110616,0
27.995918,0.031367,0.052611,-0.146665,0.908014,0.921287,-0.246153,0.234053,-0.056606,MOVE,0,-0.081028,7.282119,-0.110616,0
28.027262,0.031344,0.044610,-0.118924,0.988922,0.997045,-0.258981,0.127763,-0.371202,MOVE,0,-0.092663,7.282119,-0.110616,0
28.058609,0.031347,0.033458,-0.032807,0.972838,0.973966,-0.188426,0.211757,-0.414878,MOVE,0,-0.105668,7.282119,-0.110616,0
28.089943,0.031334,0.015759,0.039818,1.123443,1.124258,0.136249,0.038576,-0.590197,MOVE,0,-0.124162,7.282119,-0.110616,0
28.121273,0.031330,0.022063,0.138149,1.048384,1.057677,0.111203,-0.110780,-0.542244,MOVE,0,-0.141150,7.282119,-0.110616,0
28.152605,0.031332,0.031760,0.116055,0.974300,0.981702,0.131973,-0.282128,-0.100283,MOVE,0,-0.144292,7.282119,-0.110616,0
28.183935,0.031330,0.049217,-0.034978,0.870729,0.872820,0.339972,-0.095203,0.075952,MOVE,0,-0.141912,7.282119,-0.110616,0
28.215266,0.031331,0.054065,-0.099144,0.898023,0.905095,0.098070,0.141507,0.112909,MOVE,0,-0.138375,7.282119,-0.110616,0
28.246597,0.031331,0.062551,-0.026535,0.907771,0.910310,-0.032352,0.152190,0.295240,MOVE,0,-0.129125,7.282119,-0.110616,0
28.277925,0.031328,0.069340,-0.035701,1.017678,1.020662,-0.141392,0.260313,0.403058,MOVE,0,-0.116498,7.282119,-0.110616,0
28.309254,0.031329,0.050914,-0.018092,1.011342,1.012784,-0.422695,-0.241818,0.358159,MOVE,0,-0.105277,7.282119,-0.110616,0
28.340589,0.031335,0.085099,-0.007237,0.952367,0.956189,-0.423001,0.037347,0.277220,MOVE,0,-0.096590,7.282119,-0.110616,0
28.371928,0.031339,0.076128,0.061184,1.063980,1.068454,-0.489890,0.277112,0.608614,MOVE,0,-0.077517,7.282119,-0.110616,0
28.403263,0.031335,0.008001,-0.139429,1.156342,1.164745,-0.624281,-0.071082,0.361519,MOVE,0,-0.066189,7.282119,-0.110616,0
28.434626,0.031363,0.061581,-0.069714,1.160728,1.164449,-0.451406,-0.225020,0.177954,MOVE,0,-0.060607,7.282119,-0.110616,0
28.465959,0.031333,0.120011,-0.043421,0.992821,1.000990,-0.596181,-0.019463,0.091211,MOVE,0,-0.057750,7.282119,-0.110616,0
28.497292,0.031333,0.081704,-0.091425,1.162434,1.168883,-0.736985,0.441740,0.057919,MOVE,0,-0.055935,7.282119,-0.110616,0
28.528627,0.031335,0.050671,-0.192016,1.212148,1.228308,-0.167353,-0.040233,-0.034933,MOVE,0,-0.057029,7.282119,-0.110616,0
28.559977,0.031349,0.000485,-0.106622,1.022796,1.028338,0.142050,-0.443709,-0.237129,MOVE,1,-0.064463,7.980666,-0.155709,0
28.591308,0.031332,0.101827,-0.171994,0.901191,0.923090,-0.254402,-0.234488,-0.483613,MOVE,0,-0.079616,7.980666,-0.155709,0
28.622641,0.031333,0.093099,-0.130021,1.002081,1.014761,-0.310296,0.049564,-0.566996,MOVE,0,-0.097381,7.980666,-0.155709,0
28.653973,0.031332,0.157105,-0.007237,0.924586,0.937866,-0.144141,-0.371322,-0.267061,MOVE,0,-0.105749,7.980666,-0.155709,0
28.685311,0.031338,0.178683,-0.023640,0.899729,0.917605,-0.361914,0.059033,0.135804,MOVE,0,-0.101493,7.980666,-0.155709,0
28.716642,0.031331,0.095039,-0.298396,0.999888,1.047783,-0.157580,-0.022518,0.192004,MOVE,0,-0.095477,7.980666,-0.155709,0
28.747979,0.031338,0.041458,-0.290195,1.064955,1.104564,0.201915,0.112483,-0.155273,MOVE,0,-0.100343,7.980666,-0.155709,0
28.779310,0.031330,0.064491,-0.067302,1.071535,1.075582,0.345162,-0.160879,0.214911,MOVE,0,-0.093610,7.980666,-0.155709,0
28.810638,0.031328,0.092614,-0.099868,0.989165,0.998499,0.385785,-0.192644,0.304403,MOVE,0,-0.084074,7.980666,-0.155709,0
28.841976,0.031338,0.126799,-0.122060,0.910695,0.927546,0.079436,-0.004497,0.194447,MOVE,0,-0.077980,7.980666,-0.155709,0
28.873306,0.031330,0.132618,-0.056929,0.958460,0.969264,-0.222637,0.026046,0.167875,MOVE,0,-0.072720,7.980666,-0.155709,0
28.904637,0.031331,0.171167,-0.078881,0.930435,0.949331,-0.217139,0.057811,0.278747,MOVE,0,-0.063987,7.980666,-0.155709,0
28.935995,0.031358,0.156135,-0.157762,0.941401,0.967214,0.028734,0.109124,0.253090,MOVE,0,-0.056051,7.980666,-0.155709,0
28.967328,0.031333,0.134800,-0.173441,1.005006,1.028732,0.217186,0.081940,0.031652,MOVE,0,-0.055059,7.980666,-0.155709,0
28.998665,0.031337,0.206806,-0.133880,0.884132,0.917814,0.060194,-0.125449,-0.023937,MOVE,0,-0.055809,7.980666,-0.155709,0
29.029997,0.031332,0.191047,-0.164516,1.037174,1.067377,0.128000,0.153411,-0.024853,MOVE,0,-0.056588,7.980666,-0.155709,0
29.061336,0.031339,0.182804,-0.116995,1.022308,1.045093,0.331418,0.040401,0.076245,MOVE,0,-0.054198,7.980666,-0.155709,0
29.092668,0.031332,0.104494,-0.210349,1.222871,1.245222,0.488105,0.100266,0.109232,MOVE,0,-0.050776,7.980666,-0.155709,0
29.123998,0.031330,0.094554,-0.257147,1.244072,1.273884,0.422742,-0.200585,-0.061505,MOVE,0,-0.052703,7.980666,-0.155709,0
29.155330,0.031332,0.095524,-0.135328,1.235543,1.246597,0.215354,0.171126,-0.098463,MOVE,0,-0.055788,7.980666,-0.155709,0
29.186663,0.031332,0.024002,0.037147,1.214341,1.215147,0.125862,0.213276,0.143745,MOVE,0,-0.051284,7.980666,-0.155709,0
29.217995,0.031332,-0.002222,0.046131,1.073728,1.074721,0.025069,0.110651,0.341971,MOVE,1,-0.040569,8.680090,-0.184100,0
29.249331,0.031337,-0.019994,-0.006513,0.956510,0.956741,0.101427,0.151579,0.538670,MOVE,0,-0.023689,8.680090,-0.184100,0
29.280662,0.031331,-0.043937,-0.195152,0.888519,0.910758,0.052558,-0.172180,0.391146,MOVE,0,-0.011434,8.680090,-0.184100,0
29.311992,0.031330,0.017456,-0.162827,0.850258,0.865885,-0.228135,-0.045425,0.289131,MOVE,0,-0.002376,8.680090,-0.184100,0
29.343331,0.031338,0.020608,-0.176095,0.960409,0.976637,-0.283723,0.003139,0.270500,MOVE,0,0.006101,8.680090,-0.184100,0
29.374681,0.031351,-0.041222,-0.175854,1.071048,1.086171,0.101733,-0.179510,0.228045,MOVE,0,0.013251,8.680090,-0.184100,0
29.406017,0.031336,-0.037519,-0.166205,1.017922,1.032083,0.135941,-0.388732,0.023100,MOVE,0,0.013975,8.680090,-0.184100,0
29.438957,0.032940,0.036609,-0.141358,0.943838,0.955067,-0.004252,-0.291909,-0.019661,MOVE,0,0.013327,8.680090,-0.184100,0
29.470572,0.031615,-0.003703,-0.086841,1.036686,1.040324,-0.060447,-0.129714,0.044782,MOVE,0,0.014743,8.680090,-0.184100,0
29.501911,0.031339,-0.000494,-0.102762,0.947737,0.953292,0.087688,-0.521889,0.007519,MOVE,0,0.014978,8.680090,-0.184100,0
29.533467,0.031556,0.058429,-0.150525,0.734259,0.751803,0.233379,-0.428121,0.026761,MOVE,0,0.015823,8.680090,-0.184100,0
29.565320,0.031853,0.102797,-0.000000,0.672116,0.679932,0.103265,-0.241808,0.206355,MOVE,0,0.022396,8.680090,-0.184100,0
29.596657,0.031337,0.102312,-0.181402,0.769107,0.796806,-0.037539,0.054768,0.446425,MOVE,0,0.036385,8.680090,-0.184100,0
29.628056,0.031399,0.103524,-0.161139,0.898023,0.918220,0.544310,-0.204545,0.548745,MOVE,0,0.053616,8.680090,-0.184100,0
29.659569,0.031513,0.128496,-0.023399,0.977955,0.986639,0.690917,0.295754,0.641902,MOVE,0,0.073844,8.680090,-0.184100,0
29.690908,0.031339,0.098918,-0.045592,1.118569,1.123859,0.150912,-0.130630,0.467500,MOVE,0,0.088495,8.680090,-0.184100,0
29.722248,0.031340,0.227899,-0.142565,0.959922,0.996851,-0.058003,-0.247305,0.260417,MOVE,0,0.096656,8.680090,-0.184100,0
29.753584,0.031336,0.203170,-0.158244,1.101753,1.131450,0.152134,0.222145,0.275078,MOVE,0,0.105276,8.680090,-0.184100,0
29.784915,0.031331,0.114919,-0.122060,1.203862,1.215479,0.033626,0.225504,0.249727,MOVE,0,0.113100,8.680090,-0.184100,0
29.816243,0.031328,0.148134,-0.220239,1.198257,1.227302,0.193062,-0.343211,0.084488,MOVE,0,0.115747,8.680090,-0.184100,0
29.847578,0.031335,0.205837,-0.092390,1.088107,1.111252,0.104181,-0.127270,0.035313,MOVE,0,0.116854,8.680090,-0.184100,0
29.878917,0.031339,0.004122,0.093718,1.293787,1.297183,-0.189340,0.506197,0.090902,MOVE,0,0.119702,8.680090,-0.184100,0
29.910255,0.031338,-0.150570,0.140820,1.284039,1.300483,-0.043954,-0.237226,0.146796,MOVE,0,0.124303,8.680090,-0.184100,0
29.941610,0.031355,-0.014810,0.069196,0.900947,0.903722,-0.385122,-0.175223,0.468111,MOVE,1,0.138980,9.373340,-0.087127,0
29.972946,0.031335,-0.000247,-0.092872,0.960897,0.965374,-0.359160,0.206568,0.405497,MOVE,0,0.151687,9.373340,-0.087127,0
30.004606,0.031661,-0.023943,-0.008684,0.972838,0.973171,-0.124893,0.026973,0.475747,MOVE,0,0.166749,9.373340,-0.087127,0
30.035944,0.031338,-0.033816,0.067254,1.038149,1.040874,-0.042426,-0.170336,0.466279,MOVE,0,0.181362,9.373340,-0.087127,0
30.067284,0.031340,0.056247,-0.041491,0.970157,0.972672,0.388844,-0.250970,0.477580,MOVE,0,0.196329,9.373340,-0.087127,0
30.098622,0.031338,0.084371,0.055599,0.916300,0.921855,0.956949,-0.201185,0.455283,MOVE,0,0.210597,9.373340,-0.087127,0
30.129961,0.031339,0.069824,0.144704,0.916544,0.930520,0.158548,-0.195993,0.549967,MOVE,0,0.227832,9.373340,-0.087127,0
30.161295,0.031334,0.134073,-0.032807,0.874872,0.885693,-0.006996,-0.289455,0.460475,MOVE,0,0.242260,9.373340,-0.087127,0
30.192634,0.031339,0.157590,-0.085876,0.842460,0.861364,-0.098015,0.086227,0.256752,MOVE,0,0.250307,9.373340,-0.087127,0
30.223968,0.031334,0.068612,-0.059583,0.989165,0.993331,-0.402531,0.048659,0.042644,MOVE,0,0.251643,9.373340,-0.087127,0
30.255478,0.031510,0.125587,-0.054517,0.912157,0.922375,-0.306931,-0.166060,0.096705,MOVE,0,0.254690,9.373340,-0.087127,0
30.286876,0.031398,0.095039,-0.157762,0.976981,0.994189,-0.385733,0.016894,-0.132369,MOVE,0,0.250534,9.373340,-0.087127,0
30.318215,0.031338,0.044368,-0.019781,1.117350,1.118405,-0.329228,-0.269602,-0.026690,MOVE,0,0.249697,9.373340,-0.087127,0
30.349890,0.031675,0.094311,-0.115306,1.153417,1.162997,-0.226297,-0.002654,0.023401,MOVE,0,0.250439,9.373340,-0.087127,0
30.381516,0.031626,0.065703,-0.340370,1.201913,1.250905,-0.044259,-0.398800,-0.583188,MOVE,0,0.231994,9.373340,-0.087127,0
30.412853,0.031337,0.133588,-0.192739,1.199963,1.222663,0.163130,0.681515,-0.811346,MOVE,0,0.206569,9.373340,-0.087127,0
30.444829,0.031976,-0.106386,0.004127,1.310358,1.314676,0.505520,0.128071,-0.878541,MOVE,0,0.178477,9.373340,-0.087127,0
30.476237,0.031409,-0.054304,0.173354,1.044241,1.059924,0.225743,0.382802,-0.047154,MOVE,1,0.176996,10.062404,0.036125,0
30.511178,0.034940,-0.125393,-0.077916,0.952611,0.963982,0.381209,0.650667,0.325474,MOVE,0,0.188369,10.062404,0.036125,0
30.542525,0.031347,-0.124652,-0.332651,1.073241,1.130505,0.581572,-0.043887,-0.045016,MOVE,0,0.186958,10.062404,0.036125,0
30.573865,0.031340,0.059642,-0.195634,0.684057,0.713978,0.114261,-0.093367,-0.187347,MOVE,0,0.181086,10.062404,0.036125,0
30.605307,0.031442,-0.004196,-0.213244,1.010611,1.032872,-0.056476,0.445721,-0.225832,MOVE,0,0.173985,10.062404,0.036125,0
30.640213,0.034906,-0.041962,-0.211314,0.973082,0.996645,0.511323,-0.437590,-0.237438,MOVE,0,0.165697,10.062404,0.036125,0
30.671546,0.031332,0.128254,-0.056929,0.630444,0.645871,0.038513,0.158004,-0.213004,MOVE,0,0.159023,10.062404,0.036125,0
30.702877,0.031331,0.067158,-0.099626,0.965040,0.972490,-0.175290,0.281093,-0.280810,MOVE,0,0.150225,10.062404,0.036125,0
30.734211,0.031334,0.075643,-0.023158,0.986241,0.989409,-0.009440,-0.035946,-0.304939,MOVE,0,0.140670,10.062404,0.036125,0
30.765548,0.031337,0.088008,-0.015921,0.880964,0.885492,-0.184453,0.082257,-0.217891,MOVE,0,0.133842,10.062404,0.036125,0
30.796885,0.031337,0.077825,-0.051140,0.944813,0.949391,-0.042426,0.226421,0.031953,MOVE,0,0.134844,10.062404,0.036125,0
30.828224,0.031339,0.001212,-0.171029,1.034493,1.048536,0.165573,0.006204,-0.051124,MOVE,0,0.133242,10.062404,0.036125,0
30.859560,0.031336,0.051399,-0.059824,0.930191,0.933529,0.118842,-0.172169,0.148629,MOVE,0,0.137899,10.062404,0.036125,0
30.891012,0.031452,0.080250,-0.054758,1.033518,1.038074,-0.056171,0.183660,0.273856,MOVE,0,0.146512,10.062404,0.036125,0
30.922439,0.031426,0.025457,-0.010855,1.199720,1.200039,0.105708,-0.185608,0.308675,MOVE,0,0.156213,10.062404,0.036125,0
30.953779,0.031340,0.087523,-0.032807,1.071779,1.075847,0.078830,-0.172169,0.212464,MOVE,1,0.162872,10.753140,0.149632,0
30.985485,0.031706,0.079280,-0.037390,1.141720,1.145080,0.120064,-0.207599,0.100676,MOVE,0,0.166064,10.753140,0.149632,0
31.016871,0.031386,0.132860,0.079393,1.193383,1.203378,-0.141387,0.128377,0.007519,MOVE,0,0.166300,10.753140,0.149632,0
31.048203,0.031331,0.036852,0.056085,1.275753,1.277517,-0.036318,0.209011,0.106784,MOVE,0,0.169645,10.753140,0.149632,0
31.079530,0.031327,-0.051835,-0.002171,1.077871,1.079119,0.143582,-0.308697,0.099759,MOVE,0,0.172770,10.753140,0.149632,0
31.110861,0.031331,-0.000987,-0.002412,0.877796,0.877800,-0.144441,-0.120856,0.117780,MOVE,0,0.176461,10.753140,0.149632,0
31.142273,0.031412,-0.019253,-0.063442,0.987216,0.989440,-0.127642,0.192212,0.305010,MOVE,0,0.186042,10.753140,0.149632,0
31.173606,0.031333,-0.080222,-0.068267,1.027913,1.033297,0.064475,-0.133073,0.268358,MOVE,0,0.194450,10.753140,0.149632,0
31.204936,0.031330,-0.048873,0.019909,0.924830,0.926334,-0.138638,-0.309308,0.223154,MOVE,0,0.201442,10.753140,0.149632,0
31.236267,0.031331,0.051883,-0.015680,0.827838,0.829611,-0.087020,-0.067100,0.208799,MOVE,0,0.207983,10.753140,0.149632,0
31.267600,0.031333,0.036609,-0.095767,0.938964,0.944545,-0.060136,0.113401,0.138232,MOVE,0,0.212315,10.753140,0.149632,0
31.298930,0.031330,0.069097,-0.087806,0.860250,0.867476,-0.002104,-0.119644,-0.040446,MOVE,0,0.211047,10.753140,0.149632,0
