t,dt,acc_x_g,acc_y_g,acc_z_g,acc_mag_g,gyro_x_rads,gyro_y_rads,gyro_z_rads,gyro_mag_rads,yaw_rate_used,gyro_bias,hp,state,step,step_count,heading_rad,pos_x_m,pos_y_m,walkable,sf_yaw_deg
0.001199,0.001199,0.004122,-0.060789,1.239686,1.241182,-0.562269,0.742212,0.009677,0.931192,0.009677,0.000000,0.217064,MOVE,0,0,0.000012,1.000000,0.700000,1,118.089
0.166519,0.165320,0.032730,-0.065372,1.000132,1.002800,0.020098,-0.020970,-0.002178,0.029128,-0.002178,0.000000,0.197878,MOVE,0,0,-0.000349,1.000000,0.700000,1,118.031
0.213712,0.047193,0.031760,-0.065855,0.999888,1.002558,0.017930,-0.017879,0.000007,0.025321,0.000007,0.000000,0.180392,MOVE,0,0,-0.000348,1.000000,0.700000,1,118.297
0.261001,0.047289,0.034185,-0.067302,0.999157,1.002005,0.018223,-0.018704,-0.000599,0.026120,-0.000599,0.000000,0.164157,MOVE,0,0,-0.000377,1.000000,0.700000,1,118.739
0.313202,0.052201,0.032488,-0.067543,0.998913,1.001721,0.017014,-0.016611,-0.000279,0.023780,-0.000279,0.000000,0.149290,MOVE,0,0,-0.000391,1.000000,0.700000,1,119.197
0.354019,0.040817,0.032973,-0.068267,0.998670,1.001543,0.015290,-0.016688,-0.002022,0.022724,-0.002022,0.000000,0.135750,MOVE,0,0,-0.000474,1.000000,0.700000,1,119.527
0.401396,0.047377,0.032003,-0.066096,0.999644,1.002338,0.016043,-0.015821,-0.001035,0.022556,-0.001035,0.000000,0.124280,MOVE,0,0,-0.000523,1.000000,0.700000,1,120.170
0.451491,0.050095,0.034185,-0.067543,1.001107,1.003965,0.013192,-0.016608,-0.001259,0.021247,-0.001259,0.000000,0.115420,MOVE,0,0,-0.000586,1.000000,0.700000,1,120.531
0.491140,0.039649,0.032488,-0.068026,1.000376,1.003212,0.014320,-0.014013,-0.000311,0.020038,-0.000311,0.000000,0.106769,MOVE,0,0,-0.000598,1.000000,0.700000,1,120.784
0.534764,0.043624,0.032973,-0.067302,1.000132,1.002936,0.011823,-0.012993,-0.000866,0.017589,-0.000866,0.000000,0.098734,MOVE,0,0,-0.000636,1.000000,0.700000,1,120.130
0.582066,0.047302,0.033458,-0.067784,1.000132,1.002985,0.012703,-0.013841,-0.002034,0.018896,-0.002034,0.000000,0.091547,MOVE,0,0,-0.000732,1.000000,0.700000,1,119.126
0.625009,0.042943,0.031760,-0.067302,1.000376,1.003140,0.010476,-0.011062,0.002196,0.015393,0.002196,0.000000,0.085218,MOVE,0,0,-0.000638,1.000000,0.700000,1,118.101
0.669163,0.044153,0.032488,-0.068026,1.001350,1.004184,0.009952,-0.014698,-0.000851,0.017771,-0.000851,0.000000,0.080462,MOVE,0,0,-0.000675,1.000000,0.700000,1,117.322
0.719166,0.050004,0.034670,-0.068026,1.002569,1.005472,0.012091,-0.011672,-0.001074,0.016840,-0.001074,0.000000,0.077340,MOVE,0,0,-0.000729,1.000000,0.700000,1,116.969
0.763292,0.044126,0.030791,-0.067302,1.003056,1.005783,0.010075,-0.010227,-0.000435,0.014363,-0.000435,0.000000,0.074811,MOVE,0,0,-0.000748,1.000000,0.700000,1,116.838
0.803126,0.039834,0.033215,-0.068749,1.002813,1.005715,0.006853,-0.010011,-0.001035,0.012176,-0.001035,0.000000,0.072473,MOVE,0,0,-0.000789,1.000000,0.700000,1,116.958
0.853114,0.049988,0.032003,-0.068991,1.004275,1.007150,0.008545,-0.007758,-0.001604,0.011652,-0.001604,0.000000,0.071661,MOVE,0,0,-0.000870,1.000000,0.700000,1,116.398
0.901839,0.048726,0.032973,-0.067061,1.006224,1.008995,0.009323,-0.008825,-0.002166,0.013018,-0.002166,0.000000,0.072591,MOVE,0,0,-0.000975,1.000000,0.700000,1,116.362
0.955428,0.053588,0.032973,-0.068026,1.006224,1.009060,0.009536,-0.007496,-0.001202,0.012189,-0.001202,0.000000,0.073486,MOVE,0,0,-0.001040,1.000000,0.700000,1,116.622
1.005486,0.050058,0.032245,-0.067302,1.004275,1.007044,0.007621,-0.008591,-0.000272,0.011488,-0.000272,0.000000,0.072477,MOVE,0,0,-0.001053,1.000000,0.700000,1,116.906
1.059115,0.053630,0.031518,-0.067784,1.005250,1.008025,0.007238,-0.007360,-0.000899,0.010362,-0.000899,0.000000,0.072452,MOVE,0,0,-0.001101,1.000000,0.700000,1,117.091
1.102797,0.043681,0.034912,-0.067543,1.008417,1.011280,0.008036,-0.008246,-0.001424,0.011602,-0.001424,0.000000,0.075358,MOVE,0,0,-0.001164,1.000000,0.700000,1,117.351
1.151148,0.048351,0.032245,-0.067543,1.006712,1.009490,0.007908,-0.009378,0.000173,0.012268,0.000173,0.000000,0.076364,MOVE,0,0,-0.001155,1.000000,0.700000,1,117.856
1.201420,0.050272,0.032973,-0.069232,1.006955,1.009871,0.005764,-0.008333,-0.002458,0.010426,-0.002458,0.000000,0.077611,MOVE,0,0,-0.001279,1.000000,0.700000,1,118.625
1.245074,0.043654,0.030791,-0.068026,1.007686,1.010449,0.002770,-0.006183,-0.001366,0.006912,-0.001366,0.000000,0.079254,MOVE,0,0,-0.001339,1.000000,0.700000,1,119.307
1.297599,0.052525,0.031760,-0.068508,1.007199,1.010026,0.006116,-0.005266,-0.000458,0.008084,-0.000458,0.000000,0.080352,MOVE,0,0,-0.001363,1.000000,0.700000,1,119.768
1.347822,0.050223,0.031518,-0.066820,1.008417,1.011120,0.007029,-0.006502,-0.000410,0.009584,-0.000410,0.000000,0.082325,MOVE,0,0,-0.001383,1.000000,0.700000,1,120.009
1.392492,0.044670,0.032245,-0.067061,1.006955,1.009701,0.004624,-0.004423,-0.000084,0.006399,-0.000084,0.000000,0.082823,MOVE,0,0,-0.001387,1.000000,0.700000,1,119.875
1.442902,0.050410,0.034185,-0.068026,1.008417,1.011287,0.006467,-0.005395,-0.000671,0.008448,-0.000671,0.000000,0.084700,MOVE,0,0,-0.001421,1.000000,0.700000,1,119.733
1.495071,0.052169,0.033458,-0.068749,1.006955,1.009854,0.004089,-0.005462,-0.000938,0.006887,-0.000938,0.000000,0.085098,MOVE,0,0,-0.001470,1.000000,0.700000,1,119.727
1.550458,0.055387,0.032488,-0.068508,1.009149,1.011993,0.005643,-0.003124,-0.002428,0.006891,-0.002428,0.000000,0.087382,MOVE,0,0,-0.001604,1.000000,0.700000,1,119.840
1.597779,0.047322,0.032973,-0.068267,1.009392,1.012235,0.006634,-0.003855,-0.000275,0.007678,-0.000275,0.000000,0.089656,MOVE,0,0,-0.001617,1.000000,0.700000,1,120.248
1.648329,0.050550,0.032730,-0.068267,1.009149,1.011985,0.000695,-0.003929,0.002121,0.004519,0.002121,0.000000,0.091476,MOVE,0,0,-0.001510,1.000000,0.700000,1,120.318
1.693583,0.045254,0.031518,-0.066578,1.009636,1.012320,0.003839,-0.004000,-0.001473,0.005736,-0.001473,0.000000,0.093416,MOVE,0,0,-0.001577,1.000000,0.700000,1,119.801
1.741671,0.048088,0.033700,-0.067784,1.009636,1.012470,0.002427,-0.003506,0.000702,0.004322,0.000702,0.000000,0.095298,MOVE,0,0,-0.001543,1.000000,0.700000,1,119.705
1.785241,0.043570,0.032245,-0.068026,1.009392,1.012196,0.005806,-0.003883,-0.001140,0.007077,-0.001140,0.000000,0.096744,MOVE,0,0,-0.001593,1.000000,0.700000,1,119.917
1.822497,0.037256,0.034185,-0.066578,1.014510,1.017267,0.004402,-0.004896,0.001865,0.006843,0.001865,0.000000,0.102610,MOVE,0,0,-0.001523,1.000000,0.700000,1,119.713
1.872563,0.050066,0.033215,-0.068508,1.011098,1.013961,0.000936,-0.004088,0.000031,0.004194,0.000031,0.000000,0.104913,MOVE,0,0,-0.001521,1.000000,0.700000,1,119.571
1.926236,0.053672,0.033458,-0.068991,1.010855,1.013758,0.005334,-0.002104,0.000665,0.005773,0.000665,0.000000,0.106805,MOVE,0,0,-0.001486,1.000000,0.700000,1,119.164
1.984780,0.058544,0.032730,-0.068508,1.010611,1.013459,0.003323,-0.001369,0.000652,0.003652,0.000652,0.000000,0.108237,MOVE,0,0,-0.001448,1.000000,0.700000,1,118.230
2.034818,0.050038,0.033458,-0.067302,1.012560,1.015346,0.000791,-0.003018,0.001225,0.003352,0.001225,0.000000,0.111225,MOVE,0,0,-0.001386,1.000000,0.700000,1,117.137
2.078573,0.043756,0.033942,-0.068267,1.013535,1.016399,0.002533,-0.001952,-0.000643,0.003262,-0.000643,0.000000,0.114861,MOVE,0,0,-0.001414,1.000000,0.700000,1,116.449
2.124855,0.046281,0.032973,-0.068026,1.014023,1.016837,0.002383,-0.001820,-0.002428,0.003858,-0.002428,0.000000,0.118528,MOVE,0,0,-0.001527,1.000000,0.700000,1,116.034
2.173066,0.048212,0.032973,-0.068026,1.012804,1.015621,0.001064,-0.003181,-0.001126,0.003539,-0.001126,0.000000,0.120734,MOVE,0,0,-0.001581,1.000000,0.700000,1,115.500
2.215641,0.042574,0.032488,-0.067302,1.014266,1.017016,0.000035,-0.003344,-0.001070,0.003511,-0.001070,0.000000,0.123975,MOVE,0,0,-0.001627,1.000000,0.700000,1,114.610
2.259076,0.043436,0.032488,-0.067061,1.013048,1.015785,0.001810,-0.001692,0.000750,0.002589,0.000750,0.000000,0.125784,MOVE,0,0,-0.001594,1.000000,0.700000,1,113.793
2.308553,0.049477,0.032003,-0.066820,1.011829,1.014538,-0.000717,-0.004010,-0.001960,0.004521,-0.001960,0.000000,0.126290,MOVE,0,0,-0.001691,1.000000,0.700000,1,113.178
2.352819,0.044266,0.031518,-0.068508,1.013535,1.016337,0.003747,-0.001449,-0.001007,0.004142,-0.001007,0.000000,0.128364,MOVE,0,0,-0.001736,1.000000,0.700000,1,112.819
2.397066,0.044246,0.033458,-0.067302,1.012560,1.015346,0.002380,-0.001077,-0.001548,0.003037,-0.001548,0.000000,0.129339,MOVE,0,0,-0.001804,1.000000,0.700000,1,112.762
2.449151,0.052085,0.034185,-0.068026,1.013291,1.016147,0.000770,-0.001013,-0.001506,0.001972,-0.001506,0.000000,0.130938,MOVE,0,0,-0.001883,1.000000,0.700000,1,112.806
2.497984,0.048834,0.032003,-0.067543,1.014510,1.017259,0.001618,-0.001669,0.000371,0.002354,0.000371,0.000000,0.133377,MOVE,0,0,-0.001865,1.000000,0.700000,1,113.032
2.544765,0.046780,0.034427,-0.068991,1.013048,1.015978,0.001813,-0.000936,-0.001375,0.002460,-0.001375,0.000000,0.134420,MOVE,0,0,-0.001929,1.000000,0.700000,1,113.139
2.600748,0.055983,0.031518,-0.067784,1.013535,1.016288,0.002659,-0.001510,-0.000140,0.003060,-0.000140,0.000000,0.135637,MOVE,0,0,-0.001937,1.000000,0.700000,1,112.971
2.651468,0.050720,0.034670,-0.066578,1.010611,1.013395,0.000975,-0.002306,-0.001009,0.002699,-0.001009,0.000000,0.134129,MOVE,0,0,-0.001988,1.000000,0.700000,1,112.575
2.700860,0.049392,0.032488,-0.067784,1.013779,1.016562,0.002113,-0.001646,-0.000944,0.002840,-0.000944,0.000000,0.135621,MOVE,0,0,-0.002034,1.000000,0.700000,1,112.081
2.750505,0.049645,0.033215,-0.067302,1.014266,1.017039,0.002264,-0.002770,0.000589,0.003626,0.000589,0.000000,0.137395,MOVE,0,0,-0.002005,1.000000,0.700000,1,111.417
2.811957,0.061452,0.034427,-0.067784,1.015485,1.018327,0.003077,-0.001106,-0.000851,0.003379,-0.000851,0.000000,0.140149,MOVE,0,0,-0.002058,1.000000,0.700000,1,110.838
2.852991,0.041034,0.031760,-0.068991,1.014023,1.016863,0.002925,-0.001672,0.000097,0.003370,0.000097,0.000000,0.141311,MOVE,0,0,-0.002054,1.000000,0.700000,1,110.336
2.896593,0.043603,0.034670,-0.068267,1.012317,1.015208,0.000427,-0.003151,-0.002275,0.003909,-0.002275,0.000000,0.140867,MOVE,0,0,-0.002153,1.000000,0.700000,1,109.700
2.947818,0.051224,0.032003,-0.068026,1.014023,1.016806,0.002178,-0.001278,0.000456,0.002566,0.000456,0.000000,0.141905,MOVE,0,0,-0.002129,1.000000,0.700000,1,109.008
2.995861,0.048043,0.033215,-0.068749,1.013535,1.016407,0.001534,-0.003091,0.000774,0.003537,0.000774,0.000000,0.142481,MOVE,0,0,-0.002092,1.000000,0.700000,1,108.330
3.041099,0.045238,0.032245,-0.068508,1.010367,1.013200,0.001468,-0.000015,-0.001317,0.001972,-0.001317,0.000000,0.140113,MOVE,0,0,-0.002152,1.000000,0.700000,1,107.504
3.084728,0.043630,0.032730,-0.067302,1.013535,1.016295,0.001370,-0.000595,-0.001242,0.001943,-0.001242,0.000000,0.140767,MOVE,0,0,-0.002206,1.000000,0.700000,1,106.715
3.128565,0.043837,0.032245,-0.069473,1.015485,1.018369,0.001633,-0.000886,-0.001195,0.002209,-0.001195,0.000000,0.143222,MOVE,0,0,-0.002258,1.000000,0.700000,1,106.105
3.182804,0.054239,0.032003,-0.068026,1.012073,1.014861,-0.001156,0.000374,-0.001767,0.002144,-0.001767,0.000000,0.142275,MOVE,0,0,-0.002354,1.000000,0.700000,1,105.838
3.231831,0.049027,0.034670,-0.068267,1.014997,1.017881,-0.000218,-0.001076,-0.000553,0.001229,-0.000553,0.000000,0.144141,MOVE,0,0,-0.002381,1.000000,0.700000,1,105.711
3.282480,0.050650,0.032973,-0.069232,1.012804,1.015703,0.001265,-0.000126,-0.000195,0.001286,-0.000195,0.000000,0.143859,MOVE,0,0,-0.002391,1.000000,0.700000,1,105.646
3.331264,0.048784,0.032973,-0.066820,1.014997,1.017729,0.000346,-0.000665,-0.000196,0.000775,-0.000196,0.000000,0.145429,MOVE,0,0,-0.002401,1.000000,0.700000,1,105.384
3.375330,0.044066,0.033215,-0.068026,1.011829,1.014657,0.001454,0.001209,0.001005,0.002142,0.001005,0.000000,0.144078,MOVE,0,0,-0.002356,1.000000,0.700000,1,105.155
3.424884,0.049554,0.032488,-0.066578,1.014754,1.017454,0.001432,-0.001779,-0.000511,0.002340,-0.000511,0.000000,0.145379,MOVE,0,0,-0.002382,1.000000,0.700000,1,104.511
3.470542,0.045658,0.035397,-0.068267,1.011829,1.014747,-0.000135,0.001282,0.000080,0.001292,0.000080,0.000000,0.144114,MOVE,0,0,-0.002378,1.000000,0.700000,1,104.158
3.513834,0.043292,0.031033,-0.067302,1.016460,1.019158,-0.000459,-0.002330,0.001237,0.002678,0.001237,0.000000,0.146944,MOVE,0,0,-0.002325,1.000000,0.700000,1,104.131
3.574882,0.061048,0.033700,-0.068508,1.013779,1.016650,-0.000762,-0.001344,-0.001217,0.001966,-0.001217,0.000000,0.147235,MOVE,0,0,-0.002399,1.000000,0.700000,1,103.847
3.620771,0.045889,0.032730,-0.068508,1.013048,1.015889,0.001054,-0.001328,0.000050,0.001696,0.000050,0.000000,0.146811,MOVE,0,0,-0.002397,1.000000,0.700000,1,103.787
3.668571,0.047800,0.032488,-0.068026,1.009149,1.011961,0.002247,0.000535,-0.000304,0.002330,-0.000304,0.000000,0.142895,MOVE,0,0,-0.002411,1.000000,0.700000,1,104.248
3.715100,0.046529,0.033215,-0.069714,1.012317,1.015258,0.000655,-0.000968,-0.002351,0.002625,-0.002351,0.000000,0.142337,MOVE,0,0,-0.002520,1.000000,0.700000,1,104.311
3.761810,0.046710,0.033700,-0.068267,1.017191,1.020036,0.001523,-0.000034,-0.003480,0.003799,-0.003480,0.000000,0.146136,MOVE,0,0,-0.002683,1.000000,0.700000,1,104.094
3.803168,0.041358,0.032245,-0.068991,1.010123,1.012990,0.000051,-0.000353,-0.001556,0.001596,-0.001556,0.000000,0.143213,MOVE,0,0,-0.002747,1.000000,0.700000,1,103.794
3.847130,0.043962,0.031760,-0.068749,1.014510,1.017333,-0.000212,0.000846,0.000008,0.000872,0.000008,0.000000,0.144491,MOVE,0,0,-0.002747,1.000000,0.700000,1,103.444
3.891530,0.044400,0.033942,-0.069232,1.011586,1.014520,0.002166,0.000263,-0.002360,0.003214,-0.002360,0.000000,0.143110,MOVE,0,0,-0.002852,1.000000,0.700000,1,103.277
3.946061,0.054531,0.033215,-0.068026,1.015241,1.018059,-0.002411,0.000585,-0.000211,0.002490,-0.000211,0.000000,0.145052,MOVE,0,0,-0.002863,1.000000,0.700000,1,103.442
3.994483,0.048422,0.031760,-0.067061,1.014023,1.016734,0.001177,-0.001806,-0.001997,0.002939,-0.001997,0.000000,0.145608,MOVE,0,0,-0.002960,1.000000,0.700000,1,103.673
4.042476,0.047993,0.033215,-0.066578,1.014997,1.017721,0.000839,0.001567,-0.001378,0.002249,-0.001378,0.000000,0.146996,MOVE,0,0,-0.003026,1.000000,0.700000,1,103.880
4.081276,0.038800,0.032003,-0.068267,1.014023,1.016822,-0.000124,-0.001423,-0.001334,0.001955,-0.001334,0.000000,0.147436,MOVE,0,0,-0.003078,1.000000,0.700000,1,104.096
4.124059,0.042783,0.034427,-0.067061,1.013779,1.016578,-0.001069,-0.000472,-0.000382,0.001229,-0.000382,0.000000,0.147612,MOVE,0,0,-0.003094,1.000000,0.700000,1,104.251
4.166701,0.042642,0.031518,-0.067061,1.015728,1.018428,0.001372,-0.000463,-0.000058,0.001449,-0.000058,0.000000,0.149436,MOVE,0,0,-0.003097,1.000000,0.700000,1,104.501
4.210105,0.043404,0.035155,-0.068026,1.014510,1.017396,0.001900,-0.000135,0.001191,0.002246,0.001191,0.000000,0.150148,MOVE,0,0,-0.003045,1.000000,0.700000,1,104.367
4.252822,0.042717,0.032003,-0.068026,1.014266,1.017049,0.000024,-0.000118,-0.001205,0.001211,-0.001205,0.000000,0.150477,MOVE,0,0,-0.003097,1.000000,0.700000,1,104.042
4.295755,0.042933,0.034912,-0.068508,1.012804,1.015719,-0.000568,0.000788,-0.002096,0.002310,-0.002096,0.000000,0.149576,MOVE,0,0,-0.003187,1.000000,0.700000,1,103.949
4.340424,0.044669,0.031518,-0.068026,1.011342,1.014117,-0.000890,-0.001008,-0.001397,0.001939,-0.001397,0.000000,0.147324,MOVE,0,0,-0.003249,1.000000,0.700000,1,103.674
4.392108,0.051684,0.033700,-0.067784,1.012317,1.015143,-0.000235,0.001159,-0.000436,0.001261,-0.000436,0.000000,0.146220,MOVE,0,0,-0.003271,1.000000,0.700000,1,103.508
4.441393,0.049284,0.034427,-0.068267,1.015728,1.018602,-0.000228,0.000552,-0.001311,0.001440,-0.001311,0.000000,0.148340,MOVE,0,0,-0.003336,1.000000,0.700000,1,103.723
4.486283,0.044890,0.032730,-0.068267,1.015241,1.018060,-0.000272,-0.000672,-0.000080,0.000729,-0.000080,0.000000,0.149760,MOVE,0,0,-0.003340,1.000000,0.700000,1,104.243
4.525971,0.039688,0.032488,-0.067302,1.015241,1.017988,-0.000269,0.000263,0.000505,0.000629,0.000505,0.000000,0.150973,MOVE,0,0,-0.003320,1.000000,0.700000,1,104.762
4.569020,0.043049,0.035155,-0.068508,1.014997,1.017914,0.002142,-0.000621,-0.001312,0.002587,-0.001312,0.000000,0.151998,MOVE,0,0,-0.003376,1.000000,0.700000,1,105.082
4.616162,0.047142,0.031518,-0.068267,1.016460,1.019237,0.001775,-0.000275,-0.000066,0.001798,-0.000066,0.000000,0.154112,MOVE,0,0,-0.003379,1.000000,0.700000,1,105.201
4.663198,0.047036,0.032730,-0.068508,1.012560,1.015403,0.002312,0.000894,-0.001279,0.002790,-0.001279,0.000000,0.152563,MOVE,0,0,-0.003439,1.000000,0.700000,1,105.023
4.706133,0.042935,0.036124,-0.068026,1.015485,1.018402,-0.000995,-0.000666,-0.001240,0.001724,-0.001240,0.000000,0.153868,MOVE,0,0,-0.003493,1.000000,0.700000,1,104.937
4.748935,0.042802,0.034185,-0.069473,1.024745,1.027666,-0.000310,-0.001589,0.000548,0.001709,0.000548,0.000000,0.163381,MOVE,0,0,-0.003469,1.000000,0.700000,1,105.192
4.794468,0.045534,0.037094,-0.067784,1.023283,1.026196,-0.001736,0.001693,0.000756,0.002540,0.000756,0.000000,0.170620,MOVE,0,0,-0.003435,1.000000,0.700000,1,105.342
4.844070,0.049602,0.028366,-0.066337,1.010855,1.013426,-0.000463,-0.001659,0.000724,0.001868,0.000724,0.000000,0.165641,MOVE,0,0,-0.003399,1.000000,0.700000,1,105.563
4.886834,0.042763,0.036609,-0.069473,1.017678,1.020703,-0.001899,-0.000407,0.000435,0.001990,0.000435,0.000000,0.167710,MOVE,0,0,-0.003380,1.000000,0.700000,1,105.891
4.929672,0.042838,0.032730,-0.082258,1.008417,1.012296,0.001493,-0.001055,0.000115,0.001832,0.000115,0.000000,0.162006,MOVE,0,0,-0.003375,1.000000,0.700000,1,106.040
4.973597,0.043925,0.029821,-0.070679,1.028401,1.031258,0.000804,-0.000532,0.001291,0.001611,0.001291,0.000000,0.173937,MOVE,0,0,-0.003319,1.000000,0.700000,1,106.217
5.023949,0.050352,0.028366,-0.068749,1.016703,1.019420,0.000804,-0.000251,-0.000810,0.001168,-0.000810,0.000000,0.174021,MOVE,0,0,-0.003359,1.000000,0.700000,1,107.224
5.067708,0.043760,0.032488,-0.068026,1.007443,1.010259,0.002290,-0.000518,-0.000220,0.002358,-0.000220,0.000000,0.165852,MOVE,0,0,-0.003369,1.000000,0.700000,1,107.876
5.110653,0.042945,0.035155,-0.068749,1.017922,1.020846,-0.001022,-0.001349,0.000387,0.001736,0.000387,0.000000,0.168029,MOVE,0,0,-0.003352,1.000000,0.700000,1,107.943
5.153196,0.042542,0.030791,-0.069473,1.014754,1.017595,0.000741,0.001356,0.001314,0.002028,0.001314,0.000000,0.167061,MOVE,0,0,-0.003296,1.000000,0.700000,1,107.745
5.196270,0.043075,0.034912,-0.067302,1.018165,1.020984,-0.001713,-0.000413,-0.000483,0.001827,-0.000483,0.000000,0.169241,MOVE,0,0,-0.003317,1.000000,0.700000,1,108.084
5.239860,0.043590,0.032003,-0.069714,1.017922,1.020808,-0.001383,0.001655,0.000091,0.002158,0.000091,0.000000,0.171044,MOVE,0,0,-0.003313,1.000000,0.700000,1,108.698
5.290644,0.050784,0.035640,-0.069956,1.012317,1.015357,-0.000158,0.001678,0.001272,0.002111,0.001272,0.000000,0.167761,MOVE,0,0,-0.003249,1.000000,0.700000,1,109.426
5.344090,0.053446,0.030306,-0.070197,1.014754,1.017630,0.000781,0.000739,-0.002054,0.002318,-0.002054,0.000000,0.166852,MOVE,0,0,-0.003358,1.000000,0.700000,1,109.871
5.392409,0.048319,0.036367,-0.068508,1.017922,1.020872,0.001348,-0.002591,0.000100,0.002923,0.000100,0.000000,0.168952,MOVE,0,0,-0.003354,1.000000,0.700000,1,110.042
5.438773,0.046364,0.030306,-0.069473,1.017434,1.020254,0.001322,-0.002788,-0.000181,0.003091,-0.000181,0.000000,0.170285,MOVE,0,0,-0.003362,1.000000,0.700000,1,109.872
5.489415,0.050642,0.034427,-0.067302,1.017678,1.020482,0.001922,0.001789,-0.002003,0.003303,-0.002003,0.000000,0.171690,MOVE,0,0,-0.003463,1.000000,0.700000,1,109.752
5.543293,0.053879,0.033700,-0.069956,1.015728,1.018692,0.000700,-0.000962,0.001314,0.001773,0.001314,0.000000,0.171344,MOVE,0,0,-0.003393,1.000000,0.700000,1,109.464
5.593053,0.049760,0.030306,-0.068026,1.016947,1.019670,0.000039,0.002048,-0.000823,0.002207,-0.000823,0.000000,0.171913,MOVE,0,0,-0.003434,1.000000,0.700000,1,109.048
5.643953,0.050899,0.032488,-0.070679,1.014997,1.017974,0.002199,-0.000696,0.000724,0.002418,0.000724,0.000000,0.170898,MOVE,0,0,-0.003397,1.000000,0.700000,1,108.603
5.695803,0.051850,0.031760,-0.068267,1.017922,1.020703,-0.001478,-0.001277,-0.001364,0.002383,-0.001364,0.000000,0.172441,MOVE,0,0,-0.003468,1.000000,0.700000,1,108.415
5.746874,0.051071,0.031760,-0.068991,1.024258,1.027070,0.002199,0.002004,0.000455,0.003010,0.000455,0.000000,0.179559,MOVE,0,0,-0.003444,1.000000,0.700000,1,108.612
5.795015,0.048141,0.026184,-0.069956,1.015241,1.017985,0.000984,-0.002189,-0.000148,0.002404,-0.000148,0.000000,0.177790,MOVE,0,0,-0.003451,1.000000,0.700000,1,108.961
5.839325,0.044310,0.038306,-0.066337,1.018409,1.021286,-0.002959,0.000623,-0.001647,0.003443,-0.001647,0.000000,0.179169,MOVE,0,0,-0.003524,1.000000,0.700000,1,109.172
5.882952,0.043627,0.027639,-0.071644,1.018653,1.021543,0.002142,0.000597,-0.002516,0.003358,-0.002516,0.000000,0.180640,MOVE,0,0,-0.003634,1.000000,0.700000,1,109.375
5.927988,0.045036,0.035640,-0.068267,1.015972,1.018887,0.000029,-0.001160,-0.001836,0.002172,-0.001836,0.000000,0.179574,MOVE,0,0,-0.003717,1.000000,0.700000,1,109.377
5.976753,0.048765,0.029821,-0.068267,1.017922,1.020644,0.001008,0.001225,-0.001745,0.002358,-0.001745,0.000000,0.180197,MOVE,0,0,-0.003802,1.000000,0.700000,1,109.259
6.020727,0.043974,0.035640,-0.074298,0.998670,1.002064,-0.001195,0.000635,0.001724,0.002192,0.001724,0.000000,0.164034,MOVE,0,0,-0.003726,1.000000,0.700000,1,108.929
6.064287,0.043560,0.033942,-0.069956,1.011342,1.014327,0.003009,0.002485,-0.000994,0.004027,-0.000994,0.000000,0.160525,MOVE,0,0,-0.003769,1.000000,0.700000,1,108.675
6.115449,0.051162,0.034185,-0.068749,1.023527,1.026402,-0.000088,-0.002338,-0.002190,0.003205,-0.002190,0.000000,0.168234,MOVE,0,0,-0.003881,1.000000,0.700000,1,108.118
6.157976,0.042526,0.029578,-0.067302,1.015485,1.018142,0.000467,0.000085,-0.001501,0.001574,-0.001501,0.000000,0.167739,MOVE,0,0,-0.003945,1.000000,0.700000,1,107.356
6.200685,0.042709,0.034912,-0.067543,1.017922,1.020757,-0.001052,-0.002277,-0.002362,0.003446,-0.002362,0.000000,0.169647,MOVE,0,0,-0.004046,1.000000,0.700000,1,106.571
6.244261,0.043576,0.030063,-0.060306,1.003787,1.006047,-0.001010,0.000168,-0.002916,0.003090,-0.002916,0.000000,0.158124,MOVE,0,0,-0.004173,1.000000,0.700000,1,106.210
6.288951,0.044689,0.030306,-0.068991,1.028157,1.030915,0.001618,0.000676,-0.004287,0.004632,-0.004287,0.000000,0.170135,MOVE,0,0,-0.004365,1.000000,0.700000,1,105.985
6.340640,0.051689,0.027881,-0.066096,1.022796,1.025308,0.002089,0.002390,-0.004095,0.005181,-0.004095,0.000000,0.175899,MOVE,0,0,-0.004576,1.000000,0.700000,1,106.084
6.394724,0.054084,0.036852,-0.067302,1.017922,1.020810,0.003797,-0.002379,-0.002186,0.004985,-0.002186,0.000000,0.177037,MOVE,0,0,-0.004695,1.000000,0.700000,1,106.575
6.439756,0.045032,0.028366,-0.062960,1.017922,1.020261,-0.001141,0.000673,0.073584,0.073595,0.073584,0.000000,0.177569,MOVE,0,0,-0.001381,1.000000,0.700000,1,107.051
6.494392,0.054636,0.029821,-0.058377,1.024014,1.026110,-0.001725,-0.002659,-0.002647,0.004129,-0.002647,0.000000,0.183311,MOVE,0,0,-0.001526,1.000000,0.700000,1,107.272
6.543446,0.049054,0.033700,-0.069232,1.013535,1.016456,-0.000783,-0.001391,-0.001054,0.001913,-0.001054,0.000000,0.179790,MOVE,0,0,-0.001577,1.000000,0.700000,1,107.522
6.588726,0.045280,0.033215,-0.070197,1.019384,1.022338,-0.001330,-0.000466,-0.000652,0.001553,-0.000652,0.000000,0.181915,MOVE,0,0,-0.001607,1.000000,0.700000,1,107.763
6.640940,0.052214,0.030306,-0.068749,1.018653,1.021420,-0.001875,-0.000123,-0.002106,0.002822,-0.002106,0.000000,0.183001,MOVE,0,0,-0.001717,1.000000,0.700000,1,107.838
6.691013,0.050073,0.032973,-0.068508,1.014997,1.017841,0.001742,-0.000372,-0.002647,0.003190,-0.002647,0.000000,0.180758,MOVE,0,0,-0.001849,1.000000,0.700000,1,107.540
6.733557,0.042544,0.030548,-0.067061,1.018409,1.021072,0.002346,0.000857,-0.001355,0.002841,-0.001355,0.000000,0.181647,MOVE,0,0,-0.001907,1.000000,0.700000,1,107.009
6.776942,0.043386,0.033215,-0.067302,1.018409,1.021171,-0.000078,-0.001533,0.000194,0.001547,0.000194,0.000000,0.182536,MOVE,0,0,-0.001899,1.000000,0.700000,1,106.249
6.832537,0.055595,0.033215,-0.067061,1.016947,1.019697,-0.000955,0.000310,-0.002503,0.002697,-0.002503,0.000000,0.182010,MOVE,0,0,-0.002038,1.000000,0.700000,1,106.080
6.886092,0.053554,0.031518,-0.066578,1.014023,1.016695,-0.000918,-0.001212,-0.001814,0.002367,-0.001814,0.000000,0.178834,MOVE,0,0,-0.002135,1.000000,0.700000,1,105.783
6.934173,0.048081,0.031518,-0.068267,1.017434,1.020209,0.000304,0.000339,-0.001083,0.001175,-0.001083,0.000000,0.179138,MOVE,0,0,-0.002187,1.000000,0.700000,1,105.365
6.975540,0.041367,0.032245,-0.068749,1.016460,1.019292,0.001840,-0.000593,-0.000143,0.001939,-0.000143,0.000000,0.178587,MOVE,0,0,-0.002193,1.000000,0.700000,1,105.588
7.026988,0.051448,0.032245,-0.068026,1.017191,1.019973,0.001174,-0.000859,-0.001643,0.002194,-0.001643,0.000000,0.178704,MOVE,0,0,-0.002277,1.000000,0.700000,1,106.211
7.072138,0.045151,0.033215,-0.067784,1.015485,1.018286,0.000805,-0.000511,-0.002507,0.002682,-0.002507,0.000000,0.177291,MOVE,0,0,-0.002391,1.000000,0.700000,1,106.427
7.120366,0.048228,0.031518,-0.068508,1.016703,1.019496,0.001962,-0.000491,-0.000045,0.002023,-0.000045,0.000000,0.177109,MOVE,0,0,-0.002393,1.000000,0.700000,1,106.637
7.172244,0.051878,0.031276,-0.070197,1.019384,1.022277,-0.000423,-0.000772,-0.001194,0.001484,-0.001194,0.000000,0.179447,MOVE,0,0,-0.002455,1.000000,0.700000,1,107.032
7.222613,0.050369,0.032488,-0.068267,1.017678,1.020483,0.001381,-0.000158,0.000346,0.001432,0.000346,0.000000,0.179936,MOVE,0,0,-0.002437,1.000000,0.700000,1,106.843
7.266865,0.044253,0.033215,-0.068749,1.017191,1.020052,-0.000425,-0.002302,-0.000892,0.002505,-0.000892,0.000000,0.179990,MOVE,0,0,-0.002477,1.000000,0.700000,1,106.501
7.319009,0.052144,0.031518,-0.068991,1.019384,1.022202,-0.000734,-0.001032,-0.002644,0.002932,-0.002644,0.000000,0.181972,MOVE,0,0,-0.002615,1.000000,0.700000,1,106.391
7.372605,0.053596,0.033458,-0.069473,1.017191,1.020109,-0.000127,0.000765,-0.001077,0.001327,-0.001077,0.000000,0.181874,MOVE,0,0,-0.002672,1.000000,0.700000,1,106.460
7.415095,0.042490,0.032730,-0.067784,1.019871,1.022645,0.001410,-0.001630,-0.000748,0.002281,-0.000748,0.000000,0.184067,MOVE,0,0,-0.002704,1.000000,0.700000,1,106.588
7.462938,0.047843,0.030791,-0.067061,1.016947,1.019621,-0.001307,-0.000653,0.000195,0.001474,0.000195,0.000000,0.183319,MOVE,0,0,-0.002695,1.000000,0.700000,1,106.545
7.516320,0.053381,0.032245,-0.068991,1.016947,1.019794,0.000575,-0.000301,-0.000365,0.000744,-0.000365,0.000000,0.182802,MOVE,0,0,-0.002714,1.000000,0.700000,1,106.769
7.566416,0.050097,0.032488,-0.067784,1.015241,1.018020,-0.002712,0.001170,-0.000036,0.002954,-0.000036,0.000000,0.180740,MOVE,0,0,-0.002716,1.000000,0.700000,1,107.068
7.622674,0.056258,0.030791,-0.068026,1.018165,1.020900,-0.001141,0.001468,-0.000901,0.002066,-0.000901,0.000000,0.181475,MOVE,0,0,-0.002767,1.000000,0.700000,1,107.006
7.673740,0.051066,0.032730,-0.068508,1.014754,1.017590,0.001548,-0.000342,-0.000811,0.001781,-0.000811,0.000000,0.179159,MOVE,0,0,-0.002808,1.000000,0.700000,1,106.889
7.733913,0.060173,0.034185,-0.066578,1.016460,1.019211,0.000350,0.000886,-0.002612,0.002780,-0.002612,0.000000,0.178533,MOVE,0,0,-0.002965,1.000000,0.700000,1,107.246
7.782973,0.049059,0.030791,-0.068026,1.018409,1.021143,0.000333,-0.000664,-0.001877,0.002019,-0.001877,0.000000,0.179708,MOVE,0,0,-0.003057,1.000000,0.700000,1,107.346
7.827250,0.044277,0.032730,-0.068267,1.016460,1.019275,0.000668,0.000525,-0.002685,0.002816,-0.002685,0.000000,0.179085,MOVE,0,0,-0.003176,1.000000,0.700000,1,107.454
7.874655,0.047406,0.032245,-0.068026,1.017678,1.020459,-0.000872,-0.001273,-0.001110,0.001901,-0.001110,0.000000,0.179589,MOVE,0,0,-0.003229,1.000000,0.700000,1,107.570
7.919421,0.044766,0.032003,-0.069232,1.015485,1.018345,0.001508,0.001147,-0.002522,0.003154,-0.002522,0.000000,0.178141,MOVE,0,0,-0.003342,1.000000,0.700000,1,107.507
7.969844,0.050422,0.029821,-0.066337,1.016947,1.019544,-0.000038,0.000194,-0.000920,0.000941,-0.000920,0.000000,0.177917,MOVE,0,0,-0.003388,1.000000,0.700000,1,106.930
8.012129,0.042285,0.034912,-0.066820,1.016460,1.019252,0.000539,0.000860,-0.001480,0.001795,-0.001480,0.000000,0.177452,MOVE,0,0,-0.003451,1.000000,0.700000,1,106.030
8.059234,0.047104,0.031518,-0.067061,1.015241,1.017941,0.000547,-0.000363,-0.002273,0.002366,-0.002273,0.000000,0.175854,MOVE,0,0,-0.003558,1.000000,0.700000,1,105.407
8.105271,0.046037,0.032003,-0.068991,1.016216,1.019058,0.003293,0.001126,-0.000399,0.003503,-0.000399,0.000000,0.175420,MOVE,0,0,-0.003576,1.000000,0.700000,1,105.184
8.143107,0.037836,0.030548,-0.067784,1.017922,1.020633,-0.000639,-0.001882,-0.000664,0.002096,-0.000664,0.000000,0.176448,MOVE,0,0,-0.003601,1.000000,0.700000,1,104.748
8.184692,0.041586,0.033458,-0.068026,1.015485,1.018310,-0.002399,0.001444,0.000905,0.002943,0.000905,0.000000,0.175283,MOVE,0,0,-0.003564,1.000000,0.700000,1,104.155
8.226034,0.041342,0.031276,-0.067784,1.016703,1.019440,-0.001365,-0.000960,-0.001777,0.002438,-0.001777,0.000000,0.175251,MOVE,0,0,-0.003637,1.000000,0.700000,1,103.707
8.264039,0.038005,0.032973,-0.067543,1.017191,1.019964,-0.000486,-0.000352,-0.001434,0.001554,-0.001434,0.000000,0.175693,MOVE,0,0,-0.003692,1.000000,0.700000,1,103.378
8.312704,0.048665,0.030306,-0.069232,1.019140,1.021939,0.001931,-0.000269,-0.000752,0.002089,-0.000752,0.000000,0.177869,MOVE,0,0,-0.003728,1.000000,0.700000,1,103.126
8.357570,0.044866,0.033215,-0.068508,1.018409,1.021251,0.001009,-0.000231,0.000196,0.001053,0.000196,0.000000,0.179208,MOVE,0,0,-0.003719,1.000000,0.700000,1,102.772
8.399128,0.041558,0.033700,-0.067302,1.017434,1.020215,0.000042,0.000101,-0.001290,0.001295,-0.001290,0.000000,0.179480,MOVE,0,0,-0.003773,1.000000,0.700000,1,102.328
8.444192,0.045064,0.032003,-0.067302,1.017191,1.019917,-0.001712,0.002434,-0.001857,0.003507,-0.001857,0.000000,0.179457,MOVE,0,0,-0.003857,1.000000,0.700000,1,101.771
8.492773,0.048581,0.031760,-0.068267,1.017922,1.020703,0.001891,-0.001781,0.073890,0.073936,0.073890,0.000000,0.180144,MOVE,0,0,-0.000267,1.000000,0.700000,1,101.447
8.538115,0.045343,0.030791,-0.066820,1.017922,1.020577,-0.001471,-0.000282,-0.003296,0.003621,-0.003296,0.000000,0.180649,MOVE,0,0,-0.000417,1.000000,0.700000,1,101.022
8.579903,0.041788,0.033942,-0.068267,1.016947,1.019801,-0.000807,0.000908,-0.002562,0.002836,-0.002562,0.000000,0.180405,MOVE,0,0,-0.000524,1.000000,0.700000,1,100.654
8.621298,0.041395,0.033458,-0.067061,1.019384,1.022135,-0.001412,0.001789,-0.000353,0.002307,-0.000353,0.000000,0.182286,MOVE,0,0,-0.000538,1.000000,0.700000,1,100.268
8.666369,0.045071,0.032973,-0.068508,1.015485,1.018327,-0.001047,-0.000061,-0.002363,0.002585,-0.002363,0.000000,0.180551,MOVE,0,0,-0.000645,1.000000,0.700000,1,99.769
8.707819,0.041449,0.033942,-0.068991,1.016460,1.019363,-0.001405,0.000207,-0.002285,0.002691,-0.002285,0.000000,0.179923,MOVE,0,0,-0.000740,1.000000,0.700000,1,99.376
8.752712,0.044893,0.033458,-0.068508,1.016216,1.019072,-0.000810,-0.001910,-0.002427,0.003193,-0.002427,0.000000,0.179096,MOVE,0,0,-0.000849,1.000000,0.700000,1,99.255
8.794108,0.041396,0.030548,-0.066337,1.018897,1.021511,-0.000199,0.001683,-0.000570,0.001788,-0.000570,0.000000,0.180546,MOVE,0,0,-0.000872,1.000000,0.700000,1,99.295
8.839003,0.044895,0.034427,-0.068026,1.016947,1.019801,0.001307,0.000153,-0.001713,0.002161,-0.001713,0.000000,0.180312,MOVE,0,0,-0.000949,1.000000,0.700000,1,99.454
8.887424,0.048421,0.029578,-0.066337,1.017922,1.020510,0.001232,0.000721,-0.002234,0.002651,-0.002234,0.000000,0.180739,MOVE,0,0,-0.001057,1.000000,0.700000,1,99.783
8.925280,0.037855,0.033700,-0.067543,1.019628,1.022418,-0.002412,0.000370,0.000955,0.002621,0.000955,0.000000,0.182842,MOVE,0,0,-0.001021,1.000000,0.700000,1,100.171
8.973894,0.048615,0.031760,-0.068026,1.016703,1.019471,-0.000836,-0.001440,0.000608,0.001773,0.000608,0.000000,0.182082,MOVE,0,0,-0.000992,1.000000,0.700000,1,100.555
9.019054,0.045160,0.033942,-0.069232,1.016460,1.019380,-0.000239,0.001003,0.000588,0.001187,0.000588,0.000000,0.181315,MOVE,0,0,-0.000965,1.000000,0.700000,1,100.789
9.060429,0.041375,0.031276,-0.068508,1.018165,1.020947,-0.001123,-0.001684,-0.000352,0.002054,-0.000352,0.000000,0.182036,MOVE,0,0,-0.000980,1.000000,0.700000,1,100.774
9.105388,0.044959,0.032245,-0.068508,1.016216,1.019033,-0.001098,0.000767,0.000827,0.001574,0.000827,0.000000,0.180962,MOVE,0,0,-0.000942,1.000000,0.700000,1,100.519
9.153746,0.048358,0.032730,-0.067543,1.015485,1.018255,-0.000228,-0.000167,0.000190,0.000341,0.000190,0.000000,0.179295,MOVE,0,0,-0.000933,1.000000,0.700000,1,100.360
9.198915,0.045169,0.031033,-0.068026,1.016703,1.019449,0.000990,0.003104,-0.000115,0.003260,-0.000115,0.000000,0.178869,MOVE,0,0,-0.000938,1.000000,0.700000,1,100.314
9.240275,0.041360,0.032245,-0.068508,1.015972,1.018790,-0.001101,0.000618,0.000201,0.001279,0.000201,0.000000,0.177893,MOVE,0,0,-0.000930,1.000000,0.700000,1,100.149
9.286413,0.046139,0.030791,-0.068267,1.020359,1.023103,-0.002278,0.000292,0.001092,0.002543,0.001092,0.000000,0.180897,MOVE,0,0,-0.000880,1.000000,0.700000,1,99.847
9.329544,0.043131,0.033458,-0.068267,1.014997,1.017841,0.001674,0.002055,0.000152,0.002654,0.000152,0.000000,0.178864,MOVE,0,0,-0.000873,1.000000,0.700000,1,99.604
9.372068,0.042524,0.030791,-0.068749,1.016947,1.019733,0.001090,0.000181,0.000735,0.001327,0.000735,0.000000,0.178737,MOVE,0,0,-0.000842,1.000000,0.700000,1,99.462
9.422675,0.050607,0.032973,-0.068026,1.018165,1.020968,-0.001921,-0.000724,0.001629,0.002621,0.001629,0.000000,0.179735,MOVE,0,0,-0.000759,1.000000,0.700000,1,99.221
9.465790,0.043115,0.031518,-0.068267,1.017191,1.019966,-0.000365,-0.000097,-0.000483,0.000613,-0.000483,0.000000,0.179730,MOVE,0,0,-0.000780,1.000000,0.700000,1,99.090
9.516898,0.051108,0.032973,-0.069473,1.020602,1.023495,0.001467,0.000208,0.000433,0.001544,0.000433,0.000000,0.182903,MOVE,0,0,-0.000758,1.000000,0.700000,1,99.114
9.566565,0.049667,0.032730,-0.068026,1.019140,1.021932,-0.000976,0.000208,0.001044,0.001444,0.001044,0.000000,0.184352,MOVE,0,0,-0.000706,1.000000,0.700000,1,99.240
9.610096,0.043531,0.031518,-0.069232,1.015241,1.018087,-0.000365,-0.000402,-0.000483,0.000727,-0.000483,0.000000,0.182195,MOVE,0,0,-0.000727,1.000000,0.700000,1,100.119
9.663042,0.052946,0.031276,-0.069473,1.018409,1.021255,0.002078,0.000208,-0.000178,0.002096,-0.000178,0.000000,0.183105,MOVE,0,0,-0.000737,1.000000,0.700000,1,100.886
9.704939,0.041897,0.032973,-0.067302,1.015972,1.018733,0.000551,0.000514,0.000134,0.000765,0.000134,0.000000,0.181654,MOVE,0,0,-0.000731,1.000000,0.700000,1,101.460
9.748414,0.043475,0.031276,-0.069232,1.019140,1.021968,-0.000060,0.000208,0.001051,0.001073,0.001051,0.000000,0.183259,MOVE,0,0,-0.000685,1.000000,0.700000,1,101.918
9.790210,0.041795,0.031033,-0.068508,1.018653,1.021425,0.001467,-0.000097,0.000439,0.001534,0.000439,0.000000,0.184216,MOVE,0,0,-0.000667,1.000000,0.700000,1,102.259
9.833444,0.043235,0.030791,-0.068508,1.015972,1.018745,0.000550,-0.000097,0.000745,0.000931,0.000745,0.000000,0.182665,MOVE,0,0,-0.000635,1.000000,0.700000,1,102.383
9.884614,0.051170,0.032973,-0.067061,1.015728,1.018474,-0.001893,-0.000403,-0.000782,0.002088,-0.000782,0.000000,0.181025,MOVE,0,0,-0.000675,1.000000,0.700000,1,102.209
9.927789,0.043175,0.031276,-0.067543,1.018409,1.021126,0.000856,-0.000403,0.000134,0.000955,0.000134,0.000000,0.181935,MOVE,0,0,-0.000669,1.000000,0.700000,1,102.068
9.978596,0.050807,0.032003,-0.068991,1.017678,1.020516,-0.000977,-0.001013,0.001050,0.001756,0.001050,0.000000,0.182206,MOVE,0,0,-0.000616,1.000000,0.700000,1,102.034
10.022624,0.044029,0.032003,-0.068749,1.017434,1.020257,-0.000978,-0.000402,0.000745,0.001293,0.000745,0.000000,0.182216,MOVE,0,0,-0.000583,1.000000,0.700000,1,102.403
10.065516,0.042892,0.031518,-0.068267,1.018165,1.020938,0.000244,-0.001013,0.000744,0.001281,0.000744,0.000000,0.182839,MOVE,0,0,-0.000551,1.000000,0.700000,1,102.974
10.109438,0.043922,0.031760,-0.068508,1.017922,1.020719,0.001771,0.000209,0.000133,0.001788,0.000133,0.000000,0.183202,MOVE,0,0,-0.000545,1.000000,0.700000,1,103.348
10.151947,0.042509,0.032730,-0.069714,1.017434,1.020345,0.000855,0.001430,0.000439,0.001723,0.000439,0.000000,0.183192,MOVE,0,0,-0.000527,1.000000,0.700000,1,103.330
10.193893,0.041945,0.031033,-0.068991,1.020115,1.022916,0.000855,-0.001319,0.000439,0.001631,0.000439,0.000000,0.185498,MOVE,0,0,-0.000508,1.000000,0.700000,1,103.320
10.236805,0.042912,0.032003,-0.067784,1.019871,1.022622,-0.000978,0.001125,-0.002616,0.003010,-0.002616,0.000000,0.187308,MOVE,0,0,-0.000620,1.000000,0.700000,1,103.627
10.281062,0.044257,0.033458,-0.067543,1.016703,1.019493,0.001160,-0.001624,-0.000477,0.002052,-0.000477,0.000000,0.186121,MOVE,0,0,-0.000642,1.000000,0.700000,1,104.076
10.322730,0.041668,0.032003,-0.068749,1.017678,1.020500,0.001160,0.001431,-0.000477,0.001903,-0.000477,0.000000,0.185959,MOVE,0,0,-0.000661,1.000000,0.700000,1,104.446
10.367626,0.044896,0.031760,-0.068267,1.017922,1.020703,0.001160,-0.000402,0.000133,0.001235,0.000133,0.000000,0.185995,MOVE,0,0,-0.000655,1.000000,0.700000,1,104.569
10.409303,0.041677,0.032003,-0.069956,1.016703,1.019609,-0.000062,-0.000402,-0.000477,0.000627,-0.000477,0.000000,0.185044,MOVE,0,0,-0.000675,1.000000,0.700000,1,104.502
10.450956,0.041654,0.032003,-0.067784,1.018165,1.020921,0.001465,-0.001013,0.000744,0.001930,0.000744,0.000000,0.185369,MOVE,0,0,-0.000644,1.000000,0.700000,1,104.382
10.496093,0.045136,0.032003,-0.068749,1.017434,1.020257,0.002076,0.000209,0.000439,0.002132,0.000439,0.000000,0.185063,MOVE,0,0,-0.000624,1.000000,0.700000,1,104.430
10.545264,0.049172,0.032973,-0.067784,1.018409,1.021195,0.002075,0.000820,0.001966,0.002974,0.001966,0.000000,0.185632,MOVE,0,0,-0.000528,1.000000,0.700000,1,104.728
10.590491,0.045227,0.031033,-0.069232,1.018897,1.021717,-0.000368,0.000514,-0.001394,0.001531,-0.001394,0.000000,0.186614,MOVE,0,0,-0.000591,1.000000,0.700000,1,104.890
10.631924,0.041433,0.032730,-0.068267,1.021577,1.024379,0.000548,-0.000402,0.000133,0.000692,0.000133,0.000000,0.189894,MOVE,0,0,-0.000585,1.000000,0.700000,1,104.825
10.676809,0.044885,0.032973,-0.067784,1.016460,1.019251,0.000853,-0.000401,-0.000172,0.000959,-0.000172,0.000000,0.188230,MOVE,0,0,-0.000593,1.000000,0.700000,1,104.827
10.718302,0.041493,0.031518,-0.068991,1.017434,1.020258,0.000548,-0.000096,-0.000172,0.000582,-0.000172,0.000000,0.187639,MOVE,0,0,-0.000600,1.000000,0.700000,1,104.804
10.763192,0.044890,0.032730,-0.068267,1.018653,1.021462,-0.002507,-0.001318,0.001966,0.003447,0.001966,0.000000,0.188191,MOVE,0,0,-0.000512,1.000000,0.700000,1,104.631
10.811735,0.048543,0.032973,-0.067302,1.016216,1.018976,0.000548,-0.001012,-0.000478,0.001246,-0.000478,0.000000,0.186450,MOVE,0,0,-0.000535,1.000000,0.700000,1,104.340
10.856642,0.044907,0.031276,-0.067784,1.016703,1.019440,0.001769,-0.000401,-0.000172,0.001822,-0.000172,0.000000,0.185301,MOVE,0,0,-0.000543,1.000000,0.700000,1,104.144
10.898139,0.041497,0.032730,-0.068267,1.017678,1.020490,0.002074,0.002347,-0.001394,0.003429,-0.001394,0.000000,0.185212,MOVE,0,0,-0.000601,1.000000,0.700000,1,103.969
10.943423,0.045284,0.032245,-0.068508,1.016947,1.019762,-0.000675,0.000515,-0.001088,0.001380,-0.001088,0.000000,0.184477,MOVE,0,0,-0.000650,1.000000,0.700000,1,103.664
10.992351,0.048929,0.031518,-0.068749,1.017678,1.020485,-0.001286,-0.000096,-0.000783,0.001508,-0.000783,0.000000,0.184465,MOVE,0,0,-0.000688,1.000000,0.700000,1,103.549
11.037601,0.045250,0.031518,-0.067784,1.018165,1.020906,0.000547,-0.000401,-0.000172,0.000700,-0.000172,0.000000,0.184834,MOVE,0,0,-0.000696,1.000000,0.700000,1,103.972
11.079149,0.041548,0.032245,-0.068508,1.014023,1.016846,-0.003118,0.003263,0.000744,0.004574,0.000744,0.000000,0.181512,MOVE,0,0,-0.000665,1.000000,0.700000,1,103.976
11.120693,0.041544,0.034912,-0.068267,1.022308,1.025180,0.000241,0.000515,0.000439,0.000718,0.000439,0.000000,0.186022,MOVE,0,0,-0.000647,1.000000,0.700000,1,103.934
11.158607,0.037914,0.030791,-0.068991,1.017678,1.020479,-0.001896,-0.001012,0.000744,0.002275,0.000744,0.000000,0.185851,MOVE,0,0,-0.000619,1.000000,0.700000,1,103.828
11.207279,0.048672,0.031518,-0.069956,1.024014,1.026885,0.003601,-0.001929,-0.000783,0.004160,-0.000783,0.000000,0.191462,MOVE,0,0,-0.000657,1.000000,0.700000,1,103.564
11.252484,0.045204,0.032730,-0.066578,1.016216,1.018920,0.000547,0.001736,-0.000172,0.001829,-0.000172,0.000000,0.189344,MOVE,0,0,-0.000665,1.000000,0.700000,1,103.565
11.301390,0.048907,0.032488,-0.068026,1.017922,1.020709,-0.002508,-0.001929,-0.000477,0.003199,-0.000477,0.000000,0.189048,MOVE,0,0,-0.000688,1.000000,0.700000,1,103.668
11.346335,0.044945,0.030791,-0.068508,1.016216,1.018988,0.001158,-0.000707,-0.001393,0.001944,-0.001393,0.000000,0.187232,MOVE,0,0,-0.000751,1.000000,0.700000,1,103.797
11.388199,0.041864,0.033215,-0.066578,1.014023,1.016749,0.001463,-0.001623,-0.000172,0.002192,-0.000172,0.000000,0.183583,MOVE,0,0,-0.000758,1.000000,0.700000,1,103.967
11.433165,0.044966,0.030548,-0.068026,1.017922,1.020649,0.000241,-0.002234,-0.000477,0.002297,-0.000477,0.000000,0.183809,MOVE,0,0,-0.000779,1.000000,0.700000,1,104.436
11.482136,0.048971,0.035397,-0.066820,1.016216,1.019025,-0.001286,0.000515,0.002272,0.002661,0.002272,0.000000,0.182551,MOVE,0,0,-0.000668,1.000000,0.700000,1,105.237
11.524410,0.042274,0.032003,-0.067784,1.016703,1.019463,-0.001287,-0.000095,-0.000783,0.001509,-0.000783,0.000000,0.181812,MOVE,0,0,-0.000701,1.000000,0.700000,1,105.451
11.569635,0.045226,0.031033,-0.068026,1.017434,1.020178,-0.001897,0.001432,0.001050,0.002598,0.001050,0.000000,0.181791,MOVE,0,0,-0.000654,1.000000,0.700000,1,105.583
11.611193,0.041558,0.032730,-0.068508,1.017678,1.020506,-0.001286,-0.001011,0.001050,0.001944,0.001050,0.000000,0.182068,MOVE,0,0,-0.000610,1.000000,0.700000,1,105.548
11.656165,0.044972,0.031760,-0.066820,1.017678,1.020364,-0.000064,-0.002844,-0.000478,0.002884,-0.000478,0.000000,0.182189,MOVE,0,0,-0.000631,1.000000,0.700000,1,105.511
11.706300,0.050134,0.032003,-0.068749,1.016703,1.019527,-0.000981,-0.001622,0.000127,0.001900,0.000127,0.000000,0.181544,MOVE,0,0,-0.000625,1.000000,0.700000,1,105.232
11.749450,0.043150,0.031033,-0.068991,1.014510,1.017327,-0.000675,0.000822,-0.001400,0.001758,-0.001400,0.000000,0.178984,MOVE,0,0,-0.000686,1.000000,0.700000,1,104.720
11.793497,0.044047,0.037579,-0.064407,1.020846,1.023566,-0.002813,0.006624,0.001355,0.007323,0.001355,0.000000,0.182295,MOVE,0,0,-0.000626,1.000000,0.700000,1,104.104
11.837116,0.043619,0.030791,-0.067543,1.023527,1.026215,-0.000064,-0.000096,-0.000172,0.000207,-0.000172,0.000000,0.187659,MOVE,0,0,-0.000633,1.000000,0.700000,1,103.492
11.880702,0.043586,0.031033,-0.068749,1.024502,1.027275,0.001768,-0.001317,-0.000783,0.002340,-0.000783,0.000000,0.193440,MOVE,0,0,-0.000667,1.000000,0.700000,1,102.901
11.931433,0.050731,0.031760,-0.068508,1.016460,1.019261,-0.000064,-0.000401,-0.078661,0.078662,-0.078661,0.000000,0.191430,MOVE,0,0,-0.004658,1.000000,0.700000,1,102.333
11.984153,0.052720,0.021093,-0.070197,1.023527,1.026148,0.004211,-0.004677,0.000446,0.006309,0.000446,0.000000,0.195820,MOVE,0,0,-0.004635,1.000000,0.700000,1,101.925
12.032891,0.048738,0.036609,-0.067543,1.002081,1.005022,-0.002202,0.005402,-0.001387,0.005996,-0.001387,0.000000,0.180758,MOVE,0,0,-0.004702,1.000000,0.700000,1,101.605
12.084749,0.051858,0.038549,-0.068267,1.024989,1.027983,0.002378,0.002348,0.001057,0.003505,0.001057,0.000000,0.187867,MOVE,0,0,-0.004647,1.000000,0.700000,1,101.432
12.127033,0.042284,0.023517,-0.068267,1.010611,1.013187,-0.000065,-0.001012,0.001362,0.001698,0.001362,0.000000,0.180948,MOVE,0,0,-0.004590,1.000000,0.700000,1,101.680
12.169802,0.042770,0.041216,-0.068749,1.017191,1.020344,-0.002508,0.005097,0.001667,0.005920,0.001667,0.000000,0.181163,MOVE,0,0,-0.004518,1.000000,0.700000,1,102.086
12.214024,0.044221,0.023760,-0.068026,1.014023,1.016579,-0.000980,-0.001317,0.000139,0.001648,0.000139,0.000000,0.177969,MOVE,0,0,-0.004512,1.000000,0.700000,1,102.481
12.255731,0.041707,0.033942,-0.068267,1.017922,1.020773,0.000242,-0.000401,-0.000166,0.000497,-0.000166,0.000000,0.178867,MOVE,0,0,-0.004519,1.000000,0.700000,1,102.645
12.300970,0.045239,0.032488,-0.069714,1.013779,1.016692,0.002074,-0.001623,0.002277,0.003481,0.002277,0.000000,0.176003,MOVE,0,0,-0.004416,1.000000,0.700000,1,102.616
12.349442,0.048472,0.033942,-0.069232,1.016460,1.019380,-0.003729,-0.000095,-0.000472,0.003760,-0.000472,0.000000,0.175845,MOVE,0,0,-0.004439,1.000000,0.700000,1,102.551
12.394516,0.045073,0.029821,-0.070197,1.015485,1.018345,-0.000980,-0.000095,-0.000472,0.001092,-0.000472,0.000000,0.174771,MOVE,0,0,-0.004460,1.000000,0.700000,1,102.298
12.435991,0.041475,0.034670,-0.069956,1.017678,1.020669,-0.001896,0.003570,-0.000167,0.004045,-0.000167,0.000000,0.175895,MOVE,0,0,-0.004467,1.000000,0.700000,1,102.201
12.481014,0.045023,0.029578,-0.068026,1.014510,1.017218,0.001770,-0.000096,0.001055,0.002062,0.001055,0.000000,0.173802,MOVE,0,0,-0.004420,1.000000,0.700000,1,102.055
12.532167,0.051152,0.030306,-0.068267,1.016460,1.019200,0.002075,0.001737,0.000444,0.002742,0.000444,0.000000,0.173702,MOVE,0,0,-0.004397,1.000000,0.700000,1,101.673
12.577017,0.044850,0.033215,-0.067061,1.018165,1.020912,0.002075,-0.000707,-0.001083,0.002445,-0.001083,0.000000,0.175153,MOVE,0,0,-0.004446,1.000000,0.700000,1,101.617
12.625520,0.048503,0.030791,-0.067784,1.013779,1.016509,0.002380,-0.000096,0.000139,0.002386,0.000139,0.000000,0.172495,MOVE,0,0,-0.004439,1.000000,0.700000,1,101.947
12.670176,0.044656,0.031033,-0.066578,1.015728,1.018381,-0.000369,-0.001317,0.000138,0.001375,0.000138,0.000000,0.171789,MOVE,0,0,-0.004433,1.000000,0.700000,1,102.319
12.722354,0.052178,0.033942,-0.068267,1.018897,1.021745,-0.003423,-0.001012,0.001054,0.003722,0.001054,0.000000,0.174180,MOVE,0,0,-0.004378,1.000000,0.700000,1,103.088
12.774022,0.051668,0.031276,-0.068991,1.018653,1.021465,-0.001284,-0.001928,0.001665,0.002853,0.001665,0.000000,0.176081,MOVE,0,0,-0.004292,1.000000,0.700000,1,104.123
12.822746,0.048725,0.031518,-0.069956,1.014997,1.017893,-0.000979,0.000515,-0.000779,0.001353,-0.000779,0.000000,0.174577,MOVE,0,0,-0.004330,1.000000,0.700000,1,105.131
12.866014,0.043268,0.031276,-0.070920,1.014997,1.017953,0.000243,0.000515,-0.000779,0.000965,-0.000779,0.000000,0.173277,MOVE,0,0,-0.004363,1.000000,0.700000,1,106.013
12.911095,0.045081,0.032245,-0.070679,1.019140,1.022097,0.001464,-0.001317,0.000749,0.002107,0.000749,0.000000,0.175836,MOVE,0,0,-0.004330,1.000000,0.700000,1,106.887
12.961214,0.050118,0.031518,-0.071162,1.015241,1.018220,0.004213,-0.001012,-0.001396,0.004552,-0.001396,0.000000,0.174651,MOVE,0,0,-0.004400,1.000000,0.700000,1,107.893
13.007720,0.046506,0.033458,-0.068508,1.016947,1.019801,0.003907,0.001126,-0.002922,0.005007,-0.002922,0.000000,0.175006,MOVE,0,0,-0.004536,1.000000,0.700000,1,108.308
13.057452,0.049732,0.026911,-0.062236,1.019628,1.021880,0.000546,-0.001623,-0.002922,0.003387,-0.002922,0.000000,0.177197,MOVE,0,0,-0.004681,1.000000,0.700000,1,108.434
13.105730,0.048278,0.029821,-0.065613,1.017922,1.020470,-0.000066,0.002348,-0.004448,0.005030,-0.004448,0.000000,0.177901,MOVE,0,0,-0.004896,1.000000,0.700000,1,109.170
13.150338,0.044609,0.031033,-0.075986,1.033031,1.036287,0.008179,-0.001928,-0.005972,0.010309,-0.005972,0.000000,0.192768,MOVE,0,0,-0.005162,1.000000,0.700000,1,110.020
13.198822,0.048484,0.028851,-0.072127,1.009880,1.012863,0.005735,-0.006202,-0.006582,0.010708,-0.006582,0.000000,0.185068,MOVE,0,0,-0.005481,1.000000,0.700000,1,110.894
13.245263,0.046441,0.035882,-0.068267,1.012560,1.015493,0.009399,-0.000399,0.000749,0.009437,0.000749,0.000000,0.180505,MOVE,0,0,-0.005446,1.000000,0.700000,1,111.230
13.294233,0.048970,0.033700,-0.063201,1.029863,1.032351,0.004510,-0.003147,-0.000167,0.005502,-0.000167,0.000000,0.191570,MOVE,0,0,-0.005454,1.000000,0.700000,1,110.694
13.339253,0.045020,0.034912,-0.063201,1.017191,1.019750,0.002677,0.002655,0.000749,0.003844,0.000749,0.000000,0.190188,MOVE,0,0,-0.005421,1.000000,0.700000,1,110.129
13.381207,0.041954,0.022790,-0.063442,1.021577,1.023799,0.002372,-0.005285,-0.001694,0.006036,-0.001694,0.000000,0.192589,MOVE,0,0,-0.005492,1.000000,0.700000,1,109.505
13.422588,0.041381,0.033458,-0.068267,1.017434,1.020271,-0.004652,-0.007727,-0.000472,0.009032,-0.000472,0.000000,0.191573,MOVE,0,0,-0.005511,1.000000,0.700000,1,108.723
13.460398,0.037810,0.046065,-0.072850,1.012073,1.015737,0.005427,-0.000091,0.000138,0.005430,0.000138,0.000000,0.186579,MOVE,0,0,-0.005506,1.000000,0.700000,1,107.947
13.509005,0.048607,0.018183,-0.064890,1.019628,1.021852,-0.001598,-0.001007,0.001360,0.002327,0.001360,0.000000,0.187588,MOVE,0,0,-0.005440,1.000000,0.700000,1,107.262
13.553986,0.044981,0.041943,-0.066337,1.015972,1.018999,0.001761,0.069238,0.000444,0.069262,0.000444,0.000000,0.185928,MOVE,0,0,-0.005420,1.000000,0.700000,1,106.307
13.595996,0.042010,0.026184,-0.066337,1.016703,1.019202,0.000234,-0.004371,0.000138,0.004380,0.000138,0.000000,0.184617,MOVE,0,0,-0.005414,1.000000,0.700000,1,105.837
13.637271,0.041275,0.037579,-0.069473,1.021821,1.024869,-0.002820,-0.001316,0.000749,0.003201,0.000749,0.000000,0.188537,MOVE,0,0,-0.005383,1.000000,0.700000,1,105.333
13.680759,0.043489,0.032003,-0.067061,0.995014,0.997785,-0.003431,0.002350,-0.077442,0.077553,-0.077442,0.000000,0.167690,MOVE,0,0,-0.008751,1.000000,0.700000,1,104.988
13.726575,0.045816,0.037337,-0.072368,1.024014,1.027247,-0.000377,0.002656,0.000749,0.002785,0.000749,0.000000,0.175443,MOVE,0,0,-0.008717,1.000000,0.700000,1,104.900
13.775079,0.048503,0.035882,-0.064890,1.024014,1.026695,-0.001904,0.003877,0.001970,0.004747,0.001970,0.000000,0.181925,MOVE,0,0,-0.008621,1.000000,0.700000,1,104.550
13.820144,0.045065,0.029821,-0.072850,1.024745,1.027764,0.001761,-0.001621,0.001054,0.002615,0.001054,0.000000,0.188720,MOVE,0,0,-0.008574,1.000000,0.700000,1,104.109
13.861575,0.041431,0.034670,-0.063925,1.001838,1.004474,0.002982,-0.003453,0.000137,0.004565,0.000137,0.000000,0.173874,MOVE,0,0,-0.008568,1.000000,0.700000,1,103.765
13.906597,0.045022,0.033458,-0.064407,1.009392,1.011998,0.001760,0.000823,-0.000168,0.001950,-0.000168,0.000000,0.167285,MOVE,0,0,-0.008576,1.000000,0.700000,1,103.639
13.955022,0.048424,0.032003,-0.069473,1.014754,1.017632,0.002065,-0.000399,-0.001084,0.002366,-0.001084,0.000000,0.166426,MOVE,0,0,-0.008628,1.000000,0.700000,1,103.699
13.993084,0.038062,0.032730,-0.067543,1.017922,1.020685,-0.000073,0.004182,0.001970,0.004623,0.001970,0.000000,0.168400,MOVE,0,0,-0.008553,1.000000,0.700000,1,103.609
14.034467,0.041383,0.030548,-0.065372,1.018165,1.020719,0.002064,-0.003759,-0.001695,0.004612,-0.001695,0.000000,0.170207,MOVE,0,0,-0.008623,1.000000,0.700000,1,103.682
14.075905,0.041438,0.044368,-0.119407,0.992090,1.000234,-0.002824,0.012123,-0.078664,0.079643,-0.078664,0.000000,0.153397,MOVE,0,0,-0.011883,1.000000,0.700000,1,103.678
14.120879,0.044974,0.036124,-0.067784,1.002569,1.005507,0.006643,-0.000399,-0.000473,0.006672,-0.000473,0.000000,0.143014,MOVE,0,0,-0.011904,1.000000,0.700000,1,103.052
14.162704,0.041825,0.035640,-0.067302,1.011829,1.014691,0.003894,0.006625,-0.000778,0.007724,-0.000778,0.000000,0.141934,MOVE,0,0,-0.011937,1.000000,0.700000,1,102.763
14.205031,0.042328,0.023275,-0.059583,1.027913,1.029902,0.005419,0.008455,0.000443,0.010052,0.000443,0.000000,0.154653,MOVE,0,0,-0.011918,1.000000,0.700000,1,102.813
14.250461,0.045430,0.031276,-0.058377,1.027670,1.029801,-0.000996,0.002344,0.002886,0.003849,0.002886,0.000000,0.166009,MOVE,0,0,-0.011787,1.000000,0.700000,1,103.114
14.299457,0.048996,0.012850,-0.057171,1.009636,1.011335,-0.008325,-0.003459,-0.005360,0.010488,-0.005360,0.000000,0.159609,MOVE,0,0,-0.012050,1.000000,0.700000,1,102.995
14.340958,0.041501,0.032730,-0.068026,1.002569,1.005407,-0.007407,-0.005902,-0.003221,0.010004,-0.003221,0.000000,0.148514,MOVE,0,0,-0.012183,1.000000,0.700000,1,102.938
14.379149,0.038191,0.042913,-0.077675,1.024258,1.028095,0.000840,-0.004679,-0.001694,0.005047,-0.001694,0.000000,0.158948,MOVE,0,0,-0.012248,1.000000,0.700000,1,102.457
14.427717,0.048568,0.035397,-0.071644,1.015972,1.019110,0.001451,0.010896,0.001054,0.011042,0.001054,0.000000,0.160253,MOVE,0,0,-0.012197,1.000000,0.700000,1,102.248
14.472671,0.044953,0.029094,-0.060065,1.026451,1.028619,-0.008017,0.008451,0.001054,0.011696,0.001054,0.000000,0.169984,MOVE,0,0,-0.012149,1.000000,0.700000,1,102.055
14.514558,0.041887,0.021820,-0.061030,1.013779,1.015849,-0.005573,-0.000102,-0.003832,0.006764,-0.003832,0.000000,0.167249,MOVE,0,0,-0.012310,1.000000,0.700000,1,101.584
14.559521,0.044964,0.034427,-0.068026,1.011586,1.014455,-0.004655,-0.001934,-0.000167,0.005044,-0.000167,0.000000,0.163534,MOVE,0,0,-0.012317,1.000000,0.700000,1,101.041
14.608225,0.048704,0.037337,-0.066096,1.014023,1.016860,0.001453,0.005396,-0.001083,0.005693,-0.001083,0.000000,0.162354,MOVE,0,0,-0.012370,1.000000,0.700000,1,100.340
14.653482,0.045256,0.035882,-0.070438,1.015728,1.018800,0.004202,-0.000407,-0.000778,0.004293,-0.000778,0.000000,0.163039,MOVE,0,0,-0.012405,1.000000,0.700000,1,99.907
14.696492,0.043010,0.037822,-0.070197,1.017922,1.021040,0.003895,0.005700,0.001971,0.007180,0.001971,0.000000,0.165671,MOVE,0,0,-0.012321,1.000000,0.700000,1,99.546
14.738611,0.042119,0.026184,-0.059342,1.036686,1.038714,-0.004352,0.012111,0.004719,0.013707,0.004719,0.000000,0.183946,MOVE,0,0,-0.012122,1.000000,0.700000,1,99.800
14.779984,0.041373,0.020608,-0.063442,1.020846,1.023023,0.000535,0.002641,-0.079268,0.079314,-0.079268,0.000000,0.186272,MOVE,0,0,-0.015401,1.000000,0.700000,1,100.280
14.824965,0.044982,0.030791,-0.071644,1.014266,1.017260,0.000535,0.004473,-0.001078,0.004632,-0.001078,0.000000,0.183179,MOVE,0,0,-0.015450,1.000000,0.700000,1,100.999
14.866329,0.041364,0.028609,-0.061754,1.020602,1.022869,0.000535,-0.000109,0.001060,0.001192,0.001060,0.000000,0.185443,MOVE,0,0,-0.015406,1.000000,0.700000,1,101.847
14.911294,0.044965,0.019881,-0.026052,1.160728,1.161191,0.001451,-0.122892,-0.008103,0.123167,-0.008103,0.000000,0.311970,MOVE,0,0,-0.015770,1.000000,0.700000,1,102.578
14.952656,0.041362,0.037094,-0.067784,1.041073,1.043936,0.006032,0.001725,0.000449,0.006290,0.000449,0.000000,0.320316,MOVE,0,0,-0.015752,1.000000,0.700000,1,102.900
14.997645,0.044989,0.034912,-0.073333,1.017922,1.021157,0.008169,-0.001023,0.003510,0.008950,0.003510,0.000000,0.307325,MOVE,0,0,-0.015594,1.000000,0.700000,1,103.698
15.046000,0.048354,0.032488,-0.117959,1.017191,1.024523,0.000227,0.006002,0.000761,0.006054,0.000761,0.000000,0.298663,MOVE,0,0,-0.015557,1.000000,0.700000,1,104.830
15.090899,0.044899,0.126314,-0.137981,1.031812,1.048633,0.039628,-0.099678,0.007175,0.107506,0.007175,0.000000,0.312567,MOVE,0,0,-0.015235,1.000000,0.700000,1,106.069
15.132314,0.041415,0.073461,-0.048004,1.147568,1.150919,-0.059332,0.114125,0.022447,0.130571,0.022447,0.000000,0.417137,MOVE,0,0,-0.014305,1.000000,0.700000,1,107.552
15.174985,0.042672,-0.027646,-0.007960,0.985997,0.986417,-0.000689,-0.025763,0.031915,0.041022,0.031915,0.000000,0.363199,MOVE,0,0,-0.012943,1.000000,0.700000,1,109.259
15.220850,0.045864,-0.084911,-0.008925,0.890468,0.894552,0.019775,0.035629,0.242053,0.245459,0.242053,0.000000,0.231976,MOVE,0,0,-0.001842,1.000000,0.700000,1,111.522
15.269573,0.048723,0.069097,-0.030877,1.000132,1.002991,-0.011685,-0.006215,0.108273,0.109079,0.108273,0.000000,0.211470,MOVE,0,0,0.003434,1.000000,0.700000,1,113.221
15.315063,0.045490,0.027639,-0.064890,1.023283,1.025711,0.008473,-0.005911,0.117417,0.117871,0.117417,0.000000,0.213463,MOVE,0,0,0.008775,1.000000,0.700000,1,114.866
15.363508,0.048445,0.038549,-0.069473,1.013535,1.016645,-0.002215,0.041122,0.048381,0.063534,0.048381,0.000000,0.207097,MOVE,0,0,0.011119,1.000000,0.700000,1,116.547
15.401653,0.038145,-0.090589,-0.008684,1.031325,1.035332,0.018860,-0.013856,0.519358,0.519885,0.519358,0.000000,0.218186,MOVE,0,0,0.030930,1.000000,0.700000,1,119.400
15.450068,0.048415,0.008728,-0.091666,1.005737,1.009943,-0.000077,-0.013245,0.472627,0.472812,0.472627,0.000000,0.205317,MOVE,0,0,0.053812,1.000000,0.700000,1,121.417
15.495067,0.044999,0.011395,-0.038837,0.912645,0.913542,-0.037645,0.097932,0.663217,0.671464,0.663217,0.000000,0.106973,MOVE,0,0,0.083656,1.000000,0.700000,1,124.174
15.543981,0.048914,0.030548,-0.067784,0.856107,0.859330,0.013973,0.043871,0.852280,0.853522,0.852280,0.000000,-0.030328,MOVE,1,1,0.125344,1.545685,0.768759,1,126.225
15.582184,0.038203,0.133345,-0.125196,0.998182,1.014802,0.011224,0.065556,0.439946,0.444945,0.439946,0.000000,-0.013974,MOVE,0,1,0.142152,1.545685,0.768759,1,126.133
15.623706,0.041522,0.053096,-0.136534,0.997695,1.008393,0.003589,0.000499,-0.002932,0.004661,-0.002932,0.000000,-0.005023,MOVE,0,1,0.142030,1.545685,0.768759,1,126.198
15.665264,0.041558,0.036609,-0.071885,0.988434,0.991721,0.005725,-0.024237,0.002260,0.025007,0.002260,0.000000,-0.011972,MOVE,0,1,0.142124,1.545685,0.768759,1,126.328
15.710301,0.045037,-0.004690,-0.063201,1.011829,1.013812,0.001754,-0.004996,0.000733,0.005345,0.000733,0.000000,0.001656,MOVE,0,1,0.142157,1.545685,0.768759,1,126.416
15.759186,0.048885,-0.006171,-0.049451,0.996720,0.997965,0.013360,-0.060883,-0.008734,0.062941,-0.008734,0.000000,-0.000341,MOVE,0,1,0.141730,1.545685,0.768759,1,126.206
15.804278,0.045092,0.023517,-0.111688,0.977468,0.984109,0.030463,-0.047132,-0.012704,0.057540,-0.012704,0.000000,-0.014608,MOVE,0,1,0.141157,1.545685,0.768759,1,125.313
15.845688,0.041410,0.027154,-0.092631,1.041073,1.045538,-0.006494,0.041138,-0.005679,0.042033,-0.005679,0.000000,0.027837,MOVE,0,1,0.140922,1.545685,0.768759,1,125.305
15.890730,0.045043,-0.038753,-0.040767,1.064468,1.065953,0.006952,-0.029432,0.000427,0.030245,0.000427,0.000000,0.084411,MOVE,0,1,0.140941,1.545685,0.768759,1,125.167
15.939209,0.048479,0.043398,-0.074539,1.018653,1.022298,0.000844,-0.006220,-0.002322,0.006692,-0.002322,0.000000,0.096038,MOVE,0,1,0.140829,1.545685,0.768759,1,124.158
15.977064,0.037855,0.001697,-0.049934,1.007443,1.008681,0.003592,-0.001944,0.002864,0.004988,0.002864,0.000000,0.094247,MOVE,0,1,0.140937,1.545685,0.768759,1,122.409
16.025540,0.048476,0.023517,-0.067784,1.032056,1.034547,0.002980,-0.002859,-0.078985,0.079093,-0.078985,0.000000,0.115915,MOVE,0,1,0.137108,1.545685,0.768759,1,119.634
16.070413,0.044873,0.021335,-0.059100,1.028644,1.030562,-0.000380,0.008748,0.001650,0.008910,0.001650,0.000000,0.131829,MOVE,0,1,0.137182,1.545685,0.768759,1,116.685
16.111883,0.041471,0.032488,-0.066820,0.995014,0.997784,-0.004044,0.012107,0.000428,0.012772,0.000428,0.000000,0.116652,MOVE,0,1,0.137200,1.545685,0.768759,1,113.585
16.157325,0.045441,0.013577,-0.061271,1.029132,1.031044,0.001454,-0.002249,0.001046,0.002875,0.001046,0.000000,0.132926,MOVE,0,1,0.137247,1.545685,0.768759,1,110.554
16.205804,0.048479,0.001940,-0.060548,1.034737,1.036509,-0.001906,0.011188,0.001962,0.011517,0.001962,0.000000,0.152491,MOVE,0,1,0.137342,1.545685,0.768759,1,107.495
16.251513,0.045709,0.018426,-0.063442,1.009149,1.011309,-0.001600,0.004773,0.001045,0.005142,0.001045,0.000000,0.147420,MOVE,0,1,0.137390,1.545685,0.768759,1,104.695
16.300226,0.048713,0.026184,-0.064890,1.000863,1.003306,0.001759,0.004162,0.000434,0.004539,0.000434,0.000000,0.135653,MOVE,0,1,0.137411,1.545685,0.768759,1,101.944
16.345140,0.044914,0.015759,-0.070920,1.014023,1.016622,-0.000685,-0.002863,0.001045,0.003124,0.001045,0.000000,0.137047,MOVE,0,1,0.137458,1.545685,0.768759,1,99.124
16.386678,0.041538,0.022305,-0.063442,1.025720,1.027922,0.003286,-0.001945,0.001045,0.003959,0.001045,0.000000,0.148473,MOVE,0,1,0.137502,1.545685,0.768759,1,96.393
16.431716,0.045038,0.018426,-0.072850,1.014266,1.017046,0.001147,0.003247,0.000740,0.003522,0.000740,0.000000,0.148967,MOVE,0,1,0.137535,1.545685,0.768759,1,93.969
16.480091,0.048375,0.018668,-0.061995,1.026451,1.028491,0.008476,-0.005916,-0.026441,0.028390,-0.026441,0.000000,0.159712,MOVE,0,1,0.136256,1.545685,0.768759,1,90.030
16.518285,0.038194,0.085583,0.718909,0.935309,1.182775,-0.507399,0.940925,2.013544,2.279726,2.013544,0.000000,0.308238,MOVE,0,1,0.213162,1.545685,0.768759,1,91.227
16.559706,0.041421,0.131163,0.383855,0.986241,1.066405,-0.055054,-0.281721,0.562433,0.631450,0.562433,0.000000,0.337179,MOVE,0,1,0.236458,1.545685,0.768759,1,88.724
16.601698,0.041992,0.053096,-0.059100,1.132703,1.135486,0.021610,0.001415,-0.317518,0.318256,-0.317518,0.000000,0.425399,MOVE,0,1,0.223125,1.545685,0.768759,1,85.344
16.646572,0.044874,0.038791,-0.114582,0.999157,1.006454,-0.138437,0.184063,-0.014224,0.230752,-0.014224,0.000000,0.388667,MOVE,0,1,0.222487,1.545685,0.768759,1,82.958
16.695251,0.048679,-0.050601,-0.116030,0.989653,0.997716,0.029246,-0.017828,0.129024,0.133493,0.129024,0.000000,0.347744,MOVE,0,1,0.228768,1.545685,0.768759,1,80.558
16.740489,0.045238,0.153468,-0.271862,1.022065,1.068680,0.083613,-0.337615,-0.888066,0.953749,-0.888066,0.000000,0.374782,MOVE,0,1,0.188593,1.545685,0.768759,1,75.587
16.781852,0.041363,-0.177722,0.073809,1.037418,1.055115,-0.133244,-0.186732,-0.622340,0.663272,-0.622340,0.000000,0.386907,MOVE,0,1,0.162852,1.545685,0.768759,1,72.561
16.826951,0.045099,0.124132,-0.301774,1.301585,1.341864,-1.089554,-0.869068,-0.191680,1.406822,-0.191680,0.000000,0.655894,MOVE,0,1,0.154207,1.545685,0.768759,1,70.744
16.875408,0.048457,0.038064,0.372687,0.596814,0.704649,1.297097,-1.106695,-0.169383,1.713454,-0.169383,0.000000,0.324489,MOVE,0,1,0.145999,1.545685,0.768759,1,65.477
16.920413,0.045004,-0.083924,0.486071,1.099316,1.204909,-0.090484,0.907939,0.559379,1.070254,0.559379,0.000000,0.476458,MOVE,0,1,0.171174,1.545685,0.768759,1,62.546
16.961839,0.041427,-0.325329,-0.556991,1.545769,1.674957,-2.849151,-0.295160,-2.702031,3.937734,-2.702031,0.000000,1.036273,MOVE,0,1,0.059238,1.545685,0.768759,1,55.371
17.006847,0.045008,0.461859,-0.020263,0.404780,0.614469,-1.954234,-1.239558,-1.844681,2.959456,-1.844681,0.000000,0.585668,MOVE,0,1,-0.023788,1.545685,0.768759,1,51.658
17.048230,0.041382,0.241961,-0.613920,0.666511,0.937912,-0.634154,-0.764305,1.472928,1.776465,1.472928,0.000000,0.471222,MOVE,0,1,0.037165,1.545685,0.768759,1,56.738
17.101846,0.053616,0.543079,0.539728,2.032432,2.171870,-1.773112,-0.855935,1.502555,2.476736,1.502555,0.000000,1.478783,MOVE,0,1,0.117726,1.545685,0.768759,1,60.273
17.145036,0.043191,0.251416,-0.397540,0.898998,1.014616,0.061927,-0.157105,-0.365166,0.402322,-0.365166,0.000000,1.344059,MOVE,0,1,0.101954,1.545685,0.768759,1,59.204
17.188676,0.043640,0.357365,-0.591245,1.126367,1.321356,-1.077642,0.223770,-0.313242,1.144336,-0.313242,0.000000,1.498874,MOVE,0,1,0.088284,1.545685,0.768759,1,57.595
17.236840,0.048163,0.228869,-0.003136,0.807611,0.839421,-0.203188,0.983075,-0.907003,1.352914,-0.907003,0.000000,1.204465,MOVE,0,1,0.044600,1.545685,0.768759,1,54.470
17.281368,0.044529,0.239294,-0.408637,1.232375,1.320225,0.781221,1.185272,-0.366082,1.466012,-0.366082,0.000000,1.372221,MOVE,0,1,0.028298,1.545685,0.768759,1,52.724
17.332010,0.050642,0.180380,-0.413702,1.282333,1.359435,0.861855,1.665717,-0.315991,1.901909,-0.315991,0.000000,1.558490,MOVE,0,1,0.012296,1.545685,0.768759,1,51.265
17.375827,0.043817,0.192017,-0.447715,1.201669,1.296660,0.077504,1.833400,-0.398152,1.877734,-0.398152,0.000000,1.669636,MOVE,0,1,-0.005150,1.545685,0.768759,1,49.401
17.426666,0.050839,0.048004,-0.416838,1.070317,1.149624,-0.270995,0.056087,-0.478176,0.552482,-0.478176,0.000000,1.637334,MOVE,0,1,-0.029460,1.545685,0.768759,1,49.159
17.469896,0.043229,0.060369,-0.355326,1.244803,1.295931,0.142256,-0.060283,-0.426558,0.453676,-0.426558,0.000000,1.739938,MOVE,0,1,-0.047900,1.545685,0.768759,1,49.096
17.513472,0.043577,0.027639,-0.434689,0.999644,1.090416,0.384464,0.073497,-0.051181,0.394758,-0.051181,0.000000,1.647319,MOVE,0,1,-0.050130,1.545685,0.768759,1,49.703
17.563774,0.050302,0.039276,-0.236401,1.099804,1.125610,0.254350,-0.901139,-0.184960,0.954440,-0.184960,0.000000,1.595636,MOVE,0,1,-0.059434,1.545685,0.768759,1,50.388
17.614837,0.051063,0.087038,-0.278375,1.008417,1.049749,0.200593,-0.530649,-0.507192,0.760966,-0.507192,0.000000,1.480847,MOVE,0,1,-0.085332,1.545685,0.768759,1,49.507
17.658763,0.043926,0.204624,-0.276927,1.072266,1.126195,0.020388,0.787293,-0.218864,0.817403,-0.218864,0.000000,1.446337,MOVE,0,1,-0.094946,1.545685,0.768759,1,48.180
17.702610,0.043846,0.055035,-0.257147,0.781779,0.824823,0.383242,-0.044400,-0.166940,0.420375,-0.166940,0.000000,1.144044,MOVE,0,1,-0.102266,1.545685,0.768759,1,47.748
17.746807,0.044197,0.132860,-0.239537,0.829057,0.873135,0.395154,0.740562,0.014792,0.839522,0.014792,0.000000,0.915461,MOVE,0,1,-0.101612,1.545685,0.768759,1,47.504
17.790099,0.043292,0.029336,-0.135087,0.805906,0.817675,0.418061,-0.296077,-0.171216,0.540140,-0.171216,0.000000,0.659823,MOVE,0,1,-0.109025,1.545685,0.768759,1,46.900
17.840704,0.050605,0.199533,-0.425281,0.861712,0.981440,0.493809,-0.679395,0.114363,0.847646,0.114363,0.000000,0.577137,MOVE,0,1,-0.103237,1.545685,0.768759,1,47.123
17.884056,0.043352,0.040246,-0.181643,0.853914,0.873947,0.298332,-0.108846,0.184918,0.367484,0.184918,0.000000,0.405975,MOVE,0,1,-0.095221,1.545685,0.768759,1,47.500
17.934853,0.050797,0.042428,-0.190086,0.853183,0.875131,0.188682,0.428410,0.004408,0.468140,0.004408,0.000000,0.252995,MOVE,0,1,-0.094997,1.545685,0.768759,1,47.295
17.978360,0.043507,0.027639,-0.134363,0.837586,0.848745,-0.141491,0.751252,0.049612,0.766068,0.049612,0.000000,0.091566,MOVE,0,1,-0.092838,1.545685,0.768759,1,47.227
18.022064,0.043704,0.011153,-0.292607,0.750343,0.805455,-0.045891,1.111968,-0.094247,1.116898,-0.094247,0.000000,-0.092682,MOVE,0,1,-0.096957,1.545685,0.768759,1,46.954
18.072774,0.050710,-0.117987,-0.082258,0.825645,0.838079,-0.374536,0.034401,-0.117460,0.394027,-0.117460,0.000000,-0.229142,MOVE,0,1,-0.102914,1.545685,0.768759,1,47.260
18.116834,0.044060,-0.072817,-0.243638,0.865855,0.902423,-0.300621,0.100069,-0.393876,0.505496,-0.393876,0.000000,-0.294047,MOVE,0,1,-0.120268,1.545685,0.768759,1,47.627
18.164080,0.047246,-0.222646,-0.202630,0.843435,0.895551,-0.411494,-1.099059,0.009295,1.173603,0.009295,0.000000,-0.358647,MOVE,0,1,-0.119829,1.545685,0.768759,1,49.493
18.207557,0.043477,0.004122,-0.297914,0.875603,0.924905,0.432111,0.486136,0.700794,0.956118,0.700794,0.000000,-0.390367,MOVE,0,1,-0.089361,1.545685,0.768759,1,52.145
18.252572,0.045015,-0.038753,-0.103727,0.956510,0.962898,0.680734,0.009661,0.611302,0.914977,0.611302,0.000000,-0.384722,MOVE,0,1,-0.061843,1.545685,0.768759,1,55.022
18.303570,0.050998,-0.065165,-0.094561,1.046922,1.053201,0.744874,-0.012024,0.546551,0.923959,0.546551,0.000000,-0.298369,MOVE,0,1,-0.033970,1.545685,0.768759,1,57.209
18.346840,0.043270,0.078795,-0.038355,0.913376,0.917570,0.384158,0.293408,0.368483,0.607821,0.368483,0.000000,-0.342719,MOVE,0,1,-0.018025,1.545685,0.768759,1,58.641
18.397499,0.050658,-0.019500,-0.117959,1.103947,1.110402,0.598267,-0.189175,0.399332,0.743758,0.399332,0.000000,-0.209085,MOVE,0,1,0.002204,1.545685,0.768759,1,59.669
18.440821,0.043323,-0.113544,0.000971,0.781292,0.789500,0.671876,-0.441463,0.451256,0.921921,0.451256,0.000000,-0.377626,MOVE,0,1,0.021754,1.545685,0.768759,1,60.492
18.484014,0.043192,0.002424,0.009226,0.900947,0.900998,-0.626823,0.380762,0.673611,0.995811,0.673611,0.000000,-0.428966,MOVE,0,1,0.050849,1.545685,0.768759,1,60.583
18.535240,0.051226,0.057460,-0.013026,1.057888,1.059527,-0.801531,0.654430,0.460113,1.132446,0.460113,0.000000,-0.332494,MOVE,0,1,0.074418,1.545685,0.768759,1,59.636
18.578781,0.043541,-0.020734,-0.032807,1.105165,1.105846,-0.388586,0.019741,0.047779,0.392010,0.047779,0.000000,-0.203983,MOVE,0,1,0.076499,1.545685,0.768759,1,58.848
18.622488,0.043706,0.034427,-0.134363,1.062762,1.071775,0.065898,0.340445,0.270440,0.439753,0.270440,0.000000,-0.118987,MOVE,0,1,0.088319,1.545685,0.768759,1,59.048
18.666403,0.043916,-0.112557,-0.035460,0.932628,0.940064,0.230526,0.047535,0.221876,0.323467,0.221876,0.000000,-0.161031,MOVE,0,1,0.098063,1.545685,0.768759,1,59.500
18.713529,0.047125,-0.078741,-0.047039,0.955292,0.959685,0.062232,-0.262479,0.179421,0.323975,0.179421,0.000000,-0.181211,MOVE,0,1,0.106518,1.545685,0.768759,1,60.001
18.751828,0.038299,-0.081949,-0.160898,1.015485,1.031413,0.299554,0.026155,0.191027,0.356241,0.191027,0.000000,-0.134818,MOVE,0,1,0.113834,1.545685,0.768759,1,60.672
18.802990,0.051162,-0.119468,-0.074298,0.901435,0.912347,0.312687,0.103735,0.185529,0.378094,0.185529,0.000000,-0.200224,MOVE,0,1,0.123326,1.545685,0.768759,1,60.885
18.846700,0.043710,-0.223633,-0.124231,1.000619,1.032804,0.287336,-0.279889,0.359320,0.538527,0.359320,0.000000,-0.150678,MOVE,0,1,0.139032,1.545685,0.768759,1,61.065
18.897396,0.050696,-0.133785,-0.049210,1.043266,1.052960,0.615066,-0.538285,0.340384,0.885391,0.340384,0.000000,-0.087946,MOVE,0,1,0.156288,1.545685,0.768759,1,59.622
18.940948,0.043552,-0.034310,0.011411,0.975275,0.975945,0.359724,-0.148247,0.038005,0.390926,0.038005,0.000000,-0.100801,MOVE,0,1,0.157943,1.545685,0.768759,1,55.685
18.991709,0.050762,-0.165380,0.029863,0.970401,0.984845,0.484340,-0.424053,-0.118682,0.654593,-0.118682,0.000000,-0.104360,MOVE,0,1,0.151919,1.545685,0.768759,1,50.775
19.035441,0.043732,-0.110336,0.027921,0.935065,0.941966,0.239078,0.265003,0.048695,0.360217,0.048695,0.000000,-0.146155,MOVE,0,1,0.154048,1.545685,0.768759,1,45.993
19.086087,0.050646,-0.172044,0.016995,1.019384,1.033940,-0.008933,-0.079525,0.023345,0.083361,0.023345,0.000000,-0.100994,MOVE,0,1,0.155231,1.545685,0.768759,1,41.359
19.129970,0.043882,-0.151310,0.049287,0.998426,1.011028,0.105298,0.034401,-0.214282,0.241222,-0.214282,0.000000,-0.080969,MOVE,0,1,0.145827,1.545685,0.768759,1,36.429
19.177325,0.047355,-0.212032,-0.021469,1.038149,1.059798,-0.060857,0.299212,-0.140673,0.336184,-0.140673,0.000000,-0.019054,MOVE,1,2,0.139166,2.090368,0.845053,0,31.933
19.220780,0.043455,-0.095525,0.036176,1.096636,1.101383,-0.050167,0.392063,-0.125707,0.414768,-0.125707,0.000000,0.074096,MOVE,0,2,0.133703,2.090368,0.845053,0,27.508
19.264277,0.043497,-0.099968,-0.026535,1.149762,1.154404,-0.200745,0.513014,-0.126012,0.565121,-0.126012,0.000000,0.205650,MOVE,0,2,0.128222,2.090368,0.845053,0,23.039
19.315194,0.050917,0.065218,-0.024123,1.284282,1.286164,-0.223958,0.479417,-0.271703,0.594828,-0.271703,0.000000,0.442632,MOVE,0,2,0.114388,2.090368,0.845053,0,18.446
19.358727,0.043534,0.059884,0.033505,1.139770,1.141834,-0.304898,0.333420,-0.381659,0.591435,-0.381659,0.000000,0.526020,MOVE,0,2,0.097773,2.090368,0.845053,0,13.173
19.409581,0.050854,-0.006911,-0.052105,1.216778,1.217913,-0.239535,-0.122896,-0.331874,0.427341,-0.331874,0.000000,0.669540,MOVE,0,2,0.080896,2.090368,0.845053,0,8.192
19.453109,0.043528,0.042428,-0.043662,1.064224,1.065964,0.082086,0.116563,-0.387768,0.413145,-0.387768,0.000000,0.661953,MOVE,0,2,0.064017,2.090368,0.845053,0,3.370
19.496733,0.043624,-0.167601,-0.056688,1.083964,1.098308,0.115683,-0.434438,0.017541,0.449918,0.017541,0.000000,0.684235,MOVE,0,2,0.064782,2.090368,0.845053,0,359.446
19.540623,0.043890,0.051399,0.071381,0.929460,0.933613,0.409815,-0.072500,-0.212449,0.467268,-0.212449,0.000000,0.556063,MOVE,0,2,0.055458,2.090368,0.845053,0,355.271
19.591601,0.050978,-0.106386,0.084492,0.866342,0.876930,0.270843,0.066166,-0.283615,0.397708,-0.283615,0.000000,0.389694,MOVE,0,2,0.041000,2.090368,0.845053,0,350.791
19.635191,0.043590,-0.134279,0.055114,0.994771,1.005304,0.257404,-0.194062,-0.150447,0.355740,-0.150447,0.000000,0.355498,MOVE,0,2,0.034442,2.090368,0.845053,0,346.955
19.679207,0.044016,-0.121937,0.077208,0.891443,0.903051,0.019776,-0.029737,-0.118672,0.123929,-0.118672,0.000000,0.232694,MOVE,0,2,0.029218,2.090368,0.845053,0,343.568
19.730396,0.051188,-0.093304,0.042003,0.958460,0.963906,-0.048023,-0.123795,-0.018790,0.134106,-0.018790,0.000000,0.176940,MOVE,0,2,0.028256,2.090368,0.845053,0,340.665
19.774076,0.043680,-0.088367,0.063369,0.922636,0.929022,-0.119787,-0.001306,0.151024,0.192767,0.151024,0.000000,0.095366,MOVE,0,2,0.034853,2.090368,0.845053,0,338.294
19.824889,0.050813,-0.095525,0.083278,0.930922,0.939508,-0.109381,-0.094461,0.096028,0.173518,0.096028,0.000000,0.031387,MOVE,1,3,0.039733,2.639934,0.866901,0,336.152
19.868430,0.043540,-0.097500,0.073323,0.932872,0.940814,-0.042183,-0.063607,0.186115,0.201156,0.186115,0.000000,-0.025019,MOVE,0,3,0.047836,2.639934,0.866901,0,334.479
19.919210,0.050781,-0.150817,0.074537,0.948712,0.963512,-0.098985,-0.067877,0.163193,0.202577,0.163193,0.000000,-0.055356,MOVE,0,3,0.056123,2.639934,0.866901,0,332.788
19.962797,0.043586,-0.155753,0.049287,0.986729,1.000161,0.069621,-0.150946,0.183644,0.247703,0.183644,0.000000,-0.049676,MOVE,0,3,0.064128,2.639934,0.866901,0,331.267
20.013582,0.050786,-0.119715,0.100273,1.022308,1.034167,0.025935,0.201221,0.099638,0.226031,0.099638,0.000000,-0.013958,MOVE,0,3,0.069188,2.639934,0.866901,0,329.621
20.057081,0.043498,-0.057266,0.111685,1.092006,1.099195,-0.160073,0.179535,-0.231757,0.334017,-0.231757,0.000000,0.076713,MOVE,0,3,0.059107,2.639934,0.866901,0,327.173
20.100833,0.043752,-0.051835,0.005827,1.195820,1.196958,0.024103,0.159682,-0.428455,0.457879,-0.428455,0.000000,0.246303,MOVE,0,3,0.040361,2.639934,0.866901,0,324.002
20.147939,0.047106,-0.154519,-0.109758,1.104434,1.120579,-0.053172,-0.002503,-0.347516,0.351569,-0.347516,0.000000,0.330194,MOVE,0,3,0.023991,2.639934,0.866901,0,320.929
20.191768,0.043829,-0.156494,-0.066337,1.119300,1.132132,-0.041260,-0.127730,0.074898,0.153711,0.074898,0.000000,0.416094,MOVE,0,3,0.027274,2.639934,0.866901,0,318.671
20.236386,0.044618,0.044610,0.005827,1.104434,1.105350,-0.292020,-0.319847,-0.006042,0.433145,-0.006042,0.000000,0.469299,MOVE,0,3,0.027004,2.639934,0.866901,0,316.227
20.280250,0.043864,-0.006911,-0.077434,1.111014,1.113731,-0.320425,0.027124,0.132319,0.347730,0.132319,0.000000,0.524727,MOVE,0,3,0.032808,2.639934,0.866901,0,314.183
20.324208,0.043958,0.069340,-0.053552,1.070317,1.073896,-0.037897,0.035062,0.047710,0.070298,0.047710,0.000000,0.538761,MOVE,0,3,0.034905,2.639934,0.866901,0,311.992
20.371466,0.047259,0.009940,-0.075262,0.905578,0.908754,0.022884,0.273300,0.188820,0.332971,0.188820,0.000000,0.402763,MOVE,0,3,0.043829,2.639934,0.866901,0,310.172
20.415318,0.043852,-0.089108,-0.086359,0.924098,0.932393,-0.054085,-0.095052,0.573360,0.583696,0.573360,0.000000,0.301640,MOVE,0,3,0.068971,2.639934,0.866901,0,309.251
20.466039,0.050721,0.108131,-0.032083,1.073485,1.079394,0.002115,-0.029078,0.385213,0.386315,0.385213,0.000000,0.342931,MOVE,0,3,0.088510,2.639934,0.866901,0,307.542
20.509863,0.043824,0.001697,-0.057171,0.928729,0.930488,0.025022,0.093095,0.244103,0.262448,0.244103,0.000000,0.246077,MOVE,0,3,0.099207,2.639934,0.866901,0,305.594
20.560488,0.050625,-0.129342,-0.065372,0.918737,0.930097,0.131618,-0.094441,0.325043,0.363174,0.325043,0.000000,0.158557,MOVE,0,3,0.115663,2.639934,0.866901,0,303.717
20.604940,0.044452,-0.082443,-0.044868,0.917031,0.921822,0.157885,-0.033049,0.270981,0.315358,0.270981,0.000000,0.072341,MOVE,0,3,0.127708,2.639934,0.866901,0,302.001
20.648478,0.043539,-0.085652,-0.008925,0.898267,0.902385,0.162161,-0.076115,0.157971,0.238840,0.157971,0.000000,-0.022746,MOVE,1,4,0.134586,3.184960,0.940700,0,300.189
20.699161,0.050683,-0.109348,0.015782,0.918981,0.925598,0.192399,-0.260902,0.091387,0.336807,0.091387,0.000000,-0.087434,MOVE,0,4,0.139218,3.184960,0.940700,0,298.200
20.742769,0.043609,-0.043690,0.038118,1.000376,1.002054,0.086704,0.036903,-0.052468,0.107853,-0.052468,0.000000,-0.076841,MOVE,0,4,0.136930,3.184960,0.940700,0,295.999
20.785918,0.043148,-0.117247,0.061912,0.994283,1.003085,0.161840,0.089743,-0.206406,0.277217,-0.206406,0.000000,-0.066381,MOVE,0,4,0.128024,3.184960,0.940700,0,293.594
20.836691,0.050774,-0.067139,0.020152,1.144888,1.147032,-0.062042,0.063170,-0.342323,0.353589,-0.342323,0.000000,0.072586,MOVE,0,4,0.110643,3.184960,0.940700,0,291.019
20.880144,0.043452,-0.071089,0.021609,1.187535,1.189857,-0.001261,-0.049229,-0.195410,0.201520,-0.195410,0.000000,0.236198,MOVE,0,4,0.102152,3.184960,0.940700,0,288.894
20.923963,0.043820,-0.092563,0.095660,1.036199,1.044714,-0.087393,-0.090768,-0.247945,0.278124,-0.247945,0.000000,0.252821,MOVE,0,4,0.091287,3.184960,0.940700,0,286.881
20.967515,0.043552,-0.028880,0.066525,1.245535,1.247644,-0.339375,-0.129253,0.111550,0.379901,0.111550,0.000000,0.450419,MOVE,0,4,0.096145,3.184960,0.940700,0,285.655
21.011388,0.043873,0.066430,-0.022675,1.200451,1.202501,0.160007,-0.043426,-0.124855,0.207550,-0.124855,0.000000,0.587628,MOVE,0,4,0.090667,3.184960,0.940700,0,284.082
21.058453,0.047065,-0.011601,0.106586,0.901922,0.908272,-0.009508,-0.099931,-0.241530,0.261560,-0.241530,0.000000,0.446310,MOVE,0,4,0.079300,3.184960,0.940700,0,282.452
21.102133,0.043680,0.014304,0.058756,1.031325,1.033096,-0.135651,-0.032125,-0.301090,0.331796,-0.301090,0.000000,0.431466,MOVE,0,4,0.066148,3.184960,0.940700,0,280.967
21.145792,0.043659,0.013335,0.055114,0.922393,0.924134,-0.059904,0.066530,-0.559180,0.566302,-0.559180,0.000000,0.320040,MOVE,0,4,0.041735,3.184960,0.940700,0,279.175
21.189462,0.043670,-0.110582,-0.116995,0.998913,1.011802,-0.176885,-0.315261,-0.113860,0.379001,-0.113860,0.000000,0.298658,MOVE,0,4,0.036763,3.184960,0.940700,0,278.534
21.241255,0.051793,-0.011601,-0.055000,0.920199,0.921914,-0.001872,-0.203167,0.007092,0.203300,0.007092,0.000000,0.198515,MOVE,0,4,0.037130,3.184960,0.940700,0,279.017
21.292540,0.051285,0.059399,-0.003618,0.889737,0.891725,-0.349751,0.328596,0.021138,0.480363,0.021138,0.000000,0.081216,MOVE,0,4,0.038214,3.184960,0.940700,0,279.940
21.343471,0.050931,-0.081703,-0.069473,0.945787,0.951849,-0.113652,0.100133,0.018389,0.152583,0.018389,0.000000,0.029758,MOVE,1,5,0.039151,3.734538,0.962227,0,281.359
21.387131,0.043659,-0.026411,-0.009890,0.979905,0.980311,0.120305,0.136165,-0.081788,0.199257,-0.081788,0.000000,0.009062,MOVE,0,5,0.035580,3.734538,0.962227,0,282.753
21.437818,0.050687,-0.103177,0.071381,0.920687,0.929196,-0.068759,0.113865,0.060852,0.146274,0.060852,0.000000,-0.055568,MOVE,0,5,0.038664,3.734538,0.962227,0,284.177
21.481043,0.043225,-0.109348,0.006070,1.009149,1.015074,-0.048295,0.284296,0.101170,0.305601,0.101170,0.000000,-0.036445,MOVE,0,5,0.043037,3.734538,0.962227,0,285.757
21.525466,0.044424,-0.079975,0.005827,0.981124,0.984395,-0.046768,0.312091,-0.111412,0.334665,-0.111412,0.000000,-0.046845,MOVE,0,5,0.038088,3.734538,0.962227,0,287.097
21.568732,0.043266,-0.055291,-0.057171,1.143913,1.146675,-0.204982,0.390892,-0.191129,0.480983,-0.191129,0.000000,0.089847,MOVE,0,5,0.029819,3.734538,0.962227,0,288.941
21.619582,0.050850,0.017941,-0.105174,1.275266,1.279721,0.101673,0.594005,-0.452274,0.753480,-0.452274,0.000000,0.332611,MOVE,0,5,0.006821,3.734538,0.962227,0,290.146
21.670987,0.051405,-0.109595,-0.049451,1.137577,1.143913,-0.102356,-0.030299,-0.483428,0.495074,-0.483428,0.000000,0.428872,MOVE,0,5,-0.018030,3.734538,0.962227,0,287.972
21.721120,0.050132,-0.057266,-0.147871,1.294518,1.304194,-0.032718,-0.684841,0.230368,0.723289,0.230368,0.000000,0.659759,MOVE,0,5,-0.006481,3.734538,0.962227,0,289.214
21.771770,0.050650,0.240749,-0.047280,1.099073,1.126125,0.167646,-0.181794,-0.100111,0.266789,-0.100111,0.000000,0.707295,MOVE,0,5,-0.011552,3.734538,0.962227,0,292.097
21.815767,0.043997,0.055763,-0.174406,0.855620,0.874993,-0.166497,0.568960,-0.120575,0.604958,-0.120575,0.000000,0.524059,MOVE,0,5,-0.016857,3.734538,0.962227,0,296.825
21.859472,0.043705,-0.111323,-0.124955,0.697460,0.717257,0.271799,0.244285,0.183636,0.408989,0.183636,0.000000,0.217184,MOVE,0,5,-0.008831,3.734538,0.962227,0,301.417
21.910378,0.050905,-0.053563,-0.042938,0.764721,0.767796,-0.129540,0.360044,0.618878,0.727614,0.618878,0.000000,-0.013518,MOVE,1,6,0.022673,4.284397,0.974696,0,301.336
21.954009,0.043631,-0.143658,-0.120854,0.934821,0.953485,0.232398,-0.278311,0.818325,0.895054,0.818325,0.000000,-0.054029,MOVE,0,6,0.058378,4.284397,0.974696,0,298.974
22.004834,0.050826,0.032973,-0.061513,0.997695,1.000133,0.223540,-0.678427,0.869333,1.125155,0.869333,0.000000,-0.048507,MOVE,0,6,0.102562,4.284397,0.974696,0,302.218
22.048487,0.043652,0.110798,-0.047522,0.906065,0.914050,0.371370,-0.177518,0.174779,0.447186,0.174779,0.000000,-0.121011,MOVE,0,6,0.110192,4.284397,0.974696,0,303.608
22.099219,0.050732,-0.117987,-0.010373,0.780561,0.789496,0.081813,-0.029380,0.059626,0.105412,0.059626,0.000000,-0.298363,MOVE,0,6,0.113216,4.284397,0.974696,0,304.330
22.142999,0.043781,-0.163405,-0.007960,0.865124,0.880457,-0.068159,-0.329614,0.085274,0.347222,0.085274,0.000000,-0.376116,MOVE,0,6,0.116950,4.284397,0.974696,0,305.421
22.187714,0.044715,-0.082690,-0.030394,0.976250,0.980217,0.062257,-0.011347,-0.038737,0.074197,-0.038737,0.000000,-0.356309,MOVE,0,6,0.115218,4.284397,0.974696,0,306.479
22.238936,0.051222,-0.140696,-0.014232,1.048140,1.057637,0.115097,-0.073350,-0.102572,0.170730,-0.102572,0.000000,-0.268805,MOVE,0,6,0.109964,4.284397,0.974696,0,307.460
22.287206,0.048270,-0.126627,0.029863,1.183879,1.191006,-0.019599,0.262626,-0.174654,0.316007,-0.174654,0.000000,-0.070019,MOVE,0,6,0.101533,4.284397,0.974696,0,308.390
22.329433,0.042227,-0.090095,0.017724,1.331316,1.334479,0.090967,0.437333,-0.065920,0.451532,-0.065920,0.000000,0.238014,MOVE,0,6,0.098750,4.284397,0.974696,0,309.514
22.367362,0.037928,-0.063437,0.128194,1.223358,1.231691,0.200618,0.477650,-0.297438,0.597383,-0.297438,0.000000,0.422734,MOVE,0,6,0.087468,4.284397,0.974696,0,309.774
22.410263,0.042901,-0.270038,0.135964,1.273316,1.308717,-0.041896,-0.449643,-0.187788,0.489079,-0.187788,0.000000,0.658306,MOVE,0,6,0.079412,4.284397,0.974696,0,309.786
22.458764,0.048501,0.004364,0.123339,1.414417,1.419791,-0.175370,-0.483546,0.237069,0.566368,0.237069,0.000000,0.970287,MOVE,0,6,0.090910,4.284397,0.974696,0,310.836
22.503805,0.045041,0.156378,0.038847,0.885594,0.900134,0.125176,0.431225,-0.453820,0.638417,-0.453820,0.000000,0.783379,MOVE,0,6,0.070470,4.284397,0.974696,0,310.762
22.545715,0.041909,-0.161431,0.061427,0.745712,0.765454,-0.168039,0.276981,-0.251318,0.410020,-0.251318,0.000000,0.493950,MOVE,0,6,0.059937,4.284397,0.974696,0,310.855
22.587121,0.041406,-0.106386,0.097360,0.852695,0.864804,-0.211716,0.145645,-0.147166,0.296132,-0.147166,0.000000,0.322878,MOVE,0,6,0.053843,4.284397,0.974696,0,311.188
22.632380,0.045259,0.094554,0.087405,0.960409,0.969003,-0.411164,0.262015,-0.375324,0.615285,-0.375324,0.000000,0.262693,MOVE,0,6,0.036856,4.284397,0.974696,0,311.066
22.674531,0.042150,-0.093798,-0.027259,0.963821,0.968758,-0.273719,0.148394,-0.305685,0.436333,-0.305685,0.000000,0.208306,MOVE,0,6,0.023972,4.284397,0.974696,0,310.822
22.716241,0.041710,-0.135513,-0.119166,0.928241,0.945619,-0.149713,-0.124052,0.056253,0.202404,0.056253,0.000000,0.138533,MOVE,0,6,0.026318,4.284397,0.974696,0,311.141
22.761440,0.045199,-0.144893,-0.084429,0.808586,0.825793,-0.017767,-0.168950,0.160100,0.233435,0.160100,0.000000,-0.032107,MOVE,1,7,0.033554,4.834088,0.993148,0,311.506
22.802869,0.041429,-0.163899,-0.095767,0.844166,0.865246,0.097076,-0.524474,0.335113,0.629918,0.335113,0.000000,-0.150175,MOVE,0,7,0.047438,4.834088,0.993148,0,312.822
22.847870,0.045001,0.013577,0.045888,0.893393,0.894673,0.260177,-0.181779,0.033345,0.319136,0.033345,0.000000,-0.229952,MOVE,0,7,0.048938,4.834088,0.993148,0,313.845
22.896245,0.048375,-0.071582,0.099545,0.838805,0.847718,-0.157349,0.254990,-0.142279,0.331695,-0.142279,0.000000,-0.344010,MOVE,0,7,0.042056,4.834088,0.993148,0,313.902
22.934195,0.037950,-0.209317,-0.008443,1.045216,1.066002,-0.281966,0.165498,0.021128,0.327629,0.021128,0.000000,-0.250207,MOVE,0,7,0.042857,4.834088,0.993148,0,314.274
22.982637,0.048442,-0.122677,-0.008925,1.068611,1.075666,-0.087100,0.199707,-0.057979,0.225457,-0.057979,0.000000,-0.157087,MOVE,0,7,0.040049,4.834088,0.993148,0,314.474
23.027646,0.045009,-0.092563,-0.072368,1.235543,1.241117,-0.108471,0.103792,-0.036290,0.154453,-0.036290,0.000000,0.075627,MOVE,0,7,0.038415,4.834088,0.993148,0,314.519
23.069098,0.041452,-0.031101,-0.008443,1.195333,1.195767,0.085771,0.001768,-0.119660,0.147236,-0.119660,0.000000,0.244255,MOVE,0,7,0.033455,4.834088,0.993148,0,314.380
23.114262,0.045164,-0.071336,-0.038596,1.309139,1.311650,-0.147885,-0.262736,-0.054297,0.306347,-0.054297,0.000000,0.500314,MOVE,0,7,0.031003,4.834088,0.993148,0,314.584
23.162728,0.048465,0.007273,-0.005066,1.192165,1.192198,-0.323508,-0.263042,0.157062,0.445553,0.157062,0.000000,0.623261,MOVE,0,7,0.038615,4.834088,0.993148,0,315.433
23.208158,0.045430,0.134315,-0.187433,1.146837,1.169789,-0.135667,-0.208980,0.088645,0.264455,0.088645,0.000000,0.713746,MOVE,0,7,0.042642,4.834088,0.993148,0,316.294
23.250590,0.042433,0.014547,-0.153420,0.915082,0.927968,0.371045,0.185639,-0.108054,0.428733,-0.108054,0.000000,0.577542,MOVE,0,7,0.038057,4.834088,0.993148,0,316.878
23.292222,0.041632,-0.103671,-0.094561,0.782023,0.794512,0.104708,0.044224,0.421567,0.436621,0.421567,0.000000,0.334849,MOVE,0,7,0.055608,4.834088,0.993148,0,318.719
23.333766,0.041543,0.004364,-0.097696,0.887300,0.892673,0.094323,0.033228,0.425232,0.436833,0.425232,0.000000,0.204770,MOVE,0,7,0.073273,4.834088,0.993148,0,320.548
23.371650,0.037885,-0.034557,-0.068508,0.894611,0.897896,0.354247,-0.061762,0.444169,0.571481,0.444169,0.000000,0.092399,MOVE,0,7,0.090101,4.834088,0.993148,0,322.475
23.420240,0.048590,-0.005430,-0.005789,0.943594,0.943628,0.036291,-0.214172,0.418207,0.471258,0.418207,0.000000,0.032424,MOVE,1,8,0.110421,5.380738,1.053756,0,323.747
23.458404,0.038164,0.024487,-0.093113,1.074216,1.078522,0.225659,-0.164387,0.237085,0.366271,0.237085,0.000000,0.099851,MOVE,0,8,0.119469,5.380738,1.053756,0,324.487
23.499866,0.041462,-0.037519,-0.034978,0.903628,0.905083,0.422969,-0.152170,0.058102,0.453248,0.058102,0.000000,0.004440,MOVE,0,8,0.121878,5.380738,1.053756,0,324.870
23.541575,0.041709,-0.121443,-0.032565,0.812485,0.822156,0.075075,-0.070613,0.048629,0.113962,0.048629,0.000000,-0.156063,MOVE,0,8,0.123907,5.380738,1.053756,0,325.099
23.586479,0.044904,-0.105892,-0.018092,0.904359,0.910717,-0.016558,-0.250199,-0.016132,0.251264,-0.016132,0.000000,-0.220811,MOVE,0,8,0.123182,5.380738,1.053756,0,325.242
23.635108,0.048629,-0.058006,-0.021952,0.891687,0.893841,0.028643,0.037528,-0.228095,0.232929,-0.228095,0.000000,-0.294273,MOVE,0,8,0.112090,5.380738,1.053756,0,324.844
23.680811,0.045703,-0.072570,-0.016886,1.108090,1.110592,0.012760,0.086702,-0.178309,0.198681,-0.178309,0.000000,-0.165313,MOVE,0,8,0.103941,5.380738,1.053756,0,324.531
23.722325,0.041514,0.011395,-0.007719,1.187535,1.187614,-0.126211,0.403436,-0.235425,0.483854,-0.235425,0.000000,0.020071,MOVE,0,8,0.094167,5.380738,1.053756,0,323.996
23.774802,0.052478,-0.040728,-0.038596,1.265274,1.266518,0.021923,0.509421,-0.252835,0.569136,-0.252835,0.000000,0.257930,MOVE,0,8,0.080899,5.380738,1.053756,0,323.696
23.816353,0.041551,-0.214253,0.015539,1.225551,1.244236,0.066822,-0.246219,-0.059496,0.261971,-0.059496,0.000000,0.451949,MOVE,0,8,0.078427,5.380738,1.053756,0,323.789
23.861215,0.044862,-0.064918,-0.021952,1.399307,1.400984,0.186552,-0.720251,0.579775,0.943240,0.579775,0.000000,0.767640,MOVE,0,8,0.104437,5.380738,1.053756,0,324.949
23.902582,0.041368,0.278570,0.147861,0.998670,1.047285,0.224731,0.059519,0.172022,0.289202,0.172022,0.000000,0.733432,MOVE,0,8,0.111553,5.380738,1.053756,0,325.384
23.947567,0.044985,0.069340,0.140820,0.815410,0.830380,-0.004649,0.113886,-0.400053,0.415974,-0.400053,0.000000,0.507431,MOVE,0,8,0.093557,5.380738,1.053756,0,324.309
23.995963,0.048396,-0.068867,0.035691,0.946519,0.949691,-0.255104,0.062879,0.031523,0.264623,0.031523,0.000000,0.411410,MOVE,0,8,0.095082,5.380738,1.053756,0,324.180
24.041002,0.045039,0.172379,0.089105,0.970401,0.989612,-0.020226,0.213151,-0.294068,0.363756,-0.294068,0.000000,0.360920,MOVE,0,8,0.081838,5.380738,1.053756,0,323.540
24.082395,0.041393,-0.002222,0.123581,0.976737,0.984526,-0.041301,0.103501,-0.181364,0.212864,-0.181364,0.000000,0.310902,MOVE,0,8,0.074331,5.380738,1.053756,0,323.050
24.127347,0.044953,0.028366,0.047345,1.069585,1.071008,-0.058706,-0.117928,-0.035975,0.136556,-0.035975,0.000000,0.343719,MOVE,0,8,0.072714,5.380738,1.053756,0,322.745
24.168885,0.041537,0.048974,0.017238,1.014997,1.016325,-0.044350,0.239436,-0.005734,0.243577,-0.005734,0.000000,0.324039,MOVE,0,8,0.072475,5.380738,1.053756,0,322.537
24.213816,0.044932,-0.075038,-0.042938,0.974300,0.978128,-0.061760,0.167049,0.137208,0.224824,0.137208,0.000000,0.271951,MOVE,0,8,0.078640,5.380738,1.053756,0,322.590
24.256147,0.042331,-0.094044,0.055114,0.825158,0.832326,0.245811,-0.316757,0.104527,0.414347,0.104527,0.000000,0.093849,MOVE,0,8,0.083065,5.380738,1.053756,0,322.326
24.297699,0.041552,-0.071582,0.016024,0.832956,0.836180,-0.220890,-0.009491,-0.012454,0.221445,-0.012454,0.000000,-0.062974,MOVE,0,8,0.082548,5.380738,1.053756,0,321.524
24.342712,0.045013,-0.087873,-0.005789,0.909477,0.913730,-0.097487,0.077550,0.149413,0.194531,0.149413,0.000000,-0.134319,MOVE,0,8,0.089273,5.380738,1.053756,0,321.205
24.391251,0.048539,-0.147114,0.037147,0.866099,0.879289,-0.198891,0.156047,0.222412,0.336712,0.222412,0.000000,-0.229527,MOVE,0,8,0.100069,5.380738,1.053756,0,321.254
24.436231,0.044980,-0.098487,0.004856,1.031812,1.036514,-0.253258,0.167348,0.186676,0.356360,0.186676,0.000000,-0.173712,MOVE,0,8,0.108466,5.380738,1.053756,0,321.078
24.477600,0.041369,-0.067386,-0.003860,1.086644,1.088739,-0.183619,0.245538,-0.021324,0.307343,-0.021324,0.000000,-0.076476,MOVE,0,8,0.107583,5.380738,1.053756,0,320.288
24.522654,0.045054,-0.090589,-0.007237,1.136115,1.139744,-0.250815,0.518901,0.018077,0.576622,0.018077,0.000000,0.056940,MOVE,0,8,0.108398,5.380738,1.053756,0,319.458
24.571068,0.048414,-0.214007,-0.064890,1.374207,1.392283,-0.344888,-0.364716,0.186981,0.535656,0.186981,0.000000,0.404301,MOVE,0,8,0.117450,5.380738,1.053756,0,318.848
24.609071,0.038003,0.109343,-0.156797,1.395408,1.408441,0.086078,0.141386,0.387956,0.421793,0.387956,0.000000,0.731468,MOVE,0,8,0.132194,5.380738,1.053756,0,318.764
24.657437,0.048366,0.059157,-0.028706,1.094686,1.096659,0.445877,0.254090,0.421248,0.663942,0.421248,0.000000,0.745314,MOVE,0,8,0.152568,5.380738,1.053756,0,318.868
24.702528,0.045092,0.079280,0.045645,0.915813,0.920370,0.155411,0.736979,0.193395,0.777620,0.193395,0.000000,0.599116,MOVE,0,8,0.161289,5.380738,1.053756,0,318.035
24.744276,0.041748,-0.039987,-0.056206,0.947737,0.950244,-0.231878,0.366795,0.046177,0.436392,0.046177,0.000000,0.494424,MOVE,0,8,0.163216,5.380738,1.053756,0,316.347
24.789342,0.045066,-0.039741,-0.105898,0.999644,1.006023,0.047288,0.213773,0.284720,0.359166,0.284720,0.000000,0.450403,MOVE,0,8,0.176048,5.380738,1.053756,0,314.717
24.837928,0.048585,0.045822,-0.022675,0.914107,0.915536,0.223828,0.013410,0.032432,0.226562,0.032432,0.000000,0.329344,MOVE,0,8,0.177623,5.380738,1.053756,0,312.301
24.882853,0.044925,0.047035,0.017724,0.959191,0.960507,0.025580,-0.022009,-0.138896,0.142936,-0.138896,0.000000,0.260866,MOVE,0,8,0.171383,5.380738,1.053756,0,309.481
24.924343,0.041490,-0.066892,-0.030153,0.966989,0.969769,0.079935,-0.005215,-0.134292,0.156369,-0.134292,0.000000,0.207572,MOVE,0,8,0.165812,5.380738,1.053756,0,306.376
24.969270,0.044927,-0.089601,-0.040526,0.948956,0.954037,0.092763,-0.146935,-0.216454,0.277574,-0.216454,0.000000,0.145448,MOVE,0,8,0.156087,5.380738,1.053756,0,303.110
25.017831,0.048561,-0.144152,-0.041250,0.986485,0.997814,0.134608,-0.072410,-0.005705,0.152954,-0.005705,0.000000,0.128936,MOVE,0,8,0.155810,5.380738,1.053756,0,300.564
25.055753,0.037922,-0.097994,-0.011096,1.012073,1.016867,0.174305,-0.104166,0.057210,0.210964,0.057210,0.000000,0.131223,MOVE,0,8,0.157979,5.380738,1.053756,0,298.625
25.104179,0.048426,-0.028386,0.005827,0.947981,0.948424,0.017006,0.015868,-0.196282,0.197656,-0.196282,0.000000,0.071682,MOVE,0,8,0.148474,5.380738,1.053756,0,296.328
25.149207,0.045028,-0.097253,-0.012785,1.039123,1.043743,-0.138765,-0.083703,-0.293104,0.334921,-0.293104,0.000000,0.103882,MOVE,0,8,0.135276,5.380738,1.053756,0,293.974
25.190813,0.041607,-0.065905,-0.028947,1.047409,1.049880,0.082368,-0.356760,-0.481556,0.604945,-0.481556,0.000000,0.138385,MOVE,0,8,0.115240,5.380738,1.053756,0,291.096
25.236059,0.045246,-0.062449,-0.013750,1.041804,1.043765,-0.015370,-0.040332,-0.525539,0.527308,-0.525539,0.000000,0.163935,MOVE,0,8,0.091462,5.380738,1.053756,0,288.196
25.284728,0.048669,-0.143658,0.011411,0.974544,0.985141,0.038386,-0.169225,-0.564023,0.590112,-0.564023,0.000000,0.134169,MOVE,0,8,0.064012,5.380738,1.053756,0,285.781
25.329858,0.045130,-0.019253,-0.022434,1.141476,1.141859,0.051825,-0.199157,-0.495301,0.536351,-0.495301,0.000000,0.248425,MOVE,0,8,0.041659,5.380738,1.053756,0,283.538
25.371293,0.041435,0.018183,0.024522,0.947981,0.948472,0.261657,-0.058963,-0.909162,0.947901,-0.909162,0.000000,0.177207,MOVE,0,8,0.003987,5.380738,1.053756,0,280.493
25.416471,0.045178,-0.102930,0.030349,0.993552,0.999331,0.024031,-0.233365,-0.977273,1.005037,-0.977273,0.000000,0.158884,MOVE,0,8,-0.040164,5.380738,1.053756,0,277.244
25.464905,0.048433,-0.094044,-0.015680,0.999157,1.003696,-0.024228,-0.273377,-0.832193,0.876280,-0.832193,0.000000,0.146322,MOVE,0,8,-0.080470,5.380738,1.053756,0,274.422
25.510001,0.045096,-0.033076,-0.000241,1.016216,1.016754,-0.030947,-0.245888,-0.891141,0.924960,-0.891141,0.000000,0.146768,MOVE,0,8,-0.120657,5.380738,1.053756,0,271.223
25.551592,0.041592,-0.032829,0.007769,0.999888,1.000457,-0.026671,-0.023533,-0.985215,0.985857,-0.985215,0.000000,0.132503,MOVE,0,8,-0.161634,5.380738,1.053756,0,267.597
25.596525,0.044932,-0.076519,-0.007960,1.049846,1.052661,-0.110970,-0.036972,-0.916798,0.924229,-0.916798,0.000000,0.166647,MOVE,0,8,-0.202827,5.380738,1.053756,0,263.396
25.645121,0.048596,-0.052823,-0.017609,1.032300,1.033800,0.013035,-0.012232,-0.884727,0.884908,-0.884727,0.000000,0.180403,MOVE,0,8,-0.245822,5.380738,1.053756,0,258.459
25.690230,0.045109,-0.013823,0.038847,1.019140,1.019974,0.071373,-0.010705,-0.936651,0.939427,-0.936651,0.000000,0.180339,MOVE,0,8,-0.288074,5.380738,1.053756,0,252.852
25.732250,0.042020,-0.020981,0.069681,0.999157,1.001804,-0.041332,0.027169,-0.949785,0.951072,-0.949785,0.000000,0.163929,MOVE,0,8,-0.327983,5.380738,1.053756,0,246.895
25.775065,0.042815,-0.020487,0.067011,1.008661,1.011092,-0.059352,0.044578,-1.032557,1.035221,-1.032557,0.000000,0.157519,MOVE,0,8,-0.372193,5.380738,1.053756,0,239.894
25.828467,0.053402,-0.057760,0.062640,1.084207,1.087550,0.025253,-0.161589,-0.965362,0.979118,-0.965362,0.000000,0.220562,MOVE,0,8,-0.423745,5.380738,1.053756,0,233.342
25.870996,0.042528,0.051156,0.107800,1.035468,1.042320,0.143760,-0.009178,-1.225896,1.234330,-1.225896,0.000000,0.236594,MOVE,0,8,-0.475880,5.380738,1.053756,0,225.679
25.920281,0.049286,-0.011354,0.098817,1.016703,1.021557,-0.037667,0.048549,-1.400298,1.401645,-1.400298,0.000000,0.232336,MOVE,0,8,-0.544894,5.380738,1.053756,0,217.922
25.965200,0.044919,-0.018266,0.018452,1.112232,1.112535,0.113523,0.089782,-1.309279,1.317254,-1.309279,0.000000,0.310385,MOVE,0,8,-0.603706,5.380738,1.053756,0,210.771
26.006560,0.041360,0.044368,0.024279,1.041073,1.042301,0.221035,0.419039,-1.417096,1.494193,-1.417096,0.000000,0.317417,MOVE,0,8,-0.662317,5.380738,1.053756,0,203.261
26.051517,0.044957,0.012850,0.023794,1.018165,1.018524,0.312970,0.346957,-1.603105,1.669813,-1.603105,0.000000,0.302347,MOVE,0,8,-0.734387,5.380738,1.053756,0,195.183
26.099928,0.048411,-0.045171,0.012382,0.991115,0.992221,0.037775,0.344513,-1.470547,1.510836,-1.470547,0.000000,0.265111,MOVE,0,8,-0.805578,5.380738,1.053756,0,188.886
26.137881,0.037953,-0.083924,0.012382,1.080065,1.083391,0.055490,0.011897,-1.111664,1.113111,-1.111664,0.000000,0.313652,MOVE,0,8,-0.847769,5.380738,1.053756,0,182.843
26.186442,0.048561,0.088493,0.026950,1.031325,1.035465,0.153534,-0.008567,-1.341349,1.350135,-1.341349,0.000000,0.314206,MOVE,0,8,-0.912907,5.380738,1.053756,0,176.775
26.231621,0.045179,0.090190,-0.013509,1.046922,1.050886,-0.013537,0.302058,-1.498647,1.528844,-1.498647,0.000000,0.328583,MOVE,0,8,-0.980613,5.380738,1.053756,0,170.858
26.273274,0.041653,0.024972,-0.056688,0.953586,0.955596,0.090921,0.410792,-1.646782,1.699678,-1.646782,0.000000,0.255761,MOVE,0,8,-1.049207,5.380738,1.053756,0,164.574
26.318375,0.045100,-0.080468,-0.068991,1.042291,1.047667,0.035943,0.193019,-1.505367,1.518116,-1.505367,0.000000,0.273085,MOVE,0,8,-1.117100,5.380738,1.053756,0,158.472
26.366781,0.048406,-0.054304,-0.074539,1.045703,1.049762,0.116577,0.064126,-1.364562,1.371033,-1.364562,0.000000,0.290562,MOVE,0,8,-1.183154,5.380738,1.053756,0,153.510
26.409413,0.042632,0.002667,-0.028947,1.076896,1.077289,0.164224,0.021976,-1.414958,1.424626,-1.414958,0.000000,0.331066,MOVE,0,8,-1.243476,5.380738,1.053756,0,148.310
26.454493,0.045080,0.093099,-0.047522,1.026451,1.031759,0.150175,0.074205,-1.874024,1.881495,-1.874024,0.000000,0.326543,MOVE,0,8,-1.327957,5.380738,1.053756,0,142.770
26.495900,0.041407,-0.007405,-0.070679,0.990871,0.993417,0.188659,0.156367,-2.004138,2.019062,-2.004138,0.000000,0.287963,MOVE,0,8,-1.410943,5.380738,1.053756,0,137.089
26.537614,0.041714,-0.053563,-0.074298,0.974544,0.978838,0.127267,0.177442,-1.851422,1.864254,-1.851422,0.000000,0.240122,MOVE,0,8,-1.488174,5.380738,1.053756,0,132.304
26.575530,0.037916,-0.026905,-0.048245,0.952367,0.953968,0.021587,0.245248,-1.769871,1.786912,-1.769871,0.000000,0.174681,MOVE,0,8,-1.555280,5.380738,1.053756,0,126.707
26.624155,0.048625,-0.024930,-0.072850,0.995745,0.998718,0.020671,0.114217,-1.751851,1.755692,-1.751851,0.000000,0.156059,MOVE,0,8,-1.640463,5.380738,1.053756,0,121.657
26.669145,0.044990,0.014304,-0.060789,1.012560,1.014484,0.117799,0.123991,-1.753378,1.761699,-1.753378,0.000000,0.153489,MOVE,0,8,-1.719348,5.380738,1.053756,0,117.129
26.710706,0.041561,-0.012835,-0.007960,0.990628,0.990743,0.082674,0.072678,-1.723140,1.726652,-1.723140,0.000000,0.129808,MOVE,0,8,-1.790963,5.380738,1.053756,0,112.468
26.755881,0.045174,0.030548,-0.076469,1.087619,1.090732,0.123296,0.104138,-1.690153,1.697841,-1.690153,0.000000,0.198486,MOVE,0,8,-1.867315,5.380738,1.053756,0,107.473
26.805554,0.049673,0.026911,-0.047039,0.924830,0.926416,0.272348,0.222646,-1.914341,1.946393,-1.914341,0.000000,0.112412,MOVE,0,8,-1.962407,5.380738,1.053756,0,102.682
26.850605,0.045051,-0.071829,-0.039079,1.050577,1.053755,0.090615,0.062904,-1.588139,1.591965,-1.588139,0.000000,0.149550,MOVE,0,8,-2.033953,5.380738,1.053756,0,98.415
26.898991,0.048386,0.005576,-0.024364,1.016460,1.016767,0.193851,0.002123,-1.604632,1.616300,-1.604632,0.000000,0.149685,MOVE,0,8,-2.111596,5.380738,1.053756,0,94.650
26.943994,0.045003,-0.013082,-0.027017,1.026207,1.026646,0.184688,-0.006734,-1.457108,1.468782,-1.457108,0.000000,0.158698,MOVE,0,8,-2.177170,5.380738,1.053756,0,91.473
26.985568,0.041573,-0.004937,-0.058377,1.029863,1.031528,0.109552,0.008232,-1.447945,1.452107,-1.447945,0.000000,0.171204,MOVE,0,8,-2.237366,5.380738,1.053756,0,88.375
27.027181,0.041613,-0.018760,0.022580,1.021577,1.021999,0.059461,0.043967,-1.411293,1.413229,-1.411293,0.000000,0.173882,MOVE,0,8,-2.296095,5.380738,1.053756,0,85.717
27.065136,0.037955,-0.034804,0.000971,1.064224,1.064794,-0.018730,0.119715,-1.279957,1.285680,-1.279957,0.000000,0.214808,MOVE,0,8,-2.344676,5.380738,1.053756,0,82.620
27.113621,0.048485,-0.043937,-0.012303,1.049602,1.050594,0.111079,0.128878,-1.234142,1.245815,-1.234142,0.000000,0.238861,MOVE,0,8,-2.404513,5.380738,1.053756,0,80.420
27.151582,0.037962,-0.058994,0.017481,1.030107,1.031943,0.139790,0.089782,-1.129990,1.142138,-1.129990,0.000000,0.243724,MOVE,0,8,-2.447409,5.380738,1.053756,0,77.831
27.200120,0.048538,-0.046652,0.031077,1.014510,1.016057,0.138568,0.035110,-1.078066,1.087502,-1.078066,0.000000,0.233803,MOVE,0,8,-2.499736,5.380738,1.053756,0,75.611
27.245719,0.045599,-0.023943,0.018209,1.041317,1.041751,0.191408,0.114217,-1.016369,1.040523,-1.016369,0.000000,0.247999,MOVE,0,8,-2.546081,5.380738,1.053756,0,73.408
27.294456,0.048737,-0.010861,0.021366,1.002813,1.003099,0.199349,0.148425,-1.093338,1.121231,-1.093338,0.000000,0.225988,MOVE,0,8,-2.599367,5.380738,1.053756,0,71.297
27.338454,0.043998,-0.076766,-0.060789,1.048871,1.053432,0.087561,0.299004,-1.038360,1.084095,-1.038360,0.000000,0.251478,MOVE,0,8,-2.645053,5.380738,1.053756,0,69.333
27.382403,0.043949,-0.124405,-0.080569,1.031325,1.041921,0.395437,0.228754,-0.800123,0.921355,-0.800123,0.000000,0.264059,MOVE,0,8,-2.680218,5.380738,1.053756,0,67.644
27.432980,0.050576,-0.104165,0.003399,1.007686,1.013062,0.309610,0.109330,-0.573492,0.660836,-0.573492,0.000000,0.249409,MOVE,0,8,-2.709223,5.380738,1.053756,0,66.892
27.476485,0.043505,0.012607,-0.000000,1.182173,1.182241,0.381692,-0.022922,-0.554249,0.673355,-0.554249,0.000000,0.388484,MOVE,0,8,-2.733336,5.380738,1.053756,0,66.138
27.521242,0.044757,0.061339,0.009712,1.004762,1.006679,0.538685,0.162781,-0.783629,0.964756,-0.783629,0.000000,0.355647,MOVE,0,8,-2.768408,5.380738,1.053756,0,64.926
27.564560,0.043319,-0.070595,0.019423,0.946519,0.949346,0.295866,0.087339,-0.737509,0.799427,-0.737509,0.000000,0.274494,MOVE,0,8,-2.800356,5.380738,1.053756,0,63.540
27.616164,0.051604,0.023517,0.031806,1.023039,1.023804,0.158727,0.046411,-0.825779,0.842175,-0.825779,0.000000,0.268468,MOVE,0,8,-2.842970,5.380738,1.053756,0,61.943
27.666542,0.050378,-0.054798,0.003156,0.948468,0.950055,0.039608,0.013119,-0.878619,0.879609,-0.878619,0.000000,0.196671,MOVE,0,8,-2.887232,5.380738,1.053756,0,60.557
27.709524,0.042982,-0.056525,-0.026052,0.999644,1.001580,0.082368,-0.042165,-0.691999,0.698159,-0.691999,0.000000,0.178426,MOVE,0,8,-2.916976,5.380738,1.053756,0,59.580
27.753247,0.043723,-0.026905,0.000486,0.962602,0.962979,-0.002236,0.004872,-0.768968,0.768987,-0.768968,0.000000,0.127264,MOVE,0,8,-2.950598,5.380738,1.053756,0,58.444
27.796035,0.042788,-0.082937,-0.048245,1.023527,1.028014,0.057628,-0.039416,-0.722848,0.726212,-0.722848,0.000000,0.139750,MOVE,0,8,-2.981527,5.380738,1.053756,0,57.146
27.846612,0.050577,-0.054551,-0.005548,0.989165,0.990684,0.064959,-0.102335,-0.637327,0.648751,-0.637327,0.000000,0.117391,MOVE,0,8,-3.013761,5.380738,1.053756,0,56.047
27.896803,0.050191,-0.083677,-0.033772,1.021333,1.025312,-0.062101,-0.125853,-0.464758,0.485484,-0.464758,0.000000,0.128433,MOVE,0,8,-3.037088,5.380738,1.053756,0,55.583
27.940357,0.043554,-0.030854,-0.011579,1.008905,1.009443,-0.024228,-0.109971,-0.406114,0.421437,-0.406114,0.000000,0.124088,MOVE,0,8,-3.054776,5.380738,1.053756,0,55.258
27.983599,0.043242,-0.049861,-0.011338,0.997939,0.999248,-0.089896,0.083063,-0.275084,0.301084,-0.275084,0.000000,0.111002,MOVE,0,8,-3.066671,5.380738,1.053756,0,55.011
28.034019,0.050420,-0.060722,-0.015438,1.000863,1.002822,-0.143041,-0.082482,-0.278444,0.323720,-0.278444,0.000000,0.102442,MOVE,0,8,-3.080710,5.380738,1.053756,0,54.909
28.077229,0.043210,-0.022956,-0.046074,1.071779,1.073014,-0.096004,-0.237947,-0.255842,0.362340,-0.255842,0.000000,0.157911,MOVE,0,8,-3.091765,5.380738,1.053756,0,54.912
28.120776,0.043547,-0.095032,-0.044386,1.008905,1.014342,-0.067294,-0.186940,-0.088159,0.217363,-0.088159,0.000000,0.155028,MOVE,0,8,-3.095604,5.380738,1.053756,0,55.136
28.164041,0.043265,-0.016044,-0.034495,1.029863,1.030565,0.056099,-0.105978,-0.110139,0.162816,-0.110139,0.000000,0.167034,MOVE,0,8,-3.100369,5.380738,1.053756,0,55.321
28.214553,0.050512,-0.084665,0.020152,0.978930,0.982791,-0.119522,-0.022288,-0.034384,0.126350,-0.034384,0.000000,0.134842,MOVE,0,8,-3.102106,5.380738,1.053756,0,55.647
28.258913,0.044360,-0.067880,-0.056688,1.096392,1.099953,0.067714,-0.104446,0.150701,0.195461,0.150701,0.000000,0.211316,MOVE,0,8,-3.095421,5.380738,1.053756,0,56.460
28.309511,0.050599,-0.042703,-0.002171,1.007686,1.008593,0.055497,-0.122161,0.309221,0.337077,0.309221,0.000000,0.197918,MOVE,0,8,-3.079775,5.380738,1.053756,0,57.432
28.352549,0.043037,-0.015797,0.019181,0.958947,0.959269,-0.040103,-0.153926,0.146730,0.216405,0.146730,0.000000,0.141469,MOVE,0,8,-3.073460,5.380738,1.053756,0,58.036
28.393807,0.041259,-0.091576,-0.014715,1.025476,1.029662,-0.125319,-0.167059,0.309831,0.373643,0.309831,0.000000,0.154018,MOVE,0,8,-3.060677,5.380738,1.053756,0,58.818
28.436753,0.042945,0.023032,-0.002412,1.060325,1.060578,-0.113398,-0.138337,0.015393,0.179536,0.015393,0.000000,0.193136,MOVE,0,8,-3.060016,5.380738,1.053756,0,59.089
28.479537,0.042785,-0.007652,0.057299,1.064712,1.066280,-0.033978,0.054700,-0.010265,0.065207,-0.010265,0.000000,0.233474,MOVE,0,8,-3.060455,5.380738,1.053756,0,59.168
28.523451,0.043914,-0.070595,-0.001447,1.006955,1.009428,-0.061149,0.089499,0.043796,0.116907,0.043796,0.000000,0.218612,MOVE,0,8,-3.058531,5.380738,1.053756,0,59.393
28.574342,0.050890,-0.047146,0.000728,0.988191,0.989315,-0.021123,0.062905,0.042252,0.078667,0.042252,0.000000,0.187134,MOVE,0,8,-3.056381,5.380738,1.053756,0,59.603
28.618873,0.044531,-0.051342,0.014568,1.003300,1.004718,-0.064790,0.068091,0.036746,0.100917,0.036746,0.000000,0.172667,MOVE,0,8,-3.054745,5.380738,1.053756,0,59.807
28.662658,0.043786,-0.038506,0.012140,1.011829,1.012635,-0.037599,0.021051,0.021771,0.048279,0.021771,0.000000,0.166772,MOVE,0,8,-3.053792,5.380738,1.053756,0,59.973
28.706368,0.043710,-0.048133,-0.000965,1.009880,1.011027,-0.012854,0.039978,0.013825,0.044211,0.013825,0.000000,0.160018,MOVE,0,8,-3.053187,5.380738,1.053756,0,60.134
28.751378,0.045010,-0.064918,-0.014956,1.013779,1.015965,-0.014376,0.009127,0.012603,0.021185,0.012603,0.000000,0.158385,MOVE,0,8,-3.052620,5.380738,1.053756,0,60.303
28.791114,0.039736,-0.055291,-0.002653,1.001594,1.003122,-0.035142,-0.023245,0.013515,0.044249,0.013515,0.000000,0.145357,MOVE,0,8,-3.052083,5.380738,1.053756,0,60.500
28.842125,0.051011,-0.052823,-0.002171,1.000376,1.001771,-0.023835,-0.064160,0.015953,0.070279,0.015953,0.000000,0.132416,MOVE,0,8,-3.051269,5.380738,1.053756,0,60.666
28.885670,0.043545,-0.058253,0.000243,0.998182,0.999881,-0.077883,-0.094381,-0.056422,0.134747,-0.056422,0.000000,0.119067,MOVE,0,8,-3.053726,5.380738,1.053756,0,60.678
28.936709,0.051039,-0.070348,0.000243,0.988434,0.990935,-0.025954,-0.229974,-0.061913,0.239572,-0.061913,0.000000,0.099001,MOVE,0,8,-3.056886,5.380738,1.053756,0,60.697
28.978485,0.041776,-0.061709,-0.021228,0.999888,1.002015,-0.053120,-0.117234,-0.046624,0.136892,-0.046624,0.000000,0.090915,MOVE,0,8,-3.058834,5.380738,1.053756,0,60.740
29.021908,0.043423,-0.080222,-0.027500,1.001350,1.004935,-0.112348,-0.137969,0.047744,0.184220,0.047744,0.000000,0.086265,MOVE,0,8,-3.056761,5.380738,1.053756,0,60.892
29.065032,0.043124,-0.065905,-0.034495,0.995258,0.998034,-0.082391,-0.144046,0.040097,0.170720,0.040097,0.000000,0.075869,MOVE,0,8,-3.055032,5.380738,1.053756,0,61.024
29.108271,0.043239,-0.041962,-0.032565,1.006712,1.008112,-0.007859,0.062434,0.016570,0.065072,0.016570,0.000000,0.075583,MOVE,0,8,-3.054315,5.380738,1.053756,0,61.099
29.152009,0.043737,-0.048133,-0.019298,0.994771,0.996121,0.085585,0.130231,0.010152,0.156166,0.010152,0.000000,0.064534,MOVE,0,8,-3.053871,5.380738,1.053756,0,61.142
29.203159,0.051150,-0.086639,0.010197,0.963334,0.967276,-0.076299,0.086238,-0.053070,0.126787,-0.053070,0.000000,0.028628,MOVE,1,9,-3.056586,4.832724,1.007059,0,61.044
29.255277,0.052119,-0.115766,-0.026535,1.131241,1.137458,-0.111423,-0.141309,0.117972,0.215176,0.117972,0.000000,0.149478,MOVE,0,9,-3.050437,4.832724,1.007059,0,61.391
29.299170,0.043892,-0.000741,-0.019057,1.084695,1.084862,-0.148370,0.242018,-0.003293,0.283897,-0.003293,0.000000,0.210906,MOVE,0,9,-3.050582,4.832724,1.007059,0,61.404
29.342563,0.043393,-0.151063,-0.063201,1.055451,1.068078,-0.235724,0.079834,0.075203,0.259990,0.075203,0.000000,0.251086,MOVE,0,9,-3.047318,4.832724,1.007059,0,61.551
29.392703,0.050141,-0.072570,-0.055964,1.018409,1.022524,0.205628,-0.104948,0.025106,0.232223,0.025106,0.000000,0.246249,MOVE,0,9,-3.046060,4.832724,1.007059,0,61.664
29.447223,0.054520,-0.072817,0.003642,0.952124,0.954911,-0.171581,0.207815,-0.014600,0.269890,-0.014600,0.000000,0.181044,MOVE,0,9,-3.046856,4.832724,1.007059,0,61.673
29.486681,0.039458,-0.148842,-0.088047,0.944813,0.960509,0.029086,0.058759,0.130469,0.146017,0.130469,0.000000,0.127398,MOVE,0,9,-3.041708,4.832724,1.007059,0,62.067
29.537017,0.050336,-0.096266,-0.055241,0.966745,0.973096,0.018391,-0.017595,0.087381,0.091013,0.087381,0.000000,0.090444,MOVE,0,9,-3.037309,4.832724,1.007059,0,62.487
29.587083,0.050066,-0.071582,-0.123266,0.992090,1.002278,0.159805,-0.104030,0.043388,0.195557,0.043388,0.000000,0.083450,MOVE,0,9,-3.035137,4.832724,1.007059,0,62.628
29.630592,0.043510,-0.050354,-0.031359,0.957729,0.959564,0.091978,-0.016363,-0.109009,0.143564,-0.109009,0.000000,0.038712,MOVE,1,10,-3.039880,4.285566,0.951213,0,62.412
29.674151,0.043559,-0.125393,-0.072127,0.954561,0.965459,0.055620,0.027612,-0.169750,0.180752,-0.169750,0.000000,0.003754,MOVE,0,10,-3.047274,4.285566,0.951213,0,62.045
29.717416,0.043265,-0.159949,-0.058618,0.956266,0.971321,0.033620,0.059371,-0.082986,0.107433,-0.082986,0.000000,-0.022432,MOVE,0,10,-3.050864,4.285566,0.951213,0,61.782
29.767972,0.050556,-0.137487,-0.065855,1.103216,1.113699,-0.028376,0.103644,-0.117175,0.158988,-0.117175,0.000000,0.082140,MOVE,0,10,-3.056788,4.285566,0.951213,0,61.598
29.811138,0.043166,-0.113051,-0.049451,1.104190,1.111064,0.009803,0.360818,-0.204834,0.415022,-0.204834,0.000000,0.173884,MOVE,0,10,-3.065630,4.285566,0.951213,0,61.235
29.854275,0.043137,-0.251032,-0.084670,1.134409,1.164933,0.078526,0.015374,0.110677,0.136573,0.110677,0.000000,0.304935,MOVE,0,10,-3.060856,4.285566,0.951213,0,61.592
29.897236,0.042960,-0.019994,-0.013991,1.192409,1.192658,0.166796,-0.304414,0.002860,0.347127,0.002860,0.000000,0.447834,MOVE,0,10,-3.060733,4.285566,0.951213,0,61.818
29.940848,0.043612,0.048004,-0.041491,1.245047,1.246663,0.044928,-0.108021,0.048675,0.126713,0.048675,0.000000,0.625047,MOVE,0,10,-3.058610,4.285566,0.951213,0,62.020
29.984156,0.043308,-0.006171,-0.020745,1.070073,1.070292,0.367159,0.025453,-0.069222,0.374494,-0.069222,0.000000,0.625805,MOVE,0,10,-3.061608,4.285566,0.951213,0,61.927
30.027765,0.043609,-0.012589,0.070410,0.855376,0.858361,-0.123060,0.162592,-0.119008,0.236099,-0.119008,0.000000,0.435750,MOVE,0,10,-3.066798,4.285566,0.951213,0,61.532
30.078220,0.050455,-0.017032,-0.017609,0.947737,0.948054,-0.093128,0.150069,-0.288218,0.338028,-0.288218,0.000000,0.345423,MOVE,0,10,-3.081340,4.285566,0.951213,0,60.947
30.121598,0.043377,-0.075779,0.024522,0.867073,0.870724,-0.127336,0.180613,-0.161463,0.273689,-0.161463,0.000000,0.194532,MOVE,0,10,-3.088344,4.285566,0.951213,0,60.659
30.164947,0.043349,-0.057266,-0.006996,0.976250,0.977953,-0.070512,-0.129697,-0.026148,0.149923,-0.026148,0.000000,0.155236,MOVE,0,10,-3.089477,4.285566,0.951213,0,60.738
30.208457,0.043511,0.046792,-0.018092,1.094442,1.095592,0.060824,-0.110760,-0.013931,0.127127,-0.013931,0.000000,0.225745,MOVE,0,10,-3.090083,4.285566,0.951213,0,60.867
30.259324,0.050866,-0.018019,0.001457,0.946519,0.946691,0.023559,-0.019739,-0.062795,0.069913,-0.062795,0.000000,0.155193,MOVE,0,10,-3.093278,4.285566,0.951213,0,60.864
30.302364,0.043040,-0.074051,-0.027982,0.915325,0.918742,-0.057676,-0.060958,0.023647,0.087187,0.023647,0.000000,0.066541,MOVE,0,10,-3.092260,4.285566,0.951213,0,61.041
30.345633,0.043269,-0.073557,-0.007237,0.891199,0.894259,-0.049116,-0.063082,-0.009954,0.080565,-0.009954,0.000000,-0.035280,MOVE,1,11,-3.092691,3.736224,0.924327,0,61.197
30.395617,0.049984,-0.109842,-0.017368,0.967964,0.974331,-0.166375,-0.016652,0.080444,0.185551,0.080444,0.000000,-0.054854,MOVE,0,11,-3.088670,3.736224,0.924327,0,61.482
30.438597,0.042980,-0.101696,-0.018333,0.997695,1.003032,0.020867,0.029466,0.056299,0.066882,0.056299,0.000000,-0.046639,MOVE,0,11,-3.086250,3.736224,0.924327,0,61.725
30.481819,0.043222,-0.117000,0.000971,1.032056,1.038667,-0.017310,0.165047,0.024831,0.167800,0.024831,0.000000,-0.007175,MOVE,0,11,-3.085177,3.736224,0.924327,0,61.922
30.532896,0.051077,-0.117741,-0.005548,1.099316,1.105618,-0.006924,0.130825,0.016275,0.132016,0.016275,0.000000,0.088598,MOVE,0,11,-3.084345,3.736224,0.924327,0,62.017
30.576116,0.043220,-0.016291,0.005584,1.163409,1.163536,0.106391,0.355624,-0.125751,0.391919,-0.125751,0.000000,0.226921,MOVE,0,11,-3.089780,3.736224,0.924327,0,61.858
30.631226,0.055110,-0.113544,-0.079122,1.210199,1.218086,-0.029526,0.123190,0.128980,0.180785,0.128980,0.000000,0.400506,MOVE,0,11,-3.082672,3.736224,0.924327,0,62.258
30.678426,0.047200,-0.084911,-0.060306,1.180468,1.185053,0.291178,-0.327324,0.276809,0.518217,0.276809,0.000000,0.527004,MOVE,0,11,-3.069607,3.736224,0.924327,0,63.228
30.721983,0.043557,0.019396,0.012625,1.077140,1.077389,-0.305332,-0.060375,0.589877,0.666954,0.589877,0.000000,0.543953,MOVE,0,11,-3.043914,3.736224,0.924327,0,64.744
30.766850,0.044867,0.163651,-0.056447,0.945544,0.961260,0.220318,0.336687,-0.038397,0.404193,-0.038397,0.000000,0.454692,MOVE,0,11,-3.045636,3.736224,0.924327,0,64.977
30.817444,0.050594,-0.111323,-0.046074,0.817847,0.826673,-0.096108,0.139058,0.198306,0.260574,0.198306,0.000000,0.253229,MOVE,0,11,-3.035603,3.736224,0.924327,0,65.564
30.861027,0.043583,-0.146374,-0.119407,0.898267,0.917914,0.132356,-0.166375,0.448455,0.496297,0.448455,0.000000,0.154028,MOVE,0,11,-3.016058,3.736224,0.924327,0,66.838
30.911513,0.050486,-0.086392,-0.031359,0.926048,0.930598,-0.039297,-0.368571,0.406916,0.550427,0.406916,0.000000,0.076163,MOVE,0,11,-2.995515,3.736224,0.924327,0,67.802
30.955072,0.043560,0.042913,-0.018574,1.053745,1.054782,0.117695,-0.253729,0.232820,0.363917,0.232820,0.000000,0.117851,MOVE,0,11,-2.985373,3.736224,0.924327,0,68.320
30.998477,0.043405,-0.033076,-0.003618,0.945544,0.946129,-0.151391,0.043152,0.020239,0.158716,0.020239,0.000000,0.057582,MOVE,0,11,-2.984495,3.736224,0.924327,0,68.333
31.049149,0.050672,-0.131317,-0.050899,0.883157,0.894316,-0.095468,-0.066495,0.091387,0.147943,0.091387,0.000000,-0.043291,MOVE,0,11,-2.979864,3.736224,0.924327,0,68.477
31.092683,0.043534,-0.058500,-0.010373,0.908989,0.910929,-0.117733,0.087138,0.071204,0.162862,0.071204,0.000000,-0.119126,MOVE,0,11,-2.976764,3.736224,0.924327,0,68.586
31.143388,0.050705,-0.097006,-0.037390,0.946519,0.952211,-0.147350,0.029405,-0.032951,0.153827,-0.032951,0.000000,-0.150224,MOVE,0,11,-2.978435,3.736224,0.924327,0,68.424
31.187902,0.044513,-0.093304,-0.023881,0.956510,0.961347,-0.015407,0.027265,-0.083027,0.088737,-0.083027,0.000000,-0.169989,MOVE,0,11,-2.982131,3.736224,0.924327,0,68.154
31.231674,0.043772,-0.074298,-0.062478,1.057401,1.061847,-0.093897,0.187920,-0.192057,0.284634,-0.192057,0.000000,-0.097328,MOVE,0,11,-2.990538,3.736224,0.924327,0,67.439
31.282923,0.051250,-0.109595,-0.030153,0.944569,0.951384,0.151060,0.311925,-0.284603,0.448459,-0.284603,0.000000,-0.131350,MOVE,0,11,-3.005124,3.736224,0.924327,0,66.586
31.333974,0.051050,-0.027646,0.042246,1.061056,1.062257,-0.216986,0.317423,-0.256503,0.462206,-0.256503,0.000000,-0.062184,MOVE,0,11,-3.018218,3.736224,0.924327,0,65.891
31.379987,0.046014,-0.124899,-0.076710,1.278190,1.286567,-0.089315,-0.226552,-0.048809,0.248366,-0.048809,0.000000,0.201944,MOVE,0,11,-3.020464,3.736224,0.924327,0,65.922
31.426870,0.046882,-0.059487,-0.073574,1.300610,1.304047,0.334320,-0.172491,0.102075,0.389798,0.102075,0.000000,0.455392,MOVE,0,11,-3.015679,3.736224,0.924327,0,66.163
31.470159,0.043289,-0.098981,-0.007960,1.092737,1.097239,0.298279,-0.461125,0.027549,0.549877,0.027549,0.000000,0.497368,MOVE,0,11,-3.014486,3.736224,0.924327,0,66.140
31.513369,0.043210,0.069340,0.063369,0.948712,0.953351,0.314772,-0.002976,-0.211605,0.379298,-0.211605,0.000000,0.405647,MOVE,0,11,-3.023629,3.736224,0.924327,0,65.567
31.557111,0.043742,-0.002468,0.048316,1.057644,1.058750,-0.098784,0.263667,-0.207940,0.350025,-0.207940,0.000000,0.417958,MOVE,0,11,-3.032725,3.736224,0.924327,0,64.792
31.607627,0.050516,-0.055044,-0.007237,0.999644,1.001185,-0.107021,0.062076,-0.107138,0.163663,-0.107138,0.000000,0.377228,MOVE,0,11,-3.038137,3.736224,0.924327,0,64.419
31.649040,0.041413,-0.049367,-0.079363,1.063980,1.068078,0.010286,-0.056122,0.141786,0.152835,0.141786,0.000000,0.400775,MOVE,0,11,-3.032266,3.736224,0.924327,0,64.548
31.692769,0.043729,0.031276,0.042489,0.857569,0.859191,0.109552,-0.036574,-0.061021,0.130625,-0.061021,0.000000,0.233969,MOVE,0,11,-3.034934,3.736224,0.924327,0,64.299
31.743765,0.050996,-0.059981,0.003642,0.839536,0.841683,-0.086833,0.066347,-0.028947,0.113048,-0.028947,0.000000,0.068087,MOVE,0,11,-3.036410,3.736224,0.924327,0,64.229
31.787863,0.044098,-0.099228,-0.001206,0.912888,0.918266,-0.098125,-0.123015,0.029996,0.160191,0.029996,0.000000,-0.012282,MOVE,1,12,-3.035088,3.189340,0.865860,0,64.160
31.831694,0.043831,-0.084665,0.035448,0.924586,0.929131,-0.116135,0.087735,0.002509,0.145572,0.002509,0.000000,-0.074836,MOVE,0,12,-3.034978,3.189340,0.865860,0,64.077
31.882226,0.050532,-0.119468,0.000971,0.971863,0.979179,-0.051067,0.128641,0.025718,0.140776,0.025718,0.000000,-0.086091,MOVE,0,12,-3.033678,3.189340,0.865860,0,64.104
31.925695,0.043468,-0.111570,-0.000724,0.971132,0.977520,-0.241956,0.226982,0.010137,0.331913,0.010137,0.000000,-0.097714,MOVE,0,12,-3.033237,3.189340,0.865860,0,64.092
31.969125,0.043430,-0.198703,-0.187674,1.190703,1.221670,-0.093516,0.108780,0.256927,0.294261,0.256927,0.000000,0.111560,MOVE,0,12,-3.022079,3.189340,0.865860,0,64.664
32.019652,0.050527,0.008728,0.025250,1.091762,1.092089,0.252844,0.106947,0.111541,0.296326,0.111541,0.000000,0.183284,MOVE,0,12,-3.016443,3.189340,0.865860,0,64.922
32.063283,0.043631,0.000485,0.050744,1.079333,1.080526,-0.047694,-0.038749,-0.030181,0.068462,-0.030181,0.000000,0.237429,MOVE,0,12,-3.017760,3.189340,0.865860,0,64.757
32.106710,0.043427,0.020850,0.012140,1.061056,1.061330,-0.062048,-0.253152,-0.061630,0.267832,-0.061630,0.000000,0.268883,MOVE,0,12,-3.020436,3.189340,0.865860,0,64.508
32.157399,0.050689,0.084614,-0.035943,1.120518,1.124283,-0.264855,-0.067754,0.005260,0.273434,0.005260,0.000000,0.353849,MOVE,0,12,-3.020170,3.189340,0.865860,0,64.400
32.201398,0.043999,0.014547,-0.062478,0.897048,0.899339,-0.039140,0.130166,-0.188690,0.232549,-0.188690,0.000000,0.227869,MOVE,0,12,-3.028472,3.189340,0.865860,0,63.900
32.247016,0.045619,-0.087380,-0.112170,0.944325,0.954970,-0.013469,0.012861,0.038869,0.043100,0.038869,0.000000,0.164555,MOVE,0,12,-3.026699,3.189340,0.865860,0,63.919
32.287712,0.040696,-0.085652,-0.125196,1.030107,1.041216,0.078161,-0.247368,0.300931,0.397315,0.300931,0.000000,0.185194,MOVE,0,12,-3.014452,3.189340,0.865860,0,64.557
32.331450,0.043738,0.058429,-0.054276,1.052039,1.055058,0.281884,-0.167345,0.182728,0.375303,0.182728,0.000000,0.216226,MOVE,0,12,-3.006460,3.189340,0.865860,0,65.029
32.383451,0.052001,-0.058500,-0.020504,0.909477,0.911587,0.130084,-0.162763,0.217548,0.301232,0.217548,0.000000,0.115032,MOVE,0,12,-2.995147,3.189340,0.865860,0,65.315
32.433487,0.050035,0.024729,-0.024846,0.888031,0.888723,0.210108,0.074253,-0.067727,0.232907,-0.067727,0.000000,0.003379,MOVE,1,13,-2.998536,2.644959,0.787447,1,64.917
32.476560,0.043073,-0.107374,-0.000724,0.803956,0.811095,-0.042485,0.246822,-0.116290,0.276133,-0.116290,0.000000,-0.166973,MOVE,0,13,-3.003545,2.644959,0.787447,1,64.487
32.519710,0.043149,-0.156494,-0.051381,0.947737,0.961944,-0.005222,-0.005465,0.015044,0.016836,0.015044,0.000000,-0.184527,MOVE,0,13,-3.002896,2.644959,0.787447,1,64.375
32.570981,0.051271,-0.026658,-0.027259,1.056182,1.056870,0.049446,0.031185,-0.057338,0.081885,-0.057338,0.000000,-0.114891,MOVE,0,13,-3.005836,2.644959,0.787447,1,63.987
32.614517,0.043536,-0.040481,-0.073091,1.110527,1.113665,0.159701,0.158238,-0.138266,0.263934,-0.138266,0.000000,-0.001103,MOVE,0,13,-3.011855,2.644959,0.787447,1,63.357
32.665609,0.051092,-0.060228,-0.006031,1.055695,1.057429,0.001181,0.253227,-0.196909,0.320778,-0.196909,0.000000,0.050693,MOVE,0,13,-3.021916,2.644959,0.787447,1,62.762
32.709276,0.043667,-0.003949,-0.034254,1.216291,1.216780,-0.017755,0.299958,-0.167588,0.344058,-0.167588,0.000000,0.240725,MOVE,0,13,-3.029234,2.644959,0.787447,1,61.991
32.760880,0.051604,-0.094044,0.019909,0.991846,0.996494,0.069904,-0.012499,-0.217984,0.229259,-0.217984,0.000000,0.213497,MOVE,0,13,-3.040483,2.644959,0.787447,1,61.380
