timestamp,dt,heading_rad,accel_x,accel_y,accel_z,accel_norm,step_event
0.0006,0.0006,1.629156,0.024002,0.083035,0.995989,0.999732,0
0.13548,0.13488,1.634472,-0.003949,0.099059,0.976981,0.981998,0
0.162551,0.027071,1.633824,0.005091,0.083521,0.972107,0.975701,0
0.18918,0.026629,1.632725,0.003879,0.083035,0.967964,0.971527,0
0.216816,0.027636,1.631823,0.004364,0.084006,0.968208,0.971855,0
0.250312,0.033496,1.631182,0.004606,0.083521,0.965283,0.968901,0
0.286404,0.036092,1.63074,0.005576,0.083763,0.967233,0.970869,0
0.318527,0.032123,1.630204,0.003152,0.083035,0.964308,0.967882,0
0.353072,0.034545,1.629439,0.004849,0.083278,0.966502,0.970095,0
0.380788,0.027716,1.628961,0.003637,0.082792,0.966745,0.970291,0
0.408625,0.027837,1.628908,0.003637,0.082307,0.964308,0.967821,0
0.439599,0.030974,1.628944,0.004606,0.081821,0.967233,0.970698,0
0.467091,0.027492,1.629023,0.003879,0.081821,0.969426,0.972881,0
0.494844,0.027753,1.629015,0.003152,0.082792,0.96967,0.973203,0
0.525718,0.030874,1.628629,0.002909,0.083035,0.969913,0.973466,0
0.553747,0.028029,1.628072,0.004122,0.083763,0.969426,0.973047,0
0.582009,0.028262,1.627491,0.004364,0.083521,0.970888,0.974484,0
0.61292,0.030911,1.626848,0.003879,0.082792,0.970645,0.974177,0
0.640618,0.027698,1.626297,0.003879,0.083521,0.970888,0.974482,0
0.66978,0.029162,1.625764,0.004606,0.084249,0.973082,0.976733,0
0.7095,0.03972,1.625429,0.003879,0.082064,0.972107,0.975572,0
0.745836,0.036337,1.625212,0.005334,0.083763,0.97235,0.975966,0
0.77467,0.028834,1.625642,0.004122,0.083278,0.972107,0.975676,0
0.806057,0.031387,1.625975,0.004122,0.082549,0.973325,0.976828,0
0.833372,0.027315,1.625915,0.004122,0.083278,0.974056,0.977618,0
0.868465,0.035092,1.625649,0.004122,0.082307,0.975518,0.978993,0
0.903214,0.034749,1.621006,0.007758,0.083278,0.9743,0.977883,0
0.937284,0.034071,1.606866,0.162196,-0.028465,0.907283,0.922107,0
0.963803,0.026519,1.602797,-0.142671,0.2139,0.96114,0.994937,0
0.990369,0.026566,1.600063,-0.12638,0.165342,0.937258,0.960085,0
1.023896,0.033527,1.598513,-0.0,0.077208,0.965771,0.968852,0
1.050596,0.026699,1.597276,-0.001975,0.076965,0.968451,0.971507,0
1.083267,0.032671,1.596621,-0.002222,0.073566,0.99867,1.001378,0
1.109892,0.026625,1.600901,-0.047392,0.248377,0.948468,0.981595,0
1.136554,0.026662,1.603588,0.050429,0.028892,1.009392,1.011064,0
1.170124,0.03357,1.603505,0.022063,0.106586,0.969182,0.975275,0
1.196657,0.026533,1.604724,-0.000741,0.096631,0.978443,0.983203,0
1.224216,0.027559,1.603365,-0.001728,0.100759,0.950174,0.955503,0
1.250998,0.026783,1.604276,0.009213,0.06264,0.975275,0.977328,0
1.284926,0.033927,1.604545,0.007273,0.106586,0.97625,0.982078,0
1.313102,0.028176,1.605737,0.000485,0.063126,0.978443,0.980477,0
1.34672,0.033617,1.603643,0.00097,0.04783,0.984535,0.985697,0
1.373257,0.026538,1.602917,0.00097,0.1078,0.974056,0.980004,0
1.407006,0.033748,1.603006,0.012607,0.050258,0.975031,0.976407,0
1.433583,0.026577,1.602637,0.00994,0.011897,0.983073,0.983195,0
1.460214,0.026632,1.607225,0.039519,0.208802,0.964796,0.987922,0
1.49386,0.033645,1.608218,0.073461,0.062155,1.042291,1.046724,0
1.520389,0.02653,1.611806,0.08825,0.12868,0.994283,1.006452,0
1.546915,0.026525,1.614318,0.00194,0.104886,1.058375,1.063562,0
1.574323,0.027409,1.612392,-0.003456,0.090076,0.9743,0.978461,0
1.604405,0.030082,1.609234,0.009213,0.116055,0.97625,0.983167,0
1.631015,0.026609,1.607009,-0.005924,0.125524,0.994039,1.001951,0
1.657603,0.026588,1.60545,0.00097,0.098331,0.982098,0.987009,0
1.684167,0.026565,1.602473,0.018426,0.071138,0.971863,0.974637,0
1.71766,0.033492,1.600542,-0.007652,0.131351,0.980636,0.989423,0
1.744417,0.026757,1.601767,0.017456,0.097603,0.979661,0.984666,0
1.771221,0.026804,1.601445,-0.006911,-0.018574,1.002325,1.002521,0
1.797785,0.026564,1.601237,0.029578,0.196176,1.000376,1.019858,0
1.831321,0.033536,1.603526,0.001697,0.235994,0.977468,1.005555,0
1.858148,0.026827,1.602226,-0.005677,0.02525,0.987216,0.987555,0
1.885086,0.026938,1.602196,0.03564,0.136207,0.989653,0.999618,0
1.911748,0.026662,1.599833,0.010425,0.084249,0.981367,0.985032,0
1.938524,0.026777,1.596838,0.002182,0.111927,0.979174,0.985553,0
1.965271,0.026747,1.595061,0.003879,0.082064,0.980636,0.984072,0
1.998831,0.033561,1.594848,0.010425,0.067011,0.983561,0.985896,0
2.025631,0.0268,1.596181,-0.025424,0.027193,0.982342,0.983047,0
2.052289,0.026658,1.600036,0.020123,0.04346,0.979174,0.980344,0
2.083923,0.031634,1.602273,0.047277,0.108771,0.966745,0.973993,0
2.110458,0.026535,1.600393,-0.005924,0.08959,0.985023,0.989106,0
2.14437,0.033911,1.596443,0.001212,0.080122,0.993308,0.996535,0
2.170879,0.02651,1.594366,0.008486,0.04176,0.985023,0.985944,0
2.197369,0.02649,1.593848,0.007516,0.152717,0.984779,0.996578,0
2.223986,0.026617,1.592452,0.015274,0.111685,0.981367,0.98782,0
2.257868,0.033882,1.594443,0.033215,0.11217,0.979661,0.986621,0
2.287102,0.029233,1.593565,0.00097,0.066282,0.980636,0.982874,0
2.321245,0.034143,1.638516,0.059884,2.491295,0.795426,2.615882,1
2.357201,0.035956,1.656817,-0.124405,0.167284,0.973569,0.995639,0
2.38807,0.030869,1.662766,-0.08269,-0.111205,0.991115,1.000756,0
2.416833,0.028763,1.65857,-0.029373,-0.250634,0.93872,0.972047,0
2.44983,0.032997,1.648052,0.02085,-0.01568,0.983804,0.98415,0
2.477684,0.027854,1.638012,0.000242,0.058999,0.978199,0.979977,0
2.518743,0.041059,1.61697,0.1011,0.057542,0.998913,1.005664,0
2.554921,0.036178,1.603103,-0.020981,0.034719,1.01646,1.017269,0
2.585276,0.030355,1.593541,0.01285,0.041275,1.032544,1.033448,0
2.615767,0.030491,1.587064,-0.002962,0.082064,0.975762,0.979211,0
2.645711,0.029944,1.584879,0.014789,0.079879,0.970888,0.974281,0
2.675618,0.029907,1.581437,0.004606,0.100759,0.990384,0.995507,0
2.707532,0.031914,1.577614,-0.011108,0.089105,0.993796,0.997844,0
2.747526,0.039995,1.569182,-0.061462,0.125281,0.995989,1.005717,0
2.782977,0.035451,1.560989,-0.00938,0.185736,0.957241,0.975139,0
2.824403,0.041426,1.572693,0.032003,0.095903,1.021821,1.02681,0
2.854442,0.030039,1.582005,-0.019747,-0.050175,1.0033,1.004748,0
2.881201,0.026759,1.571631,-0.05381,0.061669,0.993308,0.996675,0
2.915226,0.034025,1.563405,0.01285,0.249105,0.941157,0.973651,0
2.96463,0.049404,1.566992,-0.023203,0.137178,1.005981,1.015556,0
3.000108,0.035478,1.561991,0.007516,0.131836,0.979418,0.988279,0
3.037251,0.037143,1.564182,0.00194,0.241336,1.002813,1.031446,0
3.073484,0.036233,1.561347,-0.070348,0.075266,0.999157,1.004454,0
3.103873,0.03039,1.549592,-0.044677,0.080607,0.983317,0.987626,0
3.140535,0.036662,1.533948,-0.111817,0.136449,1.071535,1.08596,0
3.172947,0.032412,1.519894,-0.100462,0.201275,1.113695,1.136187,0
3.211983,0.039036,1.505188,-0.13576,0.122367,1.152442,1.166845,0
3.250858,0.038875,1.484484,-0.015797,0.159272,1.058375,1.070409,0
3.287845,0.036987,1.472588,-0.039,0.169955,1.126367,1.139784,0
3.32488,0.037035,1.460808,-0.027892,0.165342,1.114913,1.127452,0
3.357837,0.032958,1.449928,-0.025177,0.160243,1.139283,1.150772,0
3.392992,0.035154,1.439594,-0.033816,0.235266,1.117837,1.142827,0
3.438164,0.045173,1.438283,-0.00938,0.264644,1.086157,1.117972,0
3.470756,0.032591,1.447832,0.029821,0.357633,1.000619,1.063029,0
3.508537,0.037781,1.470411,0.056975,0.385069,0.999401,1.072533,0
3.539043,0.030507,1.495573,0.049459,0.352778,0.95188,1.016353,0
3.566478,0.027435,1.525602,0.047277,0.341124,0.987947,1.04625,0
3.597924,0.031445,1.557114,0.085099,0.359576,0.906796,0.979191,0
3.625344,0.027421,1.592439,0.088493,0.33821,0.927754,0.991436,0
3.653906,0.028562,1.634171,0.063278,0.253961,0.90704,0.944045,0
3.688357,0.034451,1.668559,0.049701,0.224583,0.745469,0.780148,0
3.719294,0.030937,1.700044,-0.003456,0.253233,0.664318,0.710955,0
3.749035,0.029741,1.743736,-0.030114,0.299849,0.689418,0.752405,0
3.780875,0.03184,1.787173,-0.118975,0.214871,0.738889,0.778641,0
3.811271,0.030396,1.812125,-0.298424,-0.018333,1.015728,1.058819,0
3.846327,0.035055,1.82604,-0.08269,-0.176577,0.979905,0.999115,0
3.873697,0.02737,1.847067,-0.018513,0.106343,0.991115,0.996976,0
3.902067,0.02837,1.863214,0.007516,0.533172,0.995014,1.128886,0
3.929174,0.027107,1.870583,0.093342,0.394052,0.955779,1.038029,0
3.964396,0.035222,1.866024,0.059399,0.235752,0.851721,0.88574,0
3.989037,0.024641,1.844169,0.045095,0.196905,0.937989,0.959494,0
4.016259,0.027222,1.825662,-0.135266,0.189621,1.089569,1.114187,0
4.053916,0.037657,1.827053,-0.148348,0.071867,1.047653,1.060542,0
4.088064,0.034148,1.823076,-0.208576,-0.005789,1.008417,1.029778,0
4.120828,0.032764,1.78315,-0.019994,0.283339,1.034981,1.07325,0
4.155328,0.0345,1.722469,0.004606,0.009226,0.903384,0.903443,0
4.189699,0.034371,1.68087,0.035882,-0.144012,0.889737,0.902031,0
4.217614,0.027915,1.661317,0.088735,-0.159209,1.014266,1.030513,0
4.244735,0.02712,1.672375,0.094554,-0.176819,0.923367,0.944888,0
4.278381,0.033646,1.691159,0.087038,-0.133157,0.8293,0.84442,0
4.307901,0.02952,1.707691,0.066673,0.044188,0.877796,0.881433,0
4.336629,0.028728,1.721664,0.08025,0.179424,0.939939,0.96027,0
4.363305,0.026676,1.728961,0.081462,0.192292,0.977224,0.99929,0
4.389914,0.026609,1.730685,0.033942,0.130865,0.966502,0.975912,0
4.416552,0.026639,1.731551,-0.029373,0.002428,0.889006,0.889495,0
4.450793,0.034241,1.768546,-0.042456,-0.457123,0.80225,0.924321,0
4.477456,0.026663,1.807544,-0.123171,0.246192,1.752911,1.774396,1
4.511092,0.033636,1.803573,0.037822,0.096631,1.057401,1.06248,0
4.537658,0.026566,1.79122,-0.105892,-0.021952,1.13514,1.14028,0
4.564221,0.026563,1.796622,0.121223,-0.202147,0.976981,1.005012,0
4.598134,0.033913,1.822639,0.187653,-0.000241,0.964065,0.982158,0
4.624855,0.026721,1.849913,0.128011,0.070895,1.075922,1.085827,0
4.651492,0.026637,1.868687,0.000727,0.1078,1.077384,1.082764,0
4.685188,0.033696,1.875673,0.021578,-0.027017,0.982098,0.982707,0
4.711777,0.02659,1.886226,0.089705,-0.041491,0.946031,0.95118,0
4.738377,0.0266,1.903651,0.106191,0.018695,0.925561,0.93182,0
4.772191,0.033814,1.918566,0.158802,0.071381,0.91167,0.928146,0
4.79876,0.026569,1.933275,0.160984,0.080122,0.918006,0.935452,0
4.825359,0.026599,1.95113,0.125345,0.04783,0.92288,0.93258,0
4.858964,0.033605,1.961865,0.100373,0.053414,0.94725,0.954049,0
4.885583,0.026619,1.966738,0.099403,0.038361,0.924342,0.930463,0
4.912156,0.026573,1.965172,0.094796,0.001457,0.90509,0.910042,0
4.945742,0.033586,1.959153,0.100373,-0.010855,0.933846,0.939288,0
4.97234,0.026598,1.944396,0.087038,-0.007237,0.972107,0.976022,0
4.99897,0.02663,1.926527,0.173591,-0.076469,0.981855,1.00001,0
5.025855,0.026885,1.931051,0.18838,-0.186226,1.100048,1.131491,0
5.060386,0.034531,1.934927,0.113222,-0.001447,1.201669,1.206992,1
5.095299,0.034913,1.928519,0.015274,-0.076951,1.176081,1.178695,0
5.123175,0.027876,1.926096,-0.035297,-0.1457,1.129535,1.13944,0
5.158221,0.035046,1.919058,-0.032089,0.004613,1.015241,1.015758,0
5.189652,0.031431,1.902165,0.002909,0.050015,0.96114,0.962445,0
5.217633,0.027981,1.886756,0.092372,-0.044386,0.930435,0.936062,0
5.245294,0.02766,1.872217,0.072491,-0.02943,0.915569,0.918906,0
5.276621,0.031327,1.85576,0.058429,-0.107828,0.837099,0.846035,0
5.305645,0.029024,1.836551,0.101827,-0.112411,0.797132,0.811434,0
5.338821,0.033176,1.830528,0.136982,-0.179713,0.860006,0.889197,0
5.374029,0.035208,1.833245,0.088008,-0.123025,0.935309,0.947461,0
5.401992,0.027963,1.836725,0.043398,-0.062478,1.005493,1.008367,0
5.433309,0.031317,1.840549,0.034427,-0.042697,1.063737,1.06515,0
5.460848,0.027539,1.846228,0.047762,-0.113617,1.008174,1.015679,0
5.495715,0.034867,1.848814,0.032245,-0.067784,0.967476,0.970384,0
5.52337,0.027654,1.847279,0.055763,-0.04535,0.99014,0.992746,0
5.558681,0.035311,1.84813,0.118798,-0.028947,0.986485,0.994034,0
5.590883,0.032203,1.849955,0.106191,-0.047763,0.999401,1.006161,0
5.617227,0.026344,1.849733,0.063763,-0.026776,1.030838,1.033155,0
5.644909,0.027682,1.845502,0.072976,0.007041,1.054964,1.057508,0
5.679744,0.034834,1.839485,0.08922,0.03132,1.034493,1.038806,0
5.71442,0.034677,1.832974,0.086553,0.0017,0.937014,0.941005,0
5.749375,0.034955,1.827377,0.11201,-0.006754,0.953586,0.960165,0
5.784645,0.03527,1.825504,0.137709,-0.0,0.901435,0.911893,0
5.816046,0.031401,1.825054,0.153226,-0.011579,0.878771,0.892104,0
5.843931,0.027885,1.825906,0.148134,-0.021952,0.880477,0.893121,0
5.871913,0.027982,1.831413,0.151286,-0.017609,0.918981,0.931517,0
5.90386,0.031947,1.836021,0.129951,-0.000241,0.953586,0.9624,0
5.931795,0.027935,1.839986,0.119041,-0.018574,1.053014,1.059884,0
5.959714,0.027919,1.844751,0.107646,0.011168,1.073728,1.079169,0
5.99114,0.031426,1.84612,0.041943,-0.018092,1.130266,1.131189,0
6.019033,0.027894,1.842914,-0.017032,-0.010855,1.247484,1.247648,1
6.054031,0.034998,1.83768,-0.009133,0.071867,1.269904,1.271969,0
6.087093,0.033062,1.836847,0.012122,0.084735,1.265274,1.268166,0
6.115284,0.028191,1.847809,-0.002468,0.056328,1.288669,1.289902,0
6.146779,0.031495,1.858159,-0.152298,0.090076,1.296467,1.308486,0
6.174463,0.027684,1.862233,-0.124405,0.215357,1.211417,1.236684,0
6.202247,0.027784,1.860425,-0.009133,0.234295,0.980636,1.008278,0
6.238481,0.036233,1.869596,0.00194,0.135235,0.834418,0.845308,0
6.270795,0.032315,1.881535,-0.007652,0.127709,0.770082,0.780637,0
6.299072,0.028277,1.897363,0.028609,0.142519,0.719393,0.733932,0
6.332079,0.033007,1.914831,0.099403,0.133293,0.698923,0.718429,0
6.36743,0.035351,1.938828,0.068612,0.053172,0.688444,0.693894,0
6.400748,0.033318,1.961264,0.061581,0.0017,0.689662,0.692408,0
6.428888,0.02814,1.981129,0.068855,0.011897,0.719637,0.723021,0
6.459584,0.030695,1.99289,0.095281,0.024036,0.782998,0.78914,0
6.486295,0.026711,2.001124,0.086553,0.02865,0.814191,0.81928,0
6.512914,0.026619,2.007576,0.068855,0.020637,0.852695,0.85572,0
6.53953,0.026616,2.007894,0.088735,0.026707,0.903628,0.908367,0
6.574524,0.034994,2.001539,0.123163,-0.00193,0.949687,0.957642,0
6.600087,0.025562,1.990788,0.126072,-0.040285,1.015241,1.023832,0
6.62985,0.029763,1.977601,0.12292,-0.0591,1.136602,1.144756,0
6.663439,0.03359,1.963503,0.106434,0.055599,1.309383,1.314878,1
6.698497,0.035058,1.936474,0.069582,0.120668,1.351299,1.358459,0
6.731219,0.032722,1.908297,0.24875,0.025493,1.233106,1.258204,0
6.759783,0.028564,1.89353,0.251174,-0.040285,1.265518,1.290832,0
6.792289,0.032506,1.914324,0.05455,-0.038837,1.341795,1.343465,0
6.833213,0.040924,1.90494,-0.06862,0.087648,1.10151,1.10712,0
6.863408,0.030195,1.890865,0.039276,0.007527,1.002325,1.003123,0
6.897601,0.034193,1.885949,0.054308,-0.017127,0.871216,0.873075,0
6.931217,0.033616,1.877817,0.020365,0.004613,0.811023,0.811292,0
6.957088,0.025872,1.86387,-0.018266,-0.025329,0.770813,0.771445,0
6.984738,0.02765,1.851925,0.020123,-0.03932,0.761553,0.762832,0
7.01174,0.027002,1.844856,0.078068,-0.017368,0.750099,0.75435,0
7.045341,0.0336,1.839651,0.070067,-0.008684,0.769838,0.773069,0
7.072188,0.026847,1.841832,0.064006,-0.050657,0.781292,0.785545,0
7.106174,0.033986,1.851377,0.057945,-0.095284,0.836855,0.844253,0
7.133126,0.026952,1.85725,0.047277,0.001942,0.926292,0.927499,0
7.166915,0.033789,1.848152,0.07928,0.102701,0.939451,0.948368,0
7.193468,0.026553,1.836019,0.141588,0.035448,0.970888,0.981798,0
7.220198,0.02673,1.830386,0.115162,-0.007478,1.045216,1.051567,0
7.253885,0.033687,1.826816,0.055278,0.029621,1.087619,1.089426,0
7.280975,0.02709,1.823698,0.026911,0.106829,1.193627,1.1987,1
7.307522,0.026546,1.812503,0.047762,0.175782,1.225795,1.239255,0
7.342137,0.034615,1.807191,0.155408,0.073809,1.174863,1.187393,0
7.376235,0.034098,1.815795,0.13383,-0.042938,1.241148,1.249081,0
7.403116,0.026881,1.844908,-0.042703,0.051229,1.35861,1.360246,0
7.436796,0.03368,1.864091,-0.171304,0.201032,1.282089,1.309012,0
7.463427,0.026631,1.865041,-0.075779,0.36079,1.006468,1.071863,0
7.491487,0.02806,1.849263,0.064491,0.183066,0.845141,0.867142,0
7.521663,0.030176,1.85122,0.10013,0.001457,0.807368,0.813554,0
7.548266,0.026603,1.85947,0.04461,0.121396,0.760578,0.771496,0
7.574859,0.026593,1.86236,0.086311,0.084249,0.693561,0.703971,0
7.608729,0.03387,1.865901,0.147892,0.061669,0.69478,0.713018,0
7.635739,0.02701,1.87145,0.126557,-0.007237,0.704284,0.715601,0
7.669404,0.033664,1.874954,0.081947,-0.031842,0.747418,0.752571,0
7.696062,0.026658,1.87861,0.039034,-0.024605,0.825889,0.827177,0
7.722674,0.026612,1.879411,0.120253,0.013596,0.902653,0.91073,0
7.756828,0.034154,1.875299,0.139649,0.013596,0.934334,0.94481,0
7.783637,0.026809,1.869092,0.09019,-0.003136,0.977224,0.981382,0
7.817285,0.033649,1.864724,0.150074,-0.036184,1.005981,1.017757,0
7.843868,0.026582,1.862415,0.151286,-0.023881,1.07714,1.087975,0
7.870485,0.026617,1.86377,0.151286,-0.022193,1.203862,1.213534,1
7.904158,0.033673,1.864899,0.107646,0.046131,1.279165,1.284515,0
7.930732,0.026574,1.860109,0.140619,0.018695,1.266736,1.274654,0
7.957351,0.02662,1.857254,0.115647,-0.033289,1.271123,1.276807,0
7.990973,0.033622,1.86433,-0.000987,-0.093354,1.255282,1.258749,0
8.017616,0.026642,1.86645,-0.040728,0.100516,1.176568,1.181556,0
8.044186,0.02657,1.864378,0.038549,0.034719,1.08372,1.084961,0
8.071357,0.027171,1.865937,-0.000741,-0.001206,1.033518,1.033519,0
8.098181,0.026825,1.871478,-0.031348,-0.010855,0.970645,0.971211,0
8.125112,0.026931,1.866764,-0.029373,0.002185,0.841485,0.842001,0
8.158961,0.033849,1.855519,-0.026905,-0.020987,0.763259,0.764021,0
8.18581,0.026849,1.842965,0.04655,-0.04921,0.723536,0.7267,0
8.21246,0.02665,1.834029,0.108616,-0.047763,0.729141,0.738732,0
8.246086,0.033626,1.833934,0.14377,-0.040767,0.792015,0.80599,0
8.272722,0.026636,1.840774,0.098191,-0.040767,0.829788,0.836571,0
8.307366,0.034644,1.845705,0.078068,0.007284,0.884863,0.88833,0
8.333906,0.02654,1.852344,0.092129,0.021123,0.96114,0.965777,0
8.36911,0.035204,1.857154,0.114677,0.068225,0.959678,0.968911,0
8.403126,0.034016,1.858874,0.125587,0.038361,0.94725,0.956308,0
8.429804,0.026678,1.863129,0.081704,0.002428,1.048384,1.051566,0
8.463339,0.033535,1.867654,0.018426,0.0017,1.072266,1.072426,0
8.4899,0.026561,1.865853,0.022305,0.07478,1.146594,1.149246,0
8.516418,0.026517,1.856869,0.024972,0.121396,1.198501,1.204892,1
8.543561,0.027143,1.853055,0.06643,0.018938,1.20898,1.210952,0
8.573689,0.030129,1.861277,0.027881,0.001942,1.27356,1.273866,0
8.600194,0.026505,1.878546,-0.155013,0.082064,1.334971,1.346444,0
8.626972,0.026778,1.894014,-0.230051,0.137663,1.243585,1.272155,0
8.653542,0.02657,1.885441,-0.125639,0.314174,0.986972,1.043362,0
8.687182,0.03364,1.872772,-0.039,0.164371,0.855132,0.871659,0
8.71369,0.026508,1.870154,0.032245,0.12431,0.752048,0.762935,0
8.741226,0.027537,1.872905,0.10013,0.155873,0.715981,0.739562,0
8.767787,0.02656,1.877673,0.142073,0.138635,0.689418,0.717427,0
8.79428,0.026493,1.886319,0.163893,0.112899,0.690637,0.718739,0
8.820765,0.026485,1.900202,0.181592,0.065311,0.718418,0.743886,0
8.84727,0.026505,1.923675,0.155408,0.021609,0.750586,0.76681,0
8.88082,0.03355,1.94279,0.077825,0.007284,0.821015,0.824727,0
8.907336,0.026516,1.960504,0.058429,0.058027,0.911183,0.914896,0
8.933833,0.026496,1.972991,0.078552,0.088134,0.971619,0.978766,0
8.960365,0.026532,1.980273,0.101827,0.102216,1.023283,1.033405,0
8.993896,0.033531,1.982297,0.111283,0.02695,1.037174,1.043475,0
9.020437,0.02654,1.981382,0.083159,-0.004101,1.032787,1.036138,0
9.04695,0.026514,1.979158,0.157105,-0.012544,1.11735,1.128411,0
9.073739,0.026788,1.994643,0.175773,0.008255,1.137821,1.151347,0
9.107451,0.033712,2.013983,0.160499,0.084977,1.203619,1.217242,1
9.134219,0.026768,2.024766,0.207049,0.155873,1.188022,1.215961,0
9.160778,0.026559,2.030033,0.151529,0.050258,1.24919,1.25935,0
9.194588,0.03381,2.035655,-0.007405,-0.078881,1.256014,1.25851,0
9.221161,0.026573,2.033037,-0.129836,0.016753,1.200938,1.208052,0
9.247714,0.026553,2.009926,-0.091082,0.112899,1.124661,1.133977,0
9.28152,0.033806,1.9887,0.066915,0.136207,1.061787,1.072577,0
9.308196,0.026677,1.97284,0.051399,0.083763,0.897779,0.903142,0
9.334703,0.026507,1.958117,0.027881,0.042003,0.780561,0.782187,0
9.365816,0.031112,1.943476,0.018426,0.039575,0.74425,0.745529,0
9.39448,0.028664,1.931541,0.058672,0.004856,0.696486,0.698969,0
9.421149,0.02667,1.923517,0.092372,-0.003136,0.708427,0.71443,0
9.44766,0.026511,1.921565,0.060369,-0.016162,0.807611,0.810026,0
9.481178,0.033518,1.922269,-0.009873,-0.016886,0.814922,0.815157,0
9.507715,0.026537,1.923646,-0.000741,0.003399,0.843922,0.843929,0
9.534187,0.026471,1.927802,0.041216,0.003399,0.879015,0.879987,0
9.560683,0.026496,1.938427,0.064491,0.045159,0.936527,0.93983,0
9.594191,0.033509,1.949347,0.077825,0.073809,0.993065,0.99884,0
9.623056,0.028864,1.95826,0.083401,0.046373,0.999157,1.003704,0
9.653148,0.030092,1.964198,0.095766,0.005827,1.010367,1.014912,0
9.679637,0.026489,1.968814,0.093584,0.007527,1.083476,1.087536,0
9.706181,0.026544,1.972149,0.060611,0.025979,1.127829,1.129755,0
9.732663,0.026482,1.970259,0.07734,0.067254,1.148299,1.152864,0
9.766193,0.03353,1.969781,0.136012,0.082064,1.180468,1.191108,1
9.79272,0.026527,1.978249,0.133588,0.112899,1.256014,1.268133,0
9.819184,0.026464,1.999965,0.006788,0.098574,1.284282,1.288078,0
9.846518,0.027334,2.021394,-0.224374,0.136207,1.286476,1.31298,0
9.872973,0.026455,2.028243,-0.222152,0.19472,1.169258,1.205998,0
9.899526,0.026554,2.023631,-0.098981,0.160729,0.997451,1.015155,0
9.92595,0.026423,2.022263,0.015032,0.092747,0.813947,0.819352,0
9.95242,0.026471,2.043502,0.063278,0.054386,0.842704,0.846824,0
9.985875,0.033455,2.060059,-0.030608,0.115569,0.859762,0.868035,0
10.012324,0.026449,2.069811,-0.075532,0.099545,0.851721,0.860838,0
10.03879,0.026466,2.075424,-0.045665,0.068225,0.837586,0.8416,0
10.06589,0.0271,2.081534,0.024245,0.070167,0.823939,0.827277,0
10.099567,0.033677,2.084212,0.033215,0.050501,0.833931,0.836118,0
10.126372,0.026805,2.082163,0.030548,0.0522,0.851964,0.854108,0
10.159923,0.033551,2.076172,0.073946,0.037147,0.862931,0.866889,0
10.186479,0.026556,2.072078,0.143286,0.017967,0.888031,0.899696,0
10.213146,0.026667,2.070966,0.146922,0.023794,0.945787,0.957427,0
10.239739,0.026593,2.064989,0.067158,0.030106,0.992334,0.995059,0
10.273342,0.033603,2.051538,-0.000494,0.019423,0.980392,0.980585,0
10.300182,0.02684,2.031928,0.063036,0.002428,0.964308,0.96637,0
10.333735,0.033553,2.017285,0.111283,-0.003377,0.977224,0.983546,0
10.360237,0.026502,1.999376,0.10304,0.008983,1.000619,1.005951,0
10.387624,0.027387,1.969288,0.108858,-0.008925,0.936527,0.942875,0
10.41975,0.032126,1.944186,0.114192,-0.074298,1.001107,1.010334,0
10.446385,0.026636,1.910072,0.029094,-0.078398,1.082989,1.086212,0
10.479945,0.03356,1.871534,-0.000494,-0.046315,1.115888,1.116849,0
10.506492,0.026547,1.818824,0.087523,-0.162827,1.07714,1.092888,0
10.532962,0.02647,1.754088,0.114434,-0.219274,1.110527,1.137737,0
10.566429,0.033468,1.722096,0.074916,-0.312388,1.296224,1.335438,1
10.592905,0.026476,1.689327,-0.060722,-0.059342,1.35666,1.359314,0
10.620099,0.027194,1.637049,-0.109595,0.087891,1.234325,1.242293,0
10.646629,0.02653,1.575214,-0.043937,0.008498,1.068611,1.069547,0
10.673126,0.026497,1.512235,0.020608,-0.089495,0.953098,0.957513,0
10.699662,0.026536,1.450075,0.021578,-0.109758,0.880477,0.887554,0
10.726155,0.026493,1.385656,-0.02493,-0.124714,0.860006,0.869359,0
10.752613,0.026459,1.293094,-0.074791,-0.125679,0.899241,0.911056,0
10.786076,0.033462,1.222498,-0.041222,-0.092631,0.953829,0.959203,0
10.812529,0.026453,1.15495,0.015517,-0.049934,0.975518,0.976919,0
10.838973,0.026444,1.090481,0.036609,-0.038837,0.987216,0.988658,0
10.865756,0.026783,1.012988,0.022063,-0.057171,0.993796,0.995683,0
10.899403,0.033646,0.960088,-0.001481,-0.068991,1.017434,1.019772,0
10.925992,0.02659,0.912841,-0.017278,-0.06489,1.039123,1.041291,0
10.952559,0.026567,0.871483,-0.031101,-0.044386,1.066174,1.06755,0
10.979122,0.026562,0.821417,-0.055538,-0.055964,1.001107,1.004207,0
11.012914,0.033792,0.786968,-0.082196,-0.034737,1.044972,1.048775,0
11.039481,0.026567,0.75235,-0.058253,-0.008925,1.027426,1.029115,0
11.067413,0.027932,0.718458,-0.016044,0.034477,0.998426,0.99915,0
11.097691,0.030278,0.697461,0.068127,0.062398,0.952855,0.957323,0
11.124731,0.02704,0.670895,0.06643,0.015053,0.934577,0.937056,0
11.158431,0.0337,0.656484,-0.014563,-0.052105,0.921905,0.923491,0
11.185078,0.026647,0.641769,-0.04443,-0.087806,0.92288,0.928112,0
11.211713,0.026635,0.609407,-0.051342,-0.062236,0.969182,0.972535,0
11.247826,0.036113,0.590527,-0.04443,-0.061271,1.021333,1.024134,0
11.274539,0.026714,0.569936,-0.013823,-0.085394,1.024989,1.028633,0
11.301257,0.026717,0.540817,0.020608,-0.114341,1.093711,1.099865,0
11.334849,0.033592,0.534371,0.067642,-0.043903,1.183148,1.185893,1
11.361408,0.026559,0.520184,-0.007405,0.023065,1.137821,1.138078,0
11.387958,0.02655,0.476338,-0.166614,0.017724,1.070073,1.083111,0
11.422198,0.03424,0.434452,-0.10219,0.049772,0.971863,0.978488,0
11.455067,0.032869,0.419335,0.071522,0.060698,0.921905,0.926665,0
11.483938,0.028872,0.41246,0.052368,0.022337,1.02109,1.022676,0
11.515979,0.032041,0.419909,-0.0585,0.119697,1.071291,1.079544,0
11.543555,0.027575,0.441823,-0.023696,0.160243,1.07056,1.082746,0
11.570761,0.027206,0.463197,0.061581,0.143248,1.033762,1.045455,0
11.605109,0.034348,0.489915,0.007031,0.146404,0.987216,0.998037,0
11.640478,0.03537,0.525817,0.040973,0.132322,0.877552,0.888418,0
11.672097,0.031618,0.572675,0.03564,0.142276,0.84904,0.861616,0
11.700301,0.028205,0.621496,0.018183,0.09299,0.842704,0.848014,0
11.728334,0.028033,0.665747,-0.015551,0.085706,0.87804,0.88235,0
11.759601,0.031267,0.716904,-0.011108,0.099788,0.85367,0.859554,0
11.787379,0.027778,0.768222,0.025699,0.094204,0.932872,0.937968,0
11.815188,0.027809,0.823502,0.038549,0.076722,0.93409,0.938028,0
11.846961,0.031773,0.870703,-0.028633,0.083521,0.948468,0.952569,0
11.882209,0.035248,0.925149,0.015274,0.021366,0.942376,0.942742,0
11.910353,0.028144,0.983322,0.044852,0.015539,1.001107,1.002231,0
11.941832,0.031479,1.045002,-0.013329,0.085706,1.024745,1.028409,0
11.969748,0.027915,1.10307,-0.001975,0.109742,0.981855,0.987971,0
11.997613,0.027866,1.160391,0.031033,0.095175,0.966989,0.972157,0
12.028997,0.031384,1.224597,0.062066,0.106343,0.984048,0.991721,0
12.057086,0.028089,1.289822,0.083401,0.113627,1.015728,1.025461,0
12.093307,0.036221,1.347993,-0.015797,0.084977,1.07251,1.075987,0
12.125236,0.031929,1.398239,-0.069608,0.0539,1.043997,1.047703,0
12.15348,0.028244,1.441727,0.099645,0.02695,0.939208,0.944863,0
12.18504,0.031559,1.498307,0.187896,-0.216862,1.037905,1.076838,0
12.213,0.02796,1.567074,-0.111323,-0.091183,1.235299,1.243653,1
12.241146,0.028146,1.613731,-0.091082,0.057785,1.148543,1.153597,0
12.27283,0.031684,1.642043,0.058672,0.015782,1.03693,1.038709,0
12.301057,0.028227,1.672398,0.103524,-0.14956,0.935065,0.952592,0
12.335945,0.034888,1.705459,0.083886,-0.185503,0.995014,1.015629,0
12.370961,0.035016,1.733346,0.079037,-0.063442,0.999644,1.004769,0
12.405885,0.034924,1.765863,0.039034,-0.071644,0.982829,0.98621,0
12.440717,0.034832,1.799736,0.012607,-0.000724,0.96309,0.963173,0
12.477917,0.0372,1.834792,0.052368,-0.005066,0.971376,0.972799,0
12.510754,0.032837,1.869357,0.077583,-0.001447,0.896317,0.89967,0
12.542191,0.031436,1.904775,0.026184,-0.02943,0.813704,0.814657,0
12.569723,0.027533,1.941121,0.074431,-0.035219,0.773494,0.777864,0
12.597224,0.027501,1.9792,0.129466,-0.008443,0.819065,0.829277,0
12.633316,0.036092,2.014168,0.114677,0.025736,0.907527,0.915106,0
12.664591,0.031275,2.044085,0.075886,0.003156,0.925804,0.928915,0
12.692261,0.02767,2.072021,0.113707,-0.008684,0.953586,0.96038,0
12.719965,0.027704,2.10053,0.143286,-0.029912,1.0613,1.071346,0
12.7515,0.031535,2.126044,0.05552,0.040304,1.218972,1.220901,1
12.779492,0.027992,2.13719,-0.012835,0.015053,1.283064,1.283216,0
12.814893,0.035401,2.15327,0.074916,-0.062478,1.261375,1.265141,0
12.846447,0.031554,2.195953,0.058429,-0.112652,1.494349,1.499728,0
12.87435,0.027904,2.247726,-0.238937,0.069681,1.49045,1.511088,0
12.90266,0.02831,2.273226,-0.299658,0.223369,1.190946,1.248216,0
12.934199,0.031539,2.283599,-0.209563,-0.006996,0.956023,0.978747,0
12.962146,0.027946,2.304098,-0.12243,-0.097696,0.834418,0.848992,0
12.997811,0.035665,2.331332,-0.022956,0.014568,0.801032,0.801493,0
13.029384,0.031573,2.354602,0.010183,0.10343,0.829057,0.835546,0
13.057378,0.027995,2.377855,-0.025177,0.123581,0.832956,0.84245,0
13.093701,0.036322,2.402317,-0.026411,0.060698,0.793964,0.796719,0
13.126297,0.032596,2.423518,-0.003456,0.072109,0.795914,0.799181,0
13.153824,0.027527,2.445043,0.058187,0.066282,0.804687,0.809506,0
13.180472,0.026648,2.470632,0.103524,0.075508,0.823208,0.833121,0
13.214108,0.033636,2.494491,0.097948,0.0522,0.847578,0.854814,0
13.24077,0.026663,2.516544,0.066673,0.046616,0.880477,0.884227,0
13.267387,0.026617,2.534958,0.063521,0.02258,0.899729,0.902251,0
13.301187,0.033799,2.548094,0.130678,0.029378,0.930922,0.940508,0
13.327925,0.026738,2.558138,0.174319,0.000971,0.996233,1.011369,0
13.354495,0.02657,2.562543,0.101585,-0.003618,0.976737,0.982012,0
13.388036,0.033541,2.569244,0.123405,-0.028706,1.059838,1.067384,0
13.414613,0.026578,2.571084,0.145225,0.029863,1.126854,1.136566,0
13.441151,0.026538,2.563323,0.220868,0.008012,1.117106,1.13876,0
13.472941,0.03179,2.568061,0.199533,-0.073333,1.211661,1.230168,1
13.499632,0.026691,2.578671,0.048489,-0.075986,1.31182,1.314913,0
13.526189,0.026557,2.571643,0.003637,0.068468,1.244803,1.24669,0
13.559698,0.033509,2.563914,0.035882,0.098088,1.177543,1.182166,0
13.586201,0.026503,2.553291,0.019881,0.045159,1.029863,1.031044,0
13.61271,0.026509,2.540144,0.00994,-0.044386,0.908746,0.909883,0
13.639668,0.026958,2.526078,0.038306,-0.074298,0.859762,0.863817,0
13.666257,0.026589,2.51104,0.098918,-0.018333,0.861956,0.867807,0
13.692796,0.026539,2.498084,0.115162,0.00607,0.905821,0.913133,0
13.7194,0.026604,2.488733,0.087038,-0.003377,0.917762,0.921887,0
13.745919,0.026519,2.476394,0.055035,-0.048486,0.896317,0.899313,0
13.779623,0.033703,2.474447,0.039276,-0.044627,0.915813,0.91774,0
13.806167,0.026544,2.47568,0.018911,0.00607,1.049359,1.049547,0
13.832685,0.026518,2.473739,0.040488,0.051472,1.032544,1.034618,0
13.866183,0.033498,2.474714,0.025457,0.08085,0.997451,1.001046,0
13.892712,0.026529,2.475407,0.04558,0.036419,0.919712,0.921561,0
13.919261,0.02655,2.474416,0.097463,0.004856,0.81541,0.821228,0
13.94582,0.026559,2.466461,0.122678,-0.015921,0.877309,0.885987,0
13.979364,0.033544,2.461431,0.108616,-0.041491,0.927998,0.935253,0
14.0059,0.026536,2.451501,0.107161,-0.06682,0.96114,0.969401,0
14.03244,0.02654,2.438369,0.081219,-0.083223,1.013535,1.020184,0
14.059014,0.026574,2.406508,0.052611,-0.082982,1.047653,1.05225,0
14.092852,0.033838,2.377116,0.048489,-0.086118,1.044972,1.049635,0
14.119632,0.02678,2.329395,0.195169,-0.103486,1.018409,1.042093,0
14.15347,0.033838,2.317397,0.149832,-0.176336,1.262593,1.283622,1
14.180115,0.026645,2.313262,-0.127367,0.038847,1.260644,1.267657,0
14.206728,0.026613,2.257779,-0.127614,0.201032,0.941888,0.971521,0
14.240348,0.03362,2.208774,0.060611,-0.019298,0.857813,0.860168,0
14.267055,0.026707,2.175638,0.202927,-0.172235,0.953829,0.99027,0
14.293867,0.026813,2.154615,0.19226,-0.055723,1.053745,1.072589,0
14.327661,0.033793,2.143547,0.025214,0.045159,1.01914,1.020452,0
14.354175,0.026515,2.124271,-0.084171,0.092504,0.989897,0.997766,0
14.38071,0.026535,2.104899,-0.000987,0.124553,0.962602,0.970628,0
14.407328,0.026618,2.086756,0.081219,0.175782,0.832468,0.854693,0
14.440845,0.033517,2.081,0.075643,0.120425,0.852695,0.864473,0
14.467349,0.026504,2.064296,0.007031,0.03909,0.841485,0.842422,0
14.501081,0.033731,2.055842,-0.001234,-0.046074,0.795426,0.796761,0
14.527823,0.026743,2.053375,0.029336,-0.033289,0.792502,0.793743,0
14.554351,0.026527,2.057763,0.040731,0.023065,0.835636,0.836946,0
14.580878,0.026528,2.063024,0.027396,0.092747,0.896804,0.902004,0
14.607354,0.026475,2.065525,0.067642,0.167041,0.976006,0.992505,0
14.640855,0.033501,2.077786,0.136497,0.192292,1.000376,1.027793,0
14.66767,0.026815,2.093469,0.087281,0.180395,0.939451,0.960588,0
14.69435,0.02668,2.09988,0.0674,0.139849,0.961872,0.974319,0
14.72806,0.03371,2.106625,0.095281,0.042003,0.932628,0.938423,0
14.754678,0.026618,2.117003,0.10207,0.010926,1.058863,1.063827,0
14.781347,0.026669,2.130167,0.078068,0.055114,1.16877,1.17267,0
14.814928,0.033581,2.140621,0.035397,0.115326,1.229694,1.235597,1
14.841583,0.026655,2.148859,0.041458,0.075751,1.238711,1.241717,0
14.868212,0.026628,2.157022,0.018183,0.057785,1.224333,1.225831,0
14.901836,0.033625,2.162653,0.064006,0.014568,1.156342,1.158203,0
14.928426,0.02659,2.172177,0.093827,0.034962,1.182417,1.186649,0
14.955046,0.026619,2.206738,0.047277,0.048559,1.357879,1.359569,0
14.988659,0.033613,2.235347,-0.150076,0.122367,1.239198,1.254237,0
15.015419,0.026761,2.247163,-0.225608,0.168498,1.076653,1.112866,0
15.042009,0.02659,2.255668,-0.086639,0.039332,0.931653,0.936499,0
15.075806,0.033796,2.27088,-0.051835,-0.004101,0.906309,0.907799,0
15.102659,0.026854,2.284855,-0.073063,0.064583,0.923124,0.92826,0
15.129566,0.026907,2.293819,-0.091329,0.06264,0.906552,0.913292,0
15.163186,0.033619,2.304468,-0.092563,0.032534,0.876334,0.881809,0
15.189813,0.026627,2.317728,-0.032829,0.026222,0.848552,0.849592,0
15.216377,0.026564,2.336057,-0.01481,0.025493,0.933115,0.933581,0
15.250015,0.033638,2.35049,-0.046405,0.030592,0.923124,0.924795,0
15.276713,0.026698,2.364858,-0.037272,0.019423,0.902166,0.903144,0
15.310744,0.03403,2.375336,0.040246,0.027921,0.849771,0.851181,0
15.337381,0.026637,2.386165,0.099645,0.02525,0.833687,0.84,0
15.364163,0.026782,2.399595,0.097706,0.013111,0.831737,0.837559,0
15.39789,0.033727,2.41221,0.101342,-0.004101,0.843678,0.849753,0
15.424499,0.026609,2.423818,0.127042,-0.005548,0.863418,0.872732,0
15.451126,0.026627,2.434949,0.166318,0.010926,0.816628,0.833464,0
15.484926,0.0338,2.44702,0.21505,-0.051864,0.932384,0.958267,0
15.512608,0.027681,2.465886,0.208746,-0.019539,0.992577,1.014478,0
15.54632,0.033712,2.480713,0.286571,0.019181,0.973813,1.015284,0
15.572841,0.026521,2.507133,0.270327,0.023551,1.117594,1.150064,0
15.606378,0.033537,2.527557,0.128011,0.044188,1.108821,1.11706,0
15.633471,0.027093,2.540611,0.019881,0.091533,1.231888,1.235443,1
15.66007,0.026599,2.550599,-0.026411,0.144947,1.299879,1.308202,0
15.69362,0.03355,2.555409,0.096493,0.191563,1.299392,1.316976,0
15.720198,0.026578,2.568246,0.048247,0.190107,1.336921,1.351231,0
15.746706,0.026508,2.593578,0.0337,0.173597,1.34277,1.354364,0
15.773206,0.026499,2.655689,-0.012589,0.180152,1.289156,1.301744,0
15.806928,0.033722,2.712135,-0.132551,0.282611,1.263081,1.301081,0
15.833457,0.026529,2.76518,-0.233507,0.353992,1.179005,1.252952,0
15.859964,0.026507,2.840626,-0.148595,0.250805,1.010123,1.051348,0
15.893486,0.033522,2.906661,-0.135513,0.210744,0.952855,0.985246,0
15.920035,0.026549,2.976296,-0.218203,0.185979,0.88462,0.929921,0
15.946528,0.026493,3.047837,-0.253007,0.112899,0.839536,0.884069,0
15.973067,0.026539,-3.134933,-0.240665,0.117026,0.847578,0.888821,0
16.006615,0.033549,-3.064384,-0.178956,0.226283,0.910208,0.954834,0
16.033121,0.026506,-2.999167,-0.155506,0.268529,0.95188,1.001182,0
16.059784,0.026663,-2.938483,-0.182658,0.229682,0.972838,1.016135,0
16.086476,0.026692,-2.867202,-0.173772,0.183794,0.879989,0.915619,0
16.120307,0.033831,-2.820119,-0.050601,0.168255,0.875359,0.892818,0
16.146995,0.026688,-2.747276,0.047519,0.173597,0.863662,0.882216,0
16.180643,0.033648,-2.698763,-0.047146,0.151017,0.872678,0.886903,0
16.207172,0.026529,-2.654532,-0.108361,0.1061,0.84246,0.856001,0
16.233701,0.026529,-2.615126,-0.06788,0.071381,0.75083,0.757264,0
16.260229,0.026527,-2.554398,0.051156,0.021851,0.792259,0.794209,0
16.293836,0.033607,-2.510885,-0.025177,0.024522,0.934577,0.935238,0
16.320943,0.027108,-2.476607,0.051156,-0.010131,0.931897,0.933355,0
16.347501,0.026557,-2.418872,0.126799,-0.053793,0.953098,0.963,0
16.381015,0.033514,-2.380813,0.048004,0.016024,1.0033,1.004576,0
16.407601,0.026586,-2.354365,-0.000987,0.053172,0.886813,0.888406,0
16.434123,0.026522,-2.329972,0.036609,0.047345,0.89583,0.897827,0
16.467628,0.033505,-2.326512,0.205837,0.030106,0.868292,0.892864,0
16.494164,0.026536,-2.311968,0.222808,-0.030153,0.906309,0.933781,0
16.527339,0.033175,-2.311349,0.155165,-0.098179,1.023039,1.039387,0
16.554383,0.027045,-2.320724,-0.010861,-0.069473,1.156342,1.158478,0
16.581033,0.02665,-2.344227,-0.053563,0.02695,1.241148,1.242596,1
16.607664,0.026631,-2.377083,0.233475,0.010926,1.179249,1.202189,0
16.636187,0.028522,-2.40935,0.346213,-0.103486,1.138064,1.194053,0
16.659344,0.023157,-2.41732,0.114192,-0.167411,1.287207,1.303061,0
16.685981,0.026638,-2.420348,-0.068127,0.035205,1.194115,1.196574,0
16.712744,0.026762,-2.436939,-0.087133,0.18088,1.126611,1.144361,0
16.746364,0.033621,-2.470911,0.02376,0.099788,1.009392,1.014591,0
16.773219,0.026855,-2.497136,0.09116,-0.045833,0.91825,0.923901,0
16.79987,0.026651,-2.509805,0.076855,0.01651,0.901435,0.904856,0
16.833471,0.033601,-2.535306,0.097706,0.077694,0.919225,0.927662,0
16.860096,0.026625,-2.566691,0.078552,0.059727,0.928729,0.933956,0
16.886684,0.026588,-2.591929,0.051883,-0.022434,0.898998,0.900773,0
16.920366,0.033682,-2.624158,0.052368,-0.129538,0.842216,0.853728,0
16.946957,0.02659,-2.657796,0.069097,-0.1141,0.824914,0.835629,0
16.973567,0.02661,-2.685591,0.08825,-0.034737,0.839292,0.844633,0
17.007178,0.033611,-2.722592,0.077098,-0.000241,0.885107,0.888458,0
17.033779,0.026601,-2.75995,0.030306,0.001214,0.914594,0.915097,0
17.06048,0.026701,-2.800535,0.01188,0.049044,0.952855,0.95419,0
17.087322,0.026842,-2.836145,0.000485,0.088376,1.021333,1.02515,0
17.121522,0.034201,-2.879287,-0.000987,-0.018092,1.023527,1.023687,0
17.15627,0.034747,-2.932662,0.018183,-0.096732,0.975518,0.980471,0
17.18997,0.033701,-2.989312,0.115404,-0.11603,0.926779,0.941117,0
17.216629,0.026658,-3.047279,0.160984,-0.096249,0.942376,0.96086,0
17.24326,0.026631,-3.107983,0.133588,-0.039561,1.096148,1.104967,0
17.277161,0.033901,3.114751,0.114434,0.001214,1.146106,1.151806,0
17.303821,0.026661,3.054909,0.095524,0.025736,1.267711,1.271565,1
17.330655,0.026834,2.990647,0.060611,0.027193,1.411005,1.412568,0
17.364283,0.033627,2.937539,0.013092,0.051958,1.417585,1.418597,0
17.390868,0.026586,2.889319,-0.011601,0.100273,1.257963,1.262006,0
17.417592,0.026724,2.832076,0.017214,0.046616,1.038392,1.039581,0
17.451211,0.033619,2.778151,0.069824,-0.055723,0.851233,0.855908,0
17.477844,0.026634,2.733058,0.07928,-0.076469,0.82004,0.827405,0
17.504487,0.026643,2.705509,0.077098,0.016995,0.875603,0.879155,0
17.537508,0.03302,2.673209,0.031518,0.114841,0.907771,0.915549,0
17.564263,0.026756,2.635738,0.030063,0.050501,0.810048,0.812178,0
17.590763,0.0265,2.596741,0.029094,-0.048004,0.729141,0.731298,0
17.617432,0.026669,2.55949,0.044368,-0.092148,0.711351,0.718666,0
17.648918,0.031486,2.520155,0.033458,-0.063201,0.781292,0.784558,0
17.675417,0.0265,2.477867,0.034427,-0.034254,0.869023,0.870379,0
17.701887,0.02647,2.429774,0.045337,0.006313,0.924098,0.925231,0
17.728442,0.026555,2.379622,0.166803,0.002671,0.89851,0.913866,0
17.763027,0.034584,2.332168,0.179168,-0.009408,0.888519,0.906452,0
17.789699,0.026673,2.284204,0.17844,-0.08274,0.894855,0.916216,0
17.8232,0.033501,2.242553,0.192987,-0.091183,0.914351,0.938933,0
17.84972,0.02652,2.197158,0.154923,-0.105174,0.956023,0.974188,0
17.876204,0.026485,2.14097,0.092857,-0.189362,0.958947,0.981866,0
17.90976,0.033555,2.090429,0.049701,-0.307804,1.001838,1.049234,0
17.936316,0.026557,2.034416,0.008728,-0.250151,1.143426,1.170502,0
17.962795,0.026479,1.961494,-0.001728,-0.169823,1.181442,1.193587,1
17.989282,0.026487,1.865783,0.161469,-0.118924,1.128804,1.146479,0
18.022825,0.033543,1.797453,0.179168,-0.253046,1.147081,1.188246,0
18.04932,0.026495,1.733228,0.01188,-0.282958,1.169501,1.203304,0
18.07601,0.02669,1.659865,-0.15526,-0.216621,1.153661,1.184045,0
18.102851,0.026841,1.55897,-0.134279,-0.181161,1.050333,1.074267,0
18.137836,0.034985,1.490188,-0.022709,-0.090218,1.073728,1.077751,0
18.165918,0.028081,1.425933,0.017456,-0.068991,1.00135,1.003876,0
18.19738,0.031462,1.384516,-0.015304,-0.17127,0.995745,1.010483,0
18.225284,0.027904,1.35299,-0.060475,-0.158003,0.933115,0.948328,0
18.253278,0.027993,1.322656,0.034427,-0.120854,0.946762,0.955065,0
18.286151,0.032873,1.32921,0.075401,-0.060306,0.993308,0.99799,0
18.311113,0.024962,1.333384,0.044368,-0.019781,0.992334,0.993522,0
18.33936,0.028247,1.332914,0.028366,-0.01568,0.934821,0.935383,0
18.374074,0.034714,1.347721,0.072491,-0.038596,0.845141,0.849122,0
18.409075,0.035002,1.369811,0.060127,0.004613,0.836124,0.838296,0
18.443908,0.034833,1.382376,0.072976,0.083521,0.862687,0.869787,0
18.478983,0.035074,1.395479,0.086068,0.042974,0.843922,0.849387,0
18.510604,0.031621,1.416048,0.132618,0.021609,0.84904,0.859606,0
18.541032,0.030428,1.441328,0.159529,0.0017,0.920687,0.934407,0
18.573225,0.032192,1.477613,0.131648,0.060698,1.138795,1.147985,0
18.601024,0.0278,1.520199,0.002182,0.11217,1.334484,1.339192,1
18.633126,0.032101,1.56099,0.015032,-0.056688,1.26235,1.263711,0
18.660319,0.027193,1.608368,0.086796,-0.148595,1.206543,1.218754,0
18.687396,0.027077,1.676536,-0.008392,-0.131951,1.297686,1.304404,0
18.721702,0.034306,1.731225,-0.265595,0.068468,1.174863,1.206454,0
18.749605,0.027903,1.753489,-0.156247,0.008983,0.861712,0.875809,0
18.782004,0.032399,1.782083,0.073704,-0.118924,0.8003,0.812438,0
18.81022,0.028217,1.826996,0.129709,-0.061513,0.883401,0.894989,0
18.842048,0.031828,1.86831,0.099888,0.034234,0.883157,0.889447,0
18.870313,0.028265,1.900958,0.093584,0.02258,0.75741,0.763503,0
18.902137,0.031823,1.942475,0.151286,-0.066578,0.779586,0.796916,0
18.930424,0.028287,1.988833,0.103524,-0.0866,0.832956,0.84382,0
18.958349,0.027925,2.033362,0.04267,-0.050899,0.907771,0.910197,0
18.989771,0.031422,2.065589,0.017699,-0.022916,0.939208,0.939654,0
19.017802,0.028031,2.090747,0.040488,-0.02943,0.903628,0.905013,0
19.052864,0.035061,2.114634,0.08922,-0.061271,0.821746,0.828843,0
19.088326,0.035462,2.136664,0.1685,-0.008925,0.867317,0.883578,0
19.120091,0.031765,2.158123,0.182319,-0.060548,0.91167,0.931691,0
19.148329,0.028238,2.181291,0.1685,-0.013026,0.965283,0.979966,0
19.183458,0.03513,2.208498,0.13286,-0.010373,1.18461,1.192083,1
19.218498,0.03504,2.233757,0.031518,-0.053311,1.238467,1.240015,0
19.250065,0.031567,2.255941,0.021093,-0.134604,1.251383,1.258779,0
19.278257,0.028192,2.282673,-0.034557,-0.213002,1.378106,1.394898,0
19.306315,0.028058,2.317702,-0.190557,-0.034495,1.450484,1.463354,0
19.338095,0.03178,2.331271,-0.134525,0.09299,1.239686,1.250426,0
19.366091,0.027996,2.332631,-0.016291,-0.004583,0.953586,0.953736,0
19.401247,0.035155,2.340196,-0.034804,-0.118683,0.804687,0.814136,0
19.432777,0.031531,2.35073,0.063278,-0.058618,0.796645,0.801301,0
19.460758,0.027981,2.365846,0.161469,0.019909,0.875603,0.890589,0
19.488727,0.027969,2.386604,0.035397,-0.000241,0.939695,0.940362,0
19.520276,0.031549,2.403827,-0.078494,-0.079605,0.891443,0.898426,0
19.548534,0.028258,2.420769,-0.031101,-0.116271,0.828569,0.837265,0
19.580951,0.032418,2.441406,0.039034,-0.054276,0.84051,0.843165,0
19.608706,0.027754,2.461889,0.080007,0.029863,0.864149,0.868359,0
19.643128,0.034422,2.477938,0.064248,0.032049,0.862199,0.865184,0
19.670636,0.027508,2.491777,0.037094,-0.024364,0.838073,0.839248,0
19.705252,0.034616,2.503031,0.110798,-0.001447,0.799326,0.806969,0
19.740051,0.034799,2.513432,0.230566,-0.003618,0.813216,0.845278,0
19.775431,0.035379,2.530525,0.185956,-0.007719,1.051552,1.067895,0
19.808274,0.032843,2.546123,0.117101,0.049044,1.230182,1.236715,1
19.843481,0.035207,2.555233,0.061824,0.040789,1.297198,1.299311,0
19.871151,0.027671,2.568251,0.030306,0.020152,1.315232,1.315735,0
19.902423,0.031272,2.603414,-0.00469,0.061669,1.390778,1.392152,0
19.930332,0.027909,2.647542,-0.151063,0.221184,1.401501,1.426866,0
19.95834,0.028008,2.668854,-0.189076,0.426101,1.135627,1.227584,0
19.989915,0.031575,2.670195,-0.069361,0.200547,0.902897,0.927498,0
20.017959,0.028044,2.681336,0.071037,0.024279,0.702091,0.706093,0
20.045944,0.027985,2.712524,0.081704,0.04783,0.731822,0.73792,0
20.077356,0.031412,2.74144,-0.009133,0.095417,0.790065,0.795859,0
20.1054,0.028044,2.76982,-0.038753,0.055842,0.764477,0.767493,0
20.140858,0.035458,2.798501,0.016729,0.028164,0.790065,0.790744,0
20.17212,0.031262,2.823164,0.031276,0.030349,0.796889,0.798079,0
20.19985,0.02773,2.847296,0.054065,0.04783,0.828082,0.831222,0
20.227536,0.027687,2.871533,0.042428,0.082792,0.889981,0.89483,0
20.262744,0.035207,2.886458,0.027639,0.08522,0.943594,0.947838,0
20.295802,0.033059,2.896857,0.047035,0.065311,0.939695,0.943136,0
20.320838,0.025036,2.902663,0.072491,0.056571,0.916544,0.921145,0
20.349559,0.028721,2.904406,0.150801,0.074537,0.883157,0.899035,0
20.380964,0.031404,2.90957,0.212868,0.003642,0.910451,0.935012,0
20.408851,0.027888,2.915678,0.176501,0.052929,1.033275,1.049576,0
20.436613,0.027761,2.92391,0.096251,0.069681,1.268198,1.273753,1
20.468205,0.031593,2.929095,0.041943,0.141791,1.333265,1.34144,0
20.496267,0.028062,2.934136,0.145952,0.129651,1.28282,1.29759,0
20.524398,0.02813,2.949287,0.124375,0.058513,1.295493,1.302764,0
20.556019,0.031621,2.966454,-0.034804,0.126009,1.314013,1.3205,0
20.583515,0.027496,2.97382,-0.104905,0.156844,1.086157,1.102425,0
20.611466,0.027951,2.968519,-0.003209,0.080364,0.882183,0.885841,0
20.644024,0.032557,2.96999,0.053823,-0.055241,0.773006,0.776844,0
20.671371,0.027347,2.97741,0.072976,-0.049693,0.86683,0.871314,0
20.705819,0.034448,2.985477,0.057945,0.048073,0.90972,0.912831,0
20.74035,0.034531,2.991163,-0.008639,0.035691,0.939695,0.940412,0
20.775404,0.035055,2.997676,0.012122,0.000728,0.903872,0.903953,0
20.807978,0.032573,3.006129,0.033215,0.014568,0.905334,0.90606,0
20.835817,0.027839,3.015444,0.040731,0.039332,0.905334,0.907103,0
20.863762,0.027945,3.026394,0.036124,0.048801,0.894124,0.896183,0
20.895256,0.031494,3.034577,0.048732,0.06871,0.892174,0.896142,0
20.923208,0.027952,3.041348,0.082917,0.059484,0.863418,0.869427,0
20.958293,0.035085,3.045653,0.090917,0.00437,0.830519,0.835492,0
20.993432,0.035139,3.049122,0.137709,0.000971,0.874384,0.885163,0
21.024995,0.031563,3.054694,0.157832,0.016267,0.970401,0.983287,0
21.052987,0.027992,3.061247,0.117829,0.046131,1.07909,1.086483,0
21.081165,0.028178,3.069599,0.062551,0.076965,1.167308,1.171514,0
21.112968,0.031803,3.072749,0.02376,0.038361,1.162921,1.163797,0
21.141374,0.028406,3.07588,0.048004,0.029863,1.161703,1.163078,0
21.172893,0.031519,3.081403,0.100373,0.161457,1.19119,1.206266,1
21.201038,0.028145,3.086396,0.034912,0.185494,1.201182,1.215921,0
21.229107,0.02807,3.092607,-0.021722,0.192049,1.107359,1.124099,0
21.260506,0.031399,3.091731,-0.070595,0.192049,0.996476,1.017267,0
21.288165,0.027659,3.087164,-0.008392,0.113141,0.776906,0.785146,0
21.315779,0.027614,3.093194,0.065945,0.059484,0.813947,0.818778,0
21.347291,0.031512,3.109587,0.05649,0.16,0.891443,0.907448,0
21.375315,0.028024,3.127553,-0.023449,0.175296,0.936283,0.952841,0
21.403565,0.02825,-3.134472,-0.052082,0.137906,0.920199,0.931932,0
21.435188,0.031623,-3.108431,-0.085405,0.001942,0.923367,0.927311,0
21.470046,0.034858,-3.094024,-0.090836,0.080122,0.950661,0.958346,0
21.504901,0.034855,-3.088148,-0.0,0.089348,0.964796,0.968924,0
21.532607,0.027706,-3.086971,0.022305,0.106343,0.961872,0.967989,0
21.567753,0.035146,-3.088765,0.061096,0.076965,0.902897,0.908229,0
21.602605,0.034852,-3.091931,0.093099,0.075508,0.923367,0.931116,0
21.635361,0.032756,-3.09673,0.121708,0.113141,0.946275,0.960755,0
21.662948,0.027587,-3.099699,0.133345,0.110471,0.975762,0.991008,0
21.697498,0.03455,-3.10187,0.090675,0.087405,1.023039,1.030763,0
21.72489,0.027392,-3.104454,0.065945,0.101245,1.099804,1.106421,0
21.756323,0.031433,-3.108956,0.048489,0.153931,1.159266,1.170446,0
21.78464,0.028317,-3.118918,0.034427,0.181852,1.158535,1.173226,0
21.819938,0.035299,-3.129343,0.070794,0.096631,1.087863,1.094438,0
21.851812,0.031874,-3.135107,0.089947,0.035205,1.062031,1.066414,0
21.879592,0.02778,-3.134946,0.034912,0.07915,1.078846,1.082309,0
21.907516,0.027924,-3.132429,-0.070101,0.188893,1.087375,1.105884,0
21.938958,0.031442,3.140648,-0.089601,0.137178,0.932628,0.946911,0
21.966971,0.028013,3.132482,-0.010861,0.007041,0.80883,0.808933,0
21.994871,0.027901,3.135009,-0.018513,-0.053793,0.862931,0.864804,0
22.02635,0.031478,3.141524,-0.036038,0.118968,0.977224,0.985099,0
22.054244,0.027894,-3.121798,-0.013329,0.174811,1.039611,1.05429,0
22.089565,0.035322,-3.09486,-0.0975,0.137906,1.027913,1.041696,0
22.121084,0.031519,-3.070773,-0.173279,0.085706,0.978443,0.997357,0
22.149309,0.028224,-3.046667,-0.151804,0.094204,0.959922,0.976406,0
22.177148,0.027839,-3.015457,-0.134279,0.142519,0.97893,0.998322,0
22.208607,0.031459,-2.987245,-0.100956,0.156601,0.974056,0.991717,0
22.236481,0.027874,-2.956378,-0.082937,0.112656,0.954804,0.964998,0
22.264366,0.027885,-2.913547,-0.078247,0.097845,0.950661,0.958881,0
22.295836,0.03147,-2.872871,-0.044184,0.075751,0.928729,0.93286,0
22.323679,0.027843,-2.82983,-0.031348,0.071381,0.905578,0.908927,0
22.351649,0.02797,-2.77881,-0.037272,0.055842,0.874141,0.876715,0
22.383205,0.031556,-2.733523,-0.038013,0.119697,0.895586,0.904349,0
22.411095,0.02789,-2.667178,0.002182,0.1078,0.941645,0.947798,0
22.44608,0.034986,-2.600479,-0.032829,0.1617,1.113451,1.12561,0
22.48105,0.03497,-2.536993,-0.099228,0.137421,1.101997,1.114957,0
22.516035,0.034985,-2.482951,-0.070348,0.032534,1.084695,1.08746,0
22.547528,0.031493,-2.450038,-0.194753,0.19909,1.225064,1.256323,1
22.57536,0.027832,-2.431382,-0.240418,0.305676,1.08177,1.14955,0
22.611298,0.035938,-2.432549,-0.103671,0.083521,0.854401,0.864711,0
22.646876,0.035578,-2.441107,0.023032,-0.101797,0.834174,0.840678,0
22.677668,0.030792,-2.464636,0.031276,-0.082017,0.951392,0.955433,0
22.704875,0.027207,-2.492512,0.026184,-0.050657,1.025476,1.027061,0
22.732067,0.027192,-2.526911,0.005819,-0.00193,1.058132,1.058149,0
22.759678,0.027611,-2.56297,0.044125,0.018695,1.072754,1.073823,0
22.791077,0.031399,-2.60842,0.074431,0.021123,1.065686,1.068491,0
22.819016,0.027939,-2.66098,0.017699,0.000243,1.017678,1.017832,0
22.846745,0.027729,-2.720749,0.031033,-0.023399,0.95188,0.952673,0
22.87815,0.031405,-2.786246,0.061824,-0.03546,0.915082,0.917853,0
22.906009,0.027859,-2.850864,0.057945,-0.01568,0.959922,0.961797,0
22.933869,0.02786,-2.914692,0.064248,0.065797,1.042779,1.046826,0
22.965314,0.031445,-2.982665,0.096251,0.18428,1.05472,1.075015,0
22.993342,0.028028,-3.050592,0.081219,0.097845,1.026207,1.034056,0
23.021317,0.027975,-3.117391,0.085099,0.050744,0.977468,0.982477,0
23.052766,0.031449,3.102229,0.098675,0.081578,1.000132,1.008294,0
23.080752,0.027986,3.036154,0.117586,0.092261,0.988191,0.99943,0
23.116269,0.035517,2.969781,0.073704,0.083278,0.940913,0.947463,0
23.148478,0.032209,2.910378,0.109101,0.092261,0.930191,0.9411,0
23.176113,0.027635,2.857725,0.147892,0.05827,0.93409,0.947519,0
23.203745,0.027632,2.809201,0.116132,0.046859,0.990871,0.998753,0
23.234814,0.031069,2.76227,0.068855,0.072595,1.022796,1.027678,0
23.262571,0.027757,2.717901,0.101342,0.070895,1.019384,1.026859,0
23.290516,0.027945,2.677389,0.08825,0.036904,0.995989,1.000572,0
23.321916,0.0314,2.634496,0.050671,0.006798,0.977955,0.979291,0
23.349934,0.028018,2.589718,0.028851,-0.002171,0.981367,0.981794,0
23.377842,0.027908,2.544415,0.069582,0.023308,0.97235,0.975116,0
23.409731,0.031889,2.505711,0.119526,0.064097,0.955779,0.965354,0
23.437694,0.027963,2.468044,0.072006,0.077451,0.959191,0.965003,0
23.47268,0.034986,2.431711,0.034912,0.100516,0.955048,0.960957,0
23.507757,0.035078,2.401866,0.041943,0.122125,0.962602,0.971225,0
23.542735,0.034978,2.371587,0.026427,0.178453,0.976981,0.993496,0
23.574314,0.031578,2.342366,0.052126,0.199333,0.944569,0.966779,0
23.602275,0.027961,2.316976,0.091887,0.128923,0.923124,0.936601,0
23.638087,0.035812,2.294313,0.100373,0.142034,0.909233,0.925717,0
23.67009,0.032003,2.27212,0.162681,0.165827,0.909477,0.938675,0
23.697315,0.027224,2.257843,0.250932,0.136692,0.95188,0.993844,0
23.731568,0.034253,2.245327,0.242203,0.137663,0.995502,1.033749,0
23.75906,0.027492,2.2326,0.183532,0.094446,1.10614,1.125233,0
23.786916,0.027856,2.216065,0.051399,0.07915,1.176325,1.180104,1
23.818285,0.031368,2.187356,-0.023943,0.135235,1.170232,1.178264,0
23.846097,0.027812,2.152262,0.032245,0.140091,1.149518,1.158472,0
23.874157,0.02806,2.122276,0.24487,0.077208,1.117106,1.146233,0
23.905679,0.031522,2.118121,0.117344,0.105615,1.201182,1.211512,0
23.933567,0.027888,2.116053,-0.183399,0.169955,1.200938,1.226691,0
23.965799,0.032232,2.09657,-0.196481,0.192777,1.068367,1.103257,0
23.993359,0.02756,2.08161,-0.012835,0.173111,0.937989,0.953916,0
24.021419,0.028059,2.081574,0.027396,0.174082,0.880233,0.8977,0
24.052519,0.031101,2.089176,-0.002715,0.243035,0.87609,0.90918,0
24.080711,0.028192,2.103398,-0.080962,0.21997,0.882426,0.913027,0
24.108702,0.027991,2.13412,-0.036285,0.227497,0.883888,0.913417,0
24.140368,0.031666,2.166322,-0.026165,0.209773,0.912645,0.936808,0
24.168352,0.027983,2.200439,-0.126627,0.141305,0.942132,0.961049,0
24.196162,0.027811,2.240753,-0.188336,0.117997,0.998182,1.022625,0
24.227509,0.031347,2.26969,-0.129342,0.179424,1.025476,1.049059,0
24.255414,0.027904,2.317381,-0.00543,0.16607,1.037905,1.051121,0
24.290368,0.034954,2.36547,-0.009133,0.137906,0.992577,1.002153,0
24.325311,0.034943,2.41776,-0.020487,0.065068,0.950174,0.95262,0
24.361709,0.036398,2.458832,-0.026658,0.037876,0.934821,0.935968,0
24.393069,0.031359,2.510496,-0.059981,0.064583,0.980636,0.984589,0
24.428155,0.035087,2.554952,-0.044677,0.082792,0.999401,1.003819,0
24.463178,0.035022,2.576976,-0.011108,0.048073,0.99209,0.993316,0
24.491059,0.027881,2.602756,0.015274,0.03909,1.057888,1.05872,0
24.522443,0.031385,2.613537,0.05746,-0.004101,0.987703,0.989382,0
24.550294,0.027851,2.623828,0.034912,-0.037149,1.001594,1.00289,0
24.578094,0.0278,2.634882,-0.000741,0.049287,0.937258,0.938553,0
24.609467,0.031373,2.63259,0.094796,0.018938,0.883157,0.888432,0
24.637984,0.028517,2.638801,0.178925,-0.047522,0.846359,0.86637,0
24.670675,0.032692,2.646766,0.192502,-0.075262,0.998182,1.019357,0
24.699053,0.028378,2.654488,0.164136,-0.019781,1.071291,1.083973,0
24.726694,0.027641,2.660469,0.130678,0.008498,1.091274,1.099104,0
24.757938,0.031244,2.659084,0.140861,-0.022675,1.055938,1.065534,0
24.786086,0.028147,2.656266,0.108858,-0.081534,0.940913,0.950692,0
24.813925,0.027839,2.65292,0.106676,-0.091907,0.940182,0.950668,0
24.845335,0.03141,2.640264,0.144498,-0.063684,0.924098,0.937493,0
24.870682,0.025347,2.6269,0.159529,-0.072609,0.940182,0.956381,0
24.898386,0.027704,2.613824,0.117586,-0.074298,0.969426,0.979354,0
24.926021,0.027634,2.600621,0.105706,-0.027982,0.998426,1.004396,0
24.960902,0.034881,2.586847,0.164621,0.013839,0.998426,1.012001,0
24.99241,0.031508,2.576403,0.184744,0.029135,1.031569,1.048386,0
25.023885,0.031475,2.564927,0.081462,-0.000482,1.062518,1.065637,0
25.052716,0.028831,2.547432,0.049217,0.001457,1.046922,1.048079,0
25.082696,0.02998,2.52207,0.1011,0.009226,1.015241,1.020304,0
25.120142,0.037445,2.50564,0.277601,-0.060789,0.970888,1.011623,0
25.150743,0.030601,2.496852,0.000727,-0.042938,1.105653,1.106486,0
25.187257,0.036514,2.466926,-0.139709,0.123096,1.000376,1.017557,0
25.220546,0.033289,2.435289,0.063521,0.041518,0.925804,0.928909,0
25.247251,0.026706,2.410134,0.088978,0.008983,0.926779,0.931084,0
25.273815,0.026564,2.386224,0.0337,0.031806,0.944569,0.945705,0
25.300364,0.026549,2.352416,-0.000987,0.043217,0.96504,0.966007,0
25.33393,0.033566,2.322974,0.000485,0.051472,0.984048,0.985393,0
25.361103,0.027173,2.297641,0.051399,0.112899,1.008661,1.016261,0
25.394791,0.033688,2.278329,0.09916,0.166798,1.029132,1.047266,0
25.421499,0.026708,2.260929,0.054065,0.106343,1.004762,1.01182,0
25.448164,0.026666,2.246644,-0.002468,0.013111,1.056182,1.056266,0
25.48174,0.033575,2.231263,-0.096513,0.039818,1.035468,1.040718,0
25.508253,0.026514,2.211101,-0.043937,0.072109,1.00793,1.011461,0
25.534765,0.026511,2.187446,-0.001975,0.064097,0.954317,0.956469,0
25.561354,0.02659,2.163105,-0.003703,0.013839,0.927754,0.927865,0
25.594894,0.03354,2.140298,-0.015551,0.001214,0.916544,0.916677,0
25.621413,0.026519,2.110869,0.008728,-0.024605,0.93872,0.939083,0
25.656488,0.035075,2.086412,0.018183,-0.037872,1.046434,1.047277,0
25.692434,0.035946,2.064143,-0.002468,0.005827,1.018653,1.018672,0
25.723861,0.031427,2.04247,-0.001481,0.016267,0.983561,0.983696,0
25.75115,0.02729,2.020806,-0.006418,-0.029671,0.959191,0.959671,0
25.777856,0.026706,1.998797,-0.040481,-0.053552,0.922636,0.925075,0
25.804557,0.026701,1.966262,-0.017278,-0.085635,0.886813,0.891105,0
25.838926,0.034369,1.943721,0.003637,-0.083464,0.9163,0.920101,0
25.865441,0.026515,1.927634,-0.007652,-0.074056,0.999157,1.001927,0
25.891956,0.026514,1.90717,-0.045911,-0.06103,1.040586,1.043384,0
25.925494,0.033539,1.888567,-0.080468,-0.022434,1.10151,1.104673,0
25.952068,0.026573,1.873251,-0.089848,-0.04728,1.102485,1.10715,0
25.978576,0.026508,1.860339,-0.107374,-0.03546,1.008905,1.015222,0
26.005071,0.026495,1.848775,-0.067386,-0.029188,1.014754,1.017407,0
26.038599,0.033528,1.843031,-0.041715,-0.036425,0.978199,0.979766,0
26.065313,0.026714,1.840535,-0.066399,-0.040767,0.960166,0.963322,0
26.091988,0.026675,1.838976,-0.059981,-0.014474,0.933359,0.935396,0
26.125735,0.033746,1.839904,-0.042703,0.011897,0.995745,0.996732,0
26.153275,0.027541,1.844411,-0.059981,0.027678,0.938964,0.941285,0
26.186965,0.033689,1.844407,-0.111817,0.011897,0.908502,0.915434,0
26.213561,0.026597,1.845485,-0.095525,-0.042697,0.910208,0.916202,0
26.247177,0.033616,1.846208,-0.117987,-0.016162,0.950905,0.958333,0
26.273816,0.026639,1.845382,-0.148101,-0.019781,0.923367,0.935378,0
26.300375,0.026559,1.841054,-0.114038,-0.052587,0.921661,0.930177,0
26.327161,0.026786,1.83494,-0.060228,-0.032083,0.959678,0.962101,0
26.360878,0.033717,1.838674,-0.001234,-0.073091,0.975762,0.978497,0
26.387452,0.026574,1.848967,0.01091,-0.057412,1.020115,1.021788,0
26.41414,0.026689,1.87232,0.029821,-0.027017,1.034737,1.035519,0
26.447717,0.033577,1.889776,0.059884,0.038118,1.039611,1.042031,0
26.474297,0.02658,1.902568,0.127769,0.151745,1.02377,1.042812,0
26.500893,0.026597,1.925744,0.184744,0.082064,1.059838,1.078944,0
26.534452,0.033558,1.942988,0.035397,0.117026,1.020115,1.027416,0
26.561049,0.026597,1.951895,0.048489,0.096389,0.968695,0.974686,0
26.587575,0.026527,1.954312,0.132375,0.117512,0.990871,1.006558,0
26.614087,0.026511,1.952312,0.071522,0.110713,0.965527,0.974482,0
26.647883,0.033796,1.950931,0.088735,0.110471,0.994527,1.00457,0
26.682409,0.034526,1.9592,-0.001481,0.041518,0.972594,0.973481,0
26.709553,0.027144,1.965226,0.028124,0.221184,0.877796,0.905671,0
26.743298,0.033744,1.965404,0.116374,0.185494,0.912645,0.938547,0
26.770115,0.026817,1.963199,0.042913,0.109985,0.911426,0.919041,0
26.796755,0.02664,1.954818,-0.054057,0.111442,0.815897,0.825245,0
26.830392,0.033637,1.945074,-0.109842,0.18428,0.862443,0.888725,0
26.857116,0.026724,1.924169,-0.133538,0.10343,0.964796,0.97947,0
26.891093,0.033978,1.91295,-0.078247,0.120182,0.906552,0.917825,0
26.917782,0.026689,1.908758,0.117344,0.184522,0.836368,0.864482,0
26.944391,0.026608,1.888233,0.15468,0.225069,0.910939,0.950995,0
26.978241,0.03385,1.859105,-0.037272,0.217057,0.998426,1.022427,0
27.005081,0.02684,1.833007,0.104494,0.093718,0.943594,0.953977,0
27.031759,0.026678,1.809282,-0.106386,-0.021469,0.950661,0.956836,0
27.06567,0.033911,1.793584,0.02279,0.140334,1.018165,1.028044,0
27.092539,0.026869,1.792674,0.055763,0.266829,1.055938,1.090556,0
27.126299,0.03376,1.80988,0.107888,0.444068,1.005981,1.104913,0
27.153482,0.027183,1.840286,0.151771,0.382884,0.994039,1.075987,0
27.187305,0.033823,1.836048,0.119283,0.374629,0.970401,1.047021,0
27.213959,0.026654,1.831633,0.188865,0.477573,0.906796,1.042125,0
27.240611,0.026652,1.840098,0.081704,0.376328,0.995258,1.067163,0
27.274375,0.033764,1.845235,0.042428,0.264644,1.038392,1.072425,0
27.301081,0.026706,1.853249,0.072491,0.267557,1.009636,1.046999,0
27.334706,0.033624,1.866762,-0.01876,0.278483,0.894124,0.936676,0
27.361697,0.026991,1.878574,-0.037025,0.160729,0.953586,0.967745,0
27.388368,0.026671,1.875949,-0.05381,0.134993,0.982586,0.993274,0
27.419195,0.030828,1.872881,-0.002222,0.193991,1.031081,1.049174,0
27.445858,0.026663,1.875735,-0.002468,0.146404,1.045703,1.055905,0
27.472731,0.026873,1.877355,-0.030361,0.150774,1.04156,1.052854,0
27.499494,0.026763,1.877789,0.603448,-0.131227,1.877684,1.97663,1
27.533166,0.033672,1.872756,0.264751,0.185736,0.940182,0.994251,0
27.559851,0.026685,1.872525,0.04558,0.081093,0.969182,0.973636,0
27.593486,0.033635,1.869801,-0.00543,0.087648,0.978687,0.982618,0
27.620135,0.026649,1.865204,-0.003703,0.053657,0.979661,0.981137,0
27.647436,0.027301,1.857344,0.067642,0.056571,0.982342,0.986292,0
27.67847,0.031034,1.847227,0.045095,0.106586,0.982098,0.988894,0
27.709988,0.031518,1.833627,0.011637,0.108528,0.978687,0.984754,0
27.74107,0.031082,1.822492,0.034912,0.146161,0.924098,0.936237,0
27.767691,0.026621,1.808218,-0.034063,0.165827,1.039611,1.053304,0
27.794317,0.026627,1.796638,0.048004,0.176025,0.94067,0.958201,0
27.8209,0.026583,1.782249,0.023032,0.111199,0.930922,0.937823,0
27.854532,0.033632,1.76814,0.01285,0.091533,0.936771,0.94132,0
27.881125,0.026594,1.754318,-0.000987,0.113141,0.988922,0.995373,0
27.907698,0.026573,1.74106,-0.014316,0.101002,1.035224,1.040238,0
27.934265,0.026567,1.7252,-0.003949,0.076237,0.971863,0.974857,0
27.967889,0.033625,1.713201,0.012607,0.081093,0.980392,0.983821,0
27.994423,0.026534,1.700406,-0.017525,0.075751,0.986485,0.989544,0
28.021015,0.026592,1.689178,0.005819,0.063369,0.947493,0.949628,0
28.0546,0.033584,1.678674,-0.001481,0.066525,0.970645,0.972923,0
28.081408,0.026809,1.669074,0.010183,0.008983,0.989165,0.989259,0
28.108215,0.026807,1.658697,0.000727,0.076237,0.976006,0.978979,0
28.143016,0.034801,1.650162,-0.013329,0.077451,0.980392,0.983537,0
28.176941,0.033925,1.642847,0.001455,0.081093,0.983317,0.986656,0
28.203625,0.026684,1.636265,0.018426,0.093961,0.98746,0.992091,0
28.230261,0.026635,1.631181,-0.014563,0.093718,0.992577,0.997098,0
28.264009,0.033748,1.626368,0.002909,0.088619,1.000619,1.00454,0
28.29079,0.026782,1.620487,0.01188,0.07915,1.004518,1.007702,0
28.324423,0.033633,1.61841,0.013577,0.05827,1.016947,1.018705,0
28.351027,0.026604,1.613709,-0.008392,0.078908,0.994771,0.99793,0
28.377967,0.02694,1.608086,0.007516,0.042246,0.996476,0.9974,0
28.411718,0.033752,1.60277,-0.004196,-0.051864,0.977955,0.979339,0
28.438387,0.026668,1.593778,0.051399,0.095903,1.007443,1.013302,0
28.465028,0.026641,1.59359,-0.039987,0.16607,0.985754,1.000444,0
28.49878,0.033752,1.590057,0.002909,0.107072,0.982098,0.987922,0
28.525419,0.026639,1.586886,0.00097,0.090319,0.997695,1.001775,0
28.552012,0.026593,1.585065,-0.020487,0.088376,0.971132,0.97536,0
28.585669,0.033657,1.58288,0.013335,0.105615,0.994039,0.999723,0
28.612267,0.026597,1.583708,-0.015304,0.035691,0.995258,0.996015,0
28.639549,0.027282,1.584043,0.003394,0.028164,0.984292,0.9847,0
28.666202,0.026653,1.583343,0.001212,0.094932,1.04546,1.049761,0
28.699688,0.033486,1.581241,0.024972,0.102216,0.994039,0.999593,0
28.726835,0.027146,1.579468,0.015759,0.072595,0.98746,0.99025,0
28.753459,0.026624,1.576224,-0.000247,0.086434,0.999157,1.002889,0
28.780117,0.026658,1.573374,0.018911,0.082549,0.988922,0.992541,0
28.806708,0.026591,1.569382,0.007273,0.083035,0.992821,0.996314,0
28.840322,0.033614,1.566325,0.00194,0.093475,0.999644,1.004007,0
28.866893,0.026571,1.563269,0.008001,0.048073,0.986241,0.987445,0
28.893462,0.026569,1.560461,-0.000987,0.045159,0.991602,0.992631,0
28.927065,0.033603,1.560207,0.016971,0.002185,0.991602,0.99175,0
28.953673,0.026608,1.561164,0.004606,0.066768,0.98551,0.98778,0
28.980289,0.026616,1.560989,-0.0,0.075266,0.995014,0.997857,0
29.014069,0.033779,1.559768,0.009698,0.063126,0.990871,0.992928,0
29.040893,0.026824,1.559151,0.01285,0.026464,1.014023,1.014449,0
29.067715,0.026823,1.554051,0.03564,-0.015921,0.936527,0.93734,0
29.101432,0.033716,1.550957,0.005819,0.065311,0.991846,0.994011,0
29.128048,0.026617,1.549354,0.009455,0.069439,0.991602,0.994076,0
29.154881,0.026832,1.549194,0.016486,0.069196,0.994771,0.997311,0
29.188579,0.033699,1.547779,0.007516,0.057542,0.99209,0.993786,0
29.215211,0.026632,1.549242,0.005334,0.052443,0.993065,0.994463,0
29.24883,0.033619,1.551159,-0.000494,0.071381,0.982829,0.985418,0
29.27547,0.02664,1.550854,0.010425,0.060455,0.995502,0.99739,0
29.301955,0.026485,1.55248,0.000727,0.03302,0.991359,0.991909,0
29.328488,0.026533,1.559117,0.007516,0.069681,0.995989,0.998452,0
29.362098,0.033611,1.560777,0.00897,0.027436,0.997207,0.997625,0
29.388605,0.026506,1.56109,0.008728,0.097845,0.989165,0.994031,0
29.415179,0.026574,1.559778,0.002182,0.081821,0.997939,1.00129,0
29.441656,0.026477,1.558039,0.017214,0.094689,0.994283,0.99893,0
29.475184,0.033528,1.556473,0.007516,0.061184,0.994771,0.996679,0
29.501905,0.026721,1.554197,0.00897,0.048316,0.984535,0.985761,0
29.528393,0.026488,1.552452,0.005091,0.059727,0.992821,0.994629,0
29.554864,0.026472,1.551674,0.007273,0.04783,0.995989,0.997163,0
29.588379,0.033515,1.550987,0.00994,0.077208,0.995258,0.998298,0
29.614853,0.026474,1.549936,0.013577,0.056571,0.993552,0.995254,0
29.641812,0.026958,1.545877,0.004606,0.045888,0.991359,0.992431,0
29.672925,0.031113,1.542709,0.007031,0.0522,0.967233,0.968666,0
29.701081,0.028156,1.542994,0.016486,0.056571,0.994039,0.995784,0
29.728384,0.027303,1.543163,0.002424,0.057299,0.995989,0.997639,0
29.762236,0.033852,1.54256,0.007516,0.0539,0.991602,0.993095,0
29.788782,0.026546,1.542028,0.011153,0.066525,0.99014,0.992435,0
29.815281,0.0265,1.542217,0.01091,0.061427,0.994283,0.996239,0
29.841759,0.026478,1.541746,0.002424,0.050501,0.993796,0.995081,0
29.875248,0.033489,1.541781,0.00097,0.052686,0.99209,0.993488,0
29.901743,0.026495,1.542022,0.017941,0.038847,0.990871,0.991795,0
29.928208,0.026465,1.541842,0.002182,0.068953,0.981124,0.983546,0
29.954983,0.026776,1.541616,0.006061,0.053172,0.994283,0.995722,0
29.988746,0.033762,1.541011,0.008728,0.041518,0.989653,0.990562,0
30.015325,0.026579,1.540631,0.010425,0.071138,0.987703,0.990317,0
30.041884,0.026559,1.540811,0.007273,0.069196,0.989653,0.992096,0
30.075615,0.033731,1.540791,0.023032,0.051715,1.005981,1.007572,0
30.102427,0.026812,1.539677,-0.034804,0.216328,1.035224,1.058158,0
30.129036,0.026609,1.539517,0.03273,0.054143,1.008174,1.010157,0
30.163407,0.034371,1.539092,0.009455,0.054143,0.992334,0.993855,0
30.198681,0.035274,1.539937,0.008728,0.058756,0.992334,0.99411,0
30.230695,0.032014,1.542053,0.000727,0.100516,0.982342,0.987471,0
30.25964,0.028945,1.540838,0.005091,0.048559,0.989897,0.9911,0
30.291045,0.031404,1.540118,0.008001,0.074537,0.995014,0.997834,0
30.318946,0.027901,1.540596,0.013819,0.071138,0.992334,0.994976,0
30.346779,0.027833,1.541195,0.010425,0.073081,0.991115,0.99386,0
30.3783,0.031521,1.541551,0.00897,0.069924,0.992821,0.995321,0
30.406226,0.027926,1.54166,0.007516,0.067982,0.991115,0.993472,0
30.434066,0.02784,1.541344,0.010183,0.055842,0.989165,0.990793,0
30.465434,0.031368,1.542003,0.010668,0.011897,0.991115,0.991244,0
30.493144,0.02771,1.542671,0.008728,0.069439,0.989653,0.992124,0
30.520785,0.027641,1.542704,0.026427,0.095175,0.98088,0.985841,0
30.551875,0.031091,1.541803,0.008243,0.068468,0.994283,0.996672,0
30.579745,0.027869,1.541393,0.010183,0.07915,0.989653,0.992865,0
30.607643,0.027898,1.541265,0.01091,0.073809,0.991602,0.994405,0
30.639143,0.0315,1.540988,0.007758,0.074537,0.993552,0.996374,0
30.66771,0.028567,1.540742,-0.000494,0.044674,0.990384,0.991391,0
30.703336,0.035627,1.540596,0.008001,0.07478,0.992821,0.995665,0
30.73789,0.034553,1.540917,0.022305,0.066768,0.989653,0.992153,0
30.7699,0.032011,1.541909,-0.000741,0.141062,0.991602,1.001586,0
30.797608,0.027708,1.542204,0.007273,0.073809,0.988434,0.991213,0
30.825091,0.027483,1.542414,0.006546,0.072109,0.991359,0.993999,0
30.859656,0.034564,1.547816,0.014789,0.040061,0.941888,0.942856,0
30.894719,0.035063,1.548146,0.006788,0.068225,0.976737,0.97914,0
30.926242,0.031523,1.548162,-0.000987,0.099059,0.988922,0.993871,0
30.954533,0.028291,1.545995,-0.006665,0.085706,0.988434,0.992166,0
30.982608,0.028076,1.541483,0.031276,0.105615,0.992577,0.99867,0
31.014438,0.031829,1.539294,0.003637,0.114598,0.978687,0.98538,0
31.049333,0.034895,1.536861,0.014304,0.115326,0.977468,0.984352,0
31.084228,0.034895,1.537494,0.010668,0.055114,0.988922,0.990514,0
31.11236,0.028132,1.535447,0.008728,0.077208,0.99014,0.993184,0
31.144277,0.031917,1.534449,0.007516,0.03132,0.998182,0.998702,0
31.172425,0.028148,1.535876,0.006788,0.090804,0.98746,0.991649,0
31.207839,0.035414,1.536134,0.00897,0.082549,1.005006,1.00843,0
31.239928,0.032089,1.536639,0.002424,0.022337,0.998913,0.999166,0
31.268138,0.028209,1.542226,0.055278,0.039332,0.986729,0.989058,0
31.307776,0.039639,1.538583,-0.006418,0.066282,0.998182,1.000401,0
31.338626,0.030849,1.543116,0.015517,0.074295,0.987216,0.990129,0
31.371168,0.032542,1.549059,0.016244,0.065068,0.994039,0.996299,0
31.405199,0.034031,1.55213,0.008486,0.15733,0.991602,1.004042,0
31.432184,0.026984,1.555613,0.008728,0.075994,0.991115,0.994063,0
31.467917,0.035733,1.554962,0.006788,0.045402,0.988191,0.989256,0
31.503641,0.035724,1.540305,0.00897,0.118483,0.994527,1.0016,0
31.557708,0.054067,1.531661,0.005091,0.105615,1.014754,1.020248,0
31.589737,0.032029,1.523945,0.003879,0.16777,0.991602,1.005702,0
31.631707,0.04197,1.523344,-0.031101,0.11824,0.993308,1.000804,0
31.66977,0.038062,1.526621,0.057217,0.152717,1.021821,1.034753,0
31.69752,0.027751,1.530945,-0.001234,0.13305,0.990384,0.999282,0
31.729278,0.031758,1.53395,-0.023696,0.229196,0.904846,0.933723,0
31.766142,0.036864,1.534104,-0.012589,0.125281,0.947737,0.956064,0
31.800111,0.033968,1.535307,-0.001481,0.122125,1.03888,1.046034,0
31.839974,0.039864,1.538092,-0.006418,0.159029,0.972594,0.985531,0
31.871551,0.031577,1.541146,-0.006911,0.165827,0.979174,0.993141,0
31.902858,0.031307,1.543376,-0.004196,0.160243,0.981611,0.994613,0
31.939059,0.036201,1.545289,-0.00543,0.161457,0.985754,0.998904,0
31.976479,0.03742,1.547163,-0.005677,0.160971,0.977224,0.99041,0
32.022556,0.046077,1.549685,-0.017278,0.151745,0.990384,1.002091,0
32.070323,0.047767,1.552344,-0.003456,0.153445,0.987947,0.999798,0
32.099902,0.029579,1.555162,-0.002468,0.148832,0.992821,1.003918,0
32.132971,0.033069,1.557582,-0.002715,0.15563,0.998182,1.010246,0
32.170143,0.037172,1.559951,-0.000741,0.198604,0.954804,0.975241,0
32.201074,0.030931,1.559214,-0.000247,0.156116,0.937502,0.950411,0
32.247914,0.04684,1.560398,-0.00938,0.17651,0.99867,1.014192,0
32.278223,0.030309,1.560558,-0.007158,0.125767,0.975031,0.983135,0
32.314575,0.036352,1.561186,-0.001975,0.179424,1.016947,1.032656,0
32.34281,0.028235,1.561976,-0.015797,0.150289,0.986241,0.997751,0
32.374974,0.032164,1.564227,-0.039,0.176025,0.979418,0.995874,0
32.409001,0.034027,1.566463,-0.005184,0.156601,0.984292,0.996685,0
32.441873,0.032872,1.568515,-0.007899,0.159029,0.986241,0.999012,0
32.470536,0.028663,1.570297,-0.006911,0.158544,0.986241,0.998927,0
32.505854,0.035318,1.571812,-0.005677,0.159272,0.98551,0.998313,0
32.542287,0.036433,1.573306,-0.006665,0.159029,0.988678,1.001409,0
32.573291,0.031004,1.574922,-0.006418,0.158786,0.985266,0.998,0
32.607227,0.033937,1.576749,-0.005924,0.158786,0.985997,0.998719,0
32.640718,0.03349,1.578636,-0.006418,0.158786,0.986729,0.999444,0
32.686919,0.046202,1.580713,-0.006418,0.159515,0.985266,0.998116,0
32.741659,0.054739,1.582688,-0.006418,0.157572,0.984535,0.997086,0
32.774753,0.033094,1.584349,-0.007652,0.158301,0.985266,0.997932,0
32.807213,0.03246,1.585586,-0.005924,0.158786,0.98551,0.998238,0
32.834624,0.027411,1.586504,-0.005677,0.157815,0.987216,0.999767,0
32.866513,0.031889,1.587278,-0.006665,0.158786,0.987216,0.999926,0
32.893585,0.027072,1.588211,-0.006418,0.158301,0.985997,0.998645,0
32.927217,0.033633,1.589061,-0.006665,0.158544,0.985754,0.998444,0
32.95366,0.026443,1.589347,-0.007652,0.159272,0.985997,0.998808,0
32.980196,0.026535,1.589292,-0.006911,0.158786,0.986485,0.999206,0
33.006666,0.02647,1.588956,-0.005924,0.158544,0.986972,0.999643,0
33.040278,0.033613,1.588464,-0.006665,0.159272,0.969426,0.982445,0
33.066991,0.026713,1.588173,-0.012835,0.182337,1.001594,1.018137,0
33.09359,0.026599,1.587563,-0.007158,0.158544,0.993552,1.006148,0
33.127103,0.033513,1.586628,-0.007158,0.167041,0.993065,1.007041,0
33.15368,0.026577,1.585868,-0.005184,0.152474,0.971619,0.983524,0
33.180262,0.026582,1.585229,-0.006665,0.161943,0.985754,0.99899,0
33.206964,0.026702,1.584546,-0.00543,0.158786,0.986729,0.999438,0
33.240768,0.033804,1.583765,-0.00543,0.158301,0.988434,1.001045,0
33.26747,0.026702,1.582986,-0.006665,0.159029,0.989653,1.002371,0
33.301022,0.033552,1.582284,-0.005924,0.156358,0.983804,0.99617,0
33.327577,0.026555,1.581657,-0.005677,0.159029,0.986729,0.999478,0
33.354504,0.026927,1.580921,-0.00543,0.159029,0.985754,0.998514,0
33.388322,0.033818,1.580261,-0.005677,0.159029,0.985997,0.998756,0
33.415003,0.026681,1.580211,-0.007899,0.157815,0.988434,1.000985,0
33.441535,0.026532,1.580092,-0.005924,0.158301,0.986972,0.999604,0
33.475271,0.033735,1.579818,-0.005677,0.159515,0.991359,1.004126,0
33.502172,0.026902,1.579304,-0.005184,0.158058,0.989165,1.001727,0
33.528924,0.026751,1.578936,-0.005184,0.156844,0.984048,0.996482,0
33.563442,0.034519,1.579269,-0.005677,0.158544,0.988191,1.000844,0
33.591631,0.028189,1.579991,-0.006171,0.158301,0.985754,0.998403,0
33.625833,0.034201,1.580778,-0.005184,0.158786,0.988922,1.001602,0
33.652436,0.026603,1.581336,-0.00543,0.158301,0.988434,1.001045,0
33.678963,0.026527,1.581618,-0.004443,0.157815,0.986729,0.999279,0
33.713804,0.034841,1.581467,-0.005924,0.158301,0.98746,1.000085,0
33.745457,0.031652,1.581139,-0.005184,0.157572,0.987947,1.000448,0
33.772314,0.026857,1.580695,-0.005924,0.158544,0.988922,1.001568,0
33.805902,0.033588,1.580067,-0.006171,0.158301,0.989409,1.002012,0
33.832393,0.026491,1.579347,-0.00543,0.158058,0.986972,0.999563,0
33.859085,0.026692,1.578597,-0.005184,0.156601,0.989653,1.00198,0
33.895267,0.036182,1.577911,-0.005677,0.158058,0.987703,1.000286,0
33.923514,0.028247,1.577215,-0.005184,0.156844,0.987947,1.000333,0
33.955267,0.031753,1.576603,-0.006665,0.157572,0.985997,0.998531,0
33.983086,0.027819,1.576279,-0.005184,0.158058,0.985754,0.998358,0
34.018434,0.035347,1.576624,-0.00469,0.157087,0.986972,0.999406,0
34.051454,0.03302,1.577487,-0.00469,0.158786,0.987216,0.999915,0
34.089223,0.037769,1.578678,-0.00543,0.158301,0.985266,0.997917,0
34.127003,0.03778,1.579976,-0.006171,0.157087,0.985754,0.998211,0
34.159648,0.032645,1.580977,-0.006171,0.15733,0.985754,0.998249,0
34.19395,0.034301,1.58175,-0.005184,0.158301,0.986972,0.9996,0
34.219109,0.02516,1.582676,-0.00543,0.156844,0.985023,0.997446,0
34.249662,0.030553,1.58357,-0.006171,0.158301,0.98746,1.000087,0
34.276432,0.02677,1.58397,-0.005677,0.15563,0.984292,0.996535,0
34.304701,0.028269,1.583942,-0.006418,0.158301,0.984292,0.99696,0
34.336705,0.032004,1.58358,-0.005184,0.156358,0.985266,0.997609,0
34.364333,0.027628,1.583481,-0.005924,0.158786,0.986485,0.9992,0
34.408047,0.043714,1.583946,-0.005184,0.158301,0.985997,0.998638,0
34.452636,0.04459,1.583702,-0.004937,0.157572,0.982586,0.995152,0
34.497055,0.044419,1.583576,-0.005677,0.156844,0.984292,0.996726,0
34.531326,0.034271,1.583508,-0.005924,0.157815,0.982586,0.995196,0
34.564824,0.033498,1.583702,-0.006171,0.158301,0.985023,0.997681,0
34.592524,0.0277,1.584197,-0.005184,0.156844,0.981611,0.994076,0
34.62679,0.034265,1.585005,-0.00543,0.158301,0.985023,0.997676,0
34.665041,0.038251,1.585754,-0.005677,0.15733,0.983804,0.996321,0
34.699822,0.034782,1.586401,-0.00469,0.158058,0.985266,0.997875,0
34.730293,0.03047,1.586852,-0.006665,0.156601,0.984048,0.996453,0
34.763947,0.033654,1.587126,-0.005184,0.157815,0.984779,0.997358,0
34.790767,0.026821,1.587243,-0.005184,0.15733,0.984779,0.997281,0
34.817644,0.026877,1.586781,-0.004937,0.157815,0.983317,0.995913,0
34.844622,0.026978,1.585886,-0.005677,0.156601,0.983073,0.995484,0
34.879058,0.034436,1.584758,-0.005677,0.157572,0.983073,0.995637,0
34.914662,0.035603,1.583926,-0.006665,0.15733,0.982342,0.994883,0
34.950695,0.036034,1.583612,-0.005184,0.158058,0.983073,0.995712,0
34.988426,0.037731,1.584056,-0.006171,0.156358,0.978443,0.990877,0
35.018792,0.030366,1.584328,-0.006171,0.156844,0.979174,0.991675,0
35.054554,0.035763,1.584288,-0.005677,0.157815,0.982098,0.994714,0
35.090082,0.035528,1.584082,-0.00469,0.15733,0.981367,0.99391,0
35.122208,0.032126,1.58405,-0.004937,0.15733,0.982098,0.994633,0
35.149604,0.027395,1.584158,-0.004937,0.158544,0.983073,0.995788,0
35.183362,0.033758,1.583976,-0.005677,0.157087,0.982098,0.994598,0
35.209918,0.026556,1.583584,-0.00543,0.157815,0.984048,0.996637,0
35.24174,0.031823,1.582969,-0.005184,0.157087,0.97893,0.991467,0
35.268494,0.026753,1.582133,-0.004196,0.15733,0.981124,0.993667,0
35.297352,0.028858,1.581126,-0.004937,0.156358,0.981367,0.993757,0
35.328407,0.031056,1.580208,-0.008146,0.156844,0.982098,0.994577,0
35.355945,0.027537,1.579556,-0.00543,0.156116,0.983317,0.995647,0
35.383504,0.027559,1.579441,-0.004443,0.158301,0.982586,0.995266,0
35.411302,0.027798,1.579724,-0.00543,0.156601,0.982586,0.995002,0
35.447163,0.035861,1.580296,-0.005677,0.158058,0.983804,0.996436,0
35.482107,0.034944,1.580751,-0.006171,0.157087,0.982098,0.994601,0
