timestamp,dt,heading_rad,accel_x,accel_y,accel_z,accel_norm,step_event
0.006443,0.006443,2.266533,0.012365,0.067254,0.991846,0.994201,0
0.150426,0.143984,2.266745,0.013819,0.063369,0.996476,0.998585,0
0.178879,0.028453,2.266824,0.002182,0.062883,0.991115,0.99311,0
0.219218,0.040339,2.266675,0.001455,0.058513,0.989897,0.991626,0
0.25085,0.031632,2.266539,0.00097,0.059727,0.993308,0.995103,0
0.283691,0.032841,2.266507,0.003152,0.061912,0.991359,0.993295,0
0.317971,0.03428,2.266422,0.012607,0.06264,0.991846,0.993902,0
0.354998,0.037026,2.266254,0.008728,0.064097,0.993065,0.995169,0
0.391572,0.036574,2.266145,0.002909,0.063369,0.993065,0.995089,0
0.429585,0.038014,2.266047,0.000727,0.060941,0.993065,0.994933,0
0.465635,0.036049,2.266072,0.001455,0.059727,0.993308,0.995103,0
0.50132,0.035685,2.266168,0.006788,0.060213,0.992577,0.994425,0
0.537409,0.036089,2.26616,0.009698,0.12431,0.993065,1.000862,0
0.570979,0.033571,2.266248,0.007758,0.062398,0.992577,0.994567,0
0.596231,0.025252,2.266825,0.003879,0.123339,0.992577,1.000219,0
0.706921,0.11069,2.26691,0.007273,0.061669,0.993065,0.995004,0
0.752264,0.045343,2.266806,0.008486,0.05997,0.992821,0.994667,0
0.784568,0.032304,2.266972,0.004364,0.060455,0.991602,0.993453,0
0.816899,0.032331,2.267357,0.003637,0.061184,0.994283,0.99617,0
0.847389,0.03049,2.26793,0.003879,0.062883,0.992334,0.994332,0
0.873905,0.026516,2.268711,0.007031,0.06264,0.994283,0.996279,0
0.911628,0.037723,2.269517,0.007758,0.062883,0.994771,0.996786,0
0.950371,0.038744,2.270193,0.006788,0.061427,0.993065,0.994986,0
0.980998,0.030626,2.270528,0.002909,0.059727,0.993308,0.995107,0
1.013816,0.032819,2.270722,0.003152,0.060941,0.992577,0.994451,0
1.049193,0.035377,2.271321,0.006304,0.061669,0.993308,0.995241,0
1.090813,0.04162,2.271765,0.006788,0.063126,0.993796,0.995822,0
1.119266,0.028453,2.272656,0.006304,0.061427,0.995745,0.997658,0
1.15457,0.035304,2.273552,0.003152,0.061912,0.992577,0.994511,0
1.189632,0.035062,2.274527,0.005091,0.060213,0.994283,0.996118,0
1.226222,0.036591,2.275221,0.003637,0.061184,0.993796,0.995684,0
1.261511,0.035288,2.27562,0.006546,0.124067,0.993308,1.001048,0
1.298744,0.037234,2.275866,0.007273,0.061912,0.995258,0.997208,0
1.336448,0.037704,2.276182,0.004849,0.062398,0.993308,0.995278,0
1.372047,0.035599,2.27658,0.002909,0.061427,0.994283,0.996183,0
1.409372,0.037324,2.276912,0.004364,0.061669,0.995014,0.996933,0
1.446435,0.037063,2.277021,0.007516,0.061912,0.994527,0.99648,0
1.488562,0.042127,2.277159,0.006788,0.061427,0.993552,0.995472,0
1.521382,0.03282,2.277347,0.005091,0.060698,0.994283,0.996147,0
1.56055,0.039168,2.277299,0.003152,0.061669,0.993796,0.995712,0
1.589532,0.028982,2.277362,0.004122,0.062155,0.996964,0.998908,0
1.624837,0.035305,2.277548,0.006304,0.06264,0.994283,0.996274,0
1.670864,0.046027,2.277639,0.007516,0.062155,0.995502,0.997468,0
1.708881,0.038017,2.277622,0.004849,0.060698,0.994527,0.996389,0
1.743826,0.034945,2.277805,0.003394,0.061427,0.996233,0.99813,0
1.778384,0.034558,2.278095,0.004122,0.061184,0.994283,0.996172,0
1.80638,0.027996,2.278462,0.005819,0.062398,0.995014,0.996986,0
1.847687,0.041307,2.278446,0.006061,0.062883,0.996233,0.998234,0
1.873576,0.025888,2.278244,0.006788,0.062155,0.995014,0.996977,0
1.913421,0.039845,2.27808,0.005334,0.061669,0.994283,0.996208,0
1.94631,0.032889,2.277656,0.004849,0.060941,0.994527,0.996404,0
1.981725,0.035415,2.27732,0.005819,0.000243,0.995989,0.996006,0
2.020983,0.039257,2.277082,0.005576,0.06264,0.995745,0.997729,0
2.054943,0.03396,2.276987,0.005819,0.062398,0.996476,0.998445,0
2.104091,0.049148,2.276673,0.003152,0.061912,0.995502,0.99743,0
2.161254,0.057164,2.276008,0.004122,0.060941,0.995745,0.997617,0
2.199918,0.038663,2.275619,0.004849,0.062398,0.997207,0.99917,0
2.251627,0.05171,2.275423,0.007758,0.061669,0.99867,1.000602,0
2.286858,0.03523,2.275322,0.003394,0.061669,0.996233,0.998145,0
2.324483,0.037625,2.275092,0.004122,0.000971,0.997939,0.997948,0
2.365547,0.041064,2.274845,0.006304,0.06264,0.995502,0.99749,0
2.407801,0.042254,2.274624,0.007031,0.063126,0.996476,0.998499,0
2.439961,0.032161,2.274364,0.008001,0.061427,0.994527,0.996454,0
2.466502,0.026541,2.273901,0.004364,0.061669,0.935796,0.937836,0
2.498417,0.031915,2.273634,0.003879,0.061184,0.995502,0.997388,0
2.530892,0.032475,2.273511,0.005576,0.06264,0.935796,0.937907,0
2.570675,0.039783,2.273361,0.004122,0.06264,0.997939,0.999911,0
2.615884,0.045208,2.273216,0.006788,0.061669,0.997451,0.999379,0
2.656656,0.040772,2.273064,0.004122,0.062155,0.99672,0.998665,0
2.685646,0.02899,2.272879,0.004364,0.060941,0.996233,0.998104,0
2.721253,0.035607,2.272488,0.003152,0.061912,0.995502,0.99743,0
2.75731,0.036057,2.271967,0.006788,0.061669,0.996233,0.998163,0
2.79392,0.03661,2.271487,0.008486,0.061912,0.997695,0.99965,0
2.827034,0.033115,2.271193,0.005576,0.06264,0.995258,0.997243,0
2.857343,0.030308,2.270946,0.004849,0.061912,0.995989,0.997923,0
2.892803,0.03546,2.27049,0.005091,0.061669,0.996964,0.998882,0
2.926911,0.034108,2.269779,0.006061,0.123824,0.996476,1.004159,0
2.969599,0.042687,2.269051,0.007516,0.12431,0.99672,1.00447,0
3.000704,0.031105,2.268355,0.006061,0.061669,0.99672,0.998644,0
3.033951,0.033247,2.267742,0.004122,0.062155,0.997451,0.999394,0
3.067053,0.033102,2.26726,0.004122,0.12431,0.997451,1.005176,0
3.100627,0.033574,2.266719,0.004849,0.062398,0.99867,1.000629,0
3.134855,0.034228,2.266132,0.006061,0.061427,0.996476,0.998386,0
3.171189,0.036334,2.265669,0.005334,0.062155,0.996964,0.998914,0
3.209189,0.038,2.265241,0.005091,0.060941,0.998182,1.000054,0
3.24707,0.037881,2.264886,0.004122,0.062155,0.996476,0.998422,0
3.284368,0.037298,2.264647,0.004849,0.061912,0.935796,0.937854,0
3.328699,0.044331,2.264627,0.006546,0.123581,0.997939,1.005583,0
3.367259,0.038559,2.26457,0.006546,0.061669,0.997939,0.999864,0
3.402249,0.034991,2.264508,0.004122,0.061912,0.998182,1.000109,0
3.440937,0.038687,2.264584,0.004849,0.061427,0.935796,0.937822,0
3.478997,0.038061,2.264772,0.005819,0.06264,0.998182,1.000163,0
3.512572,0.033574,2.264983,0.005091,0.06264,0.998426,1.000402,0
3.549781,0.037209,2.265123,0.006304,0.000971,0.997451,0.997472,0
3.581784,0.032003,2.264658,0.004122,0.061912,0.998182,1.000109,0
3.613827,0.032043,2.264408,0.002909,0.061427,0.997451,0.999345,0
3.639963,0.026137,2.264465,0.004122,0.062155,0.998426,1.000367,0
3.668471,0.028508,2.26447,0.005819,0.062883,0.997207,0.999205,0
3.705681,0.03721,2.264416,0.006788,0.062398,0.998913,1.000883,0
3.731032,0.025351,2.26452,0.005576,0.000971,0.998182,0.998198,0
3.763884,0.032852,2.264649,0.004364,0.063612,1.059838,1.061754,0
3.79634,0.032456,2.264862,0.004849,0.061184,0.99867,1.000554,0
3.826068,0.029728,2.265204,0.003879,0.000243,0.997451,0.997459,0
3.858259,0.032192,2.265108,0.005576,0.06264,0.99672,0.998702,0
3.887171,0.028912,2.2646,0.007516,0.062155,0.999157,1.001117,0
3.918963,0.031792,2.263986,0.005819,0.06264,0.995745,0.997731,0
3.95431,0.035347,2.263178,0.007273,0.061912,0.999157,1.0011,0
3.992187,0.037877,2.262248,0.003152,0.061912,0.999157,1.001078,0
4.017851,0.025664,2.261123,0.002909,0.000486,0.997207,0.997212,0
4.050846,0.032995,2.259894,0.005091,0.061912,0.997451,0.999384,0
4.086057,0.035211,2.258727,0.007031,0.062155,0.997695,0.999654,0
4.1191,0.033043,2.257757,0.006061,0.061912,0.998426,1.000362,0
4.147016,0.027916,2.257025,0.006546,0.061427,0.995258,0.997173,0
4.18194,0.034924,2.256665,0.006788,0.06264,0.999401,1.001385,0
4.216706,0.034766,2.256465,-0.000987,0.061427,0.936283,0.938297,0
4.247994,0.031288,2.256315,0.006061,0.062155,0.999401,1.00135,0
4.275175,0.027181,2.256066,0.010183,0.000486,0.99209,0.992142,0
4.303631,0.028456,2.255735,0.004606,0.06434,0.999401,1.00148,0
4.336147,0.032517,2.255332,0.008243,0.063369,0.990871,0.99293,0
4.364727,0.028579,2.254719,0.012122,0.060941,0.994771,0.996709,0
4.399318,0.034591,2.254029,-0.001481,0.060941,1.000619,1.002474,0
4.434738,0.035421,2.253434,0.001455,0.061184,0.991115,0.993003,0
4.465487,0.030749,2.252953,0.011637,0.061912,0.992577,0.994574,0
4.492881,0.027395,2.252534,0.006304,0.063854,0.999644,1.001702,0
4.520535,0.027654,2.252151,0.005819,0.065311,0.99672,0.998875,0
4.547709,0.027174,2.251741,0.012365,0.061184,1.05935,1.061188,0
4.579234,0.031525,2.250948,0.004606,0.058756,0.988922,0.990676,0
4.607285,0.028051,2.250072,-0.003209,0.06264,1.004275,1.006232,0
4.641135,0.03385,2.249347,0.014789,0.061184,0.985266,0.987275,0
4.668569,0.027434,2.248469,0.010183,0.064097,1.002081,1.004181,0
4.695844,0.027275,2.247606,-0.000987,0.064826,0.99672,0.998826,0
4.730867,0.035023,2.247015,0.016244,0.060455,0.991602,0.993576,0
4.766398,0.035531,2.246446,-0.001481,0.061184,1.000619,1.002489,0
4.80278,0.036382,2.245809,-0.000987,0.062883,0.994771,0.996757,0
4.826509,0.023729,2.244984,0.014789,0.061669,0.996964,0.998979,0
4.857111,0.030602,2.244059,0.006304,0.064583,0.993796,0.995912,0
4.884492,0.027381,2.24311,-0.0,0.066768,0.989653,0.991903,0
4.91889,0.034398,2.242026,0.009455,0.060455,1.016947,1.018786,0
4.94603,0.02714,2.240567,-0.000247,0.060941,0.991602,0.993473,0
4.972934,0.026905,2.23905,-0.0,0.059727,0.999401,1.001184,0
4.999854,0.02692,2.23691,0.017699,0.060455,0.997695,0.999682,0
5.033787,0.033933,2.235731,-0.000494,0.061184,0.992821,0.994705,0
5.061549,0.027762,2.235124,0.015032,0.060455,0.995989,0.997935,0
5.097938,0.036389,2.234883,0.012122,0.058027,0.998182,0.999941,0
5.12871,0.030772,2.234535,-0.002715,0.061912,0.995258,0.997185,0
5.156338,0.027629,2.234024,0.005334,0.058999,0.999157,1.000912,0
5.188379,0.03204,2.233436,0.004364,0.057056,0.996964,0.998605,0
5.215943,0.027565,2.230044,-0.008886,0.073323,0.995745,0.998481,0
5.251389,0.035445,2.227397,0.017699,0.091533,0.980392,0.984815,0
5.283684,0.032296,2.226073,0.011153,0.081336,0.984779,0.988195,0
5.3143,0.030615,2.221159,0.020123,0.065068,0.980392,0.982755,0
5.347271,0.032971,2.220744,-0.012835,0.093718,0.999401,1.003867,0
5.381981,0.03471,2.219985,0.051156,0.07915,1.033275,1.037564,0
5.418273,0.036293,2.216869,-0.002222,0.078908,0.980392,0.983565,0
5.449979,0.031706,2.213709,0.003637,0.052929,0.9743,0.975743,0
5.4844,0.034421,2.211315,0.000485,0.071381,1.011098,1.013615,0
5.511676,0.027276,2.208862,0.007758,0.083521,0.995258,0.998786,0
5.538921,0.027245,2.206547,0.041216,0.078908,0.994771,0.998746,0
5.577264,0.038343,2.204748,0.00097,0.094204,0.999644,1.004074,0
5.607855,0.030591,2.20681,-0.005924,0.079393,0.984048,0.987263,0
5.635513,0.027659,2.210092,0.009213,0.074052,1.017922,1.020653,0
5.673393,0.03788,2.209304,0.026669,0.003642,1.052283,1.052627,0
5.704818,0.031425,2.208611,0.003394,0.051229,0.988434,0.989767,0
5.739044,0.034227,2.207804,0.030063,0.025493,1.003544,1.004317,0
5.773835,0.034791,2.206671,0.025457,0.036419,0.984535,0.985537,0
5.807819,0.033984,2.205225,0.027154,0.013839,0.999401,0.999865,0
5.834632,0.026813,2.204113,0.029578,0.052686,0.974056,0.975928,0
5.861405,0.026772,2.202803,0.006304,0.023794,1.00793,1.008231,0
5.895461,0.034056,2.201127,0.006304,0.023551,0.980149,0.980452,0
5.92223,0.026769,2.197335,0.035155,0.019666,1.013291,1.014092,0
5.956076,0.033846,2.194827,0.020365,0.020395,0.971863,0.97229,0
5.983025,0.026949,2.190784,0.037822,0.014325,1.013048,1.013855,0
6.016829,0.033805,2.188346,0.041216,0.036662,0.999644,1.001165,0
6.043594,0.026764,2.185375,0.003394,0.033263,0.986972,0.987538,0
6.070361,0.026767,2.184419,0.061096,0.009712,0.992821,0.994746,0
6.104142,0.033781,2.183282,0.044368,0.027193,1.002325,1.003675,0
6.131099,0.026957,2.182618,0.018668,-0.022675,0.993552,0.993986,0
6.164772,0.033673,2.182099,0.032488,0.016267,1.016216,1.016865,0
6.19157,0.026798,2.183443,0.040731,0.012382,0.939451,0.940415,0
6.225321,0.033751,2.183259,0.052853,0.010683,0.96309,0.964598,0
6.252189,0.026868,2.181078,0.021093,-0.019057,1.000619,1.001023,0
6.278884,0.026695,2.177545,0.016729,0.018938,0.999401,0.99972,0
6.313299,0.034415,2.176683,0.047762,0.013354,0.952611,0.953901,0
6.347953,0.034655,2.202868,0.042186,0.108528,0.743275,0.752341,0
6.375,0.027047,2.205205,0.073704,0.566678,1.321568,1.439826,1
6.406683,0.031683,2.208369,0.09116,-0.081776,1.091762,1.098609,0
6.433496,0.026813,2.207177,0.023275,-0.066337,1.087619,1.089889,0
6.467519,0.034024,2.202396,-0.057019,-0.28537,1.092249,1.130352,0
6.494471,0.026952,2.201097,0.077098,-0.048004,0.974056,0.978281,0
6.522491,0.028019,2.19923,0.016729,0.01044,0.997695,0.99789,0
6.556822,0.034331,2.199232,0.012365,0.028407,1.001594,1.002073,0
6.590368,0.033546,2.199337,0.041216,-0.034978,1.019628,1.02106,0
6.617803,0.027435,2.199778,0.076613,0.017724,1.017678,1.020712,0
6.650818,0.033015,2.201521,0.125587,0.088134,0.966989,0.979085,0
6.686448,0.035629,2.202198,0.014547,0.027678,0.961872,0.96238,0
6.712118,0.025671,2.203981,0.053823,0.01044,1.097123,1.098492,0
6.740223,0.028105,2.204365,0.050429,0.013111,1.006468,1.007816,0
6.770958,0.030735,2.199782,0.055278,0.087163,0.959191,0.964728,0
6.802452,0.031494,2.198889,-0.061462,0.0522,0.896073,0.899694,0
6.833318,0.030866,2.21814,0.240264,-0.010614,0.966258,0.995738,0
6.869326,0.036008,2.225008,0.063521,-0.022675,1.088594,1.090681,0
6.896492,0.027166,2.224437,-0.006911,0.040304,0.977712,0.978566,0
6.934456,0.037964,2.208755,0.106191,-0.00193,1.052283,1.057629,0
6.973601,0.039145,2.19112,-0.031348,0.015782,1.02109,1.021693,0
7.001012,0.027411,2.165278,0.017941,-0.017368,1.059838,1.060132,0
7.035552,0.034539,2.148639,0.087281,0.029378,1.100291,1.104138,0
7.072342,0.036791,2.129824,0.11201,0.011168,1.227988,1.233137,1
7.10657,0.034228,2.122188,0.15468,0.061427,1.22482,1.236076,0
7.139943,0.033373,2.1229,0.230324,0.024036,1.125148,1.148732,0
7.173581,0.033638,2.135514,0.17747,0.063612,1.242123,1.256348,0
7.208809,0.035228,2.136715,0.093584,0.089348,1.184123,1.191171,0
7.235752,0.026943,2.13562,0.149104,0.075508,1.157073,1.169081,0
7.274834,0.039083,2.14587,0.175288,0.100759,1.176812,1.194054,0
7.332514,0.05768,2.159761,0.220141,0.094204,1.164384,1.188749,0
7.368797,0.036283,2.169345,0.103524,0.132079,1.016947,1.0307,0
7.406431,0.037635,2.185166,0.104009,0.141791,0.967233,0.983088,0
7.441234,0.034803,2.192481,0.089947,0.104158,0.938964,0.948996,0
7.479678,0.038444,2.179981,0.135527,0.141548,0.985997,1.005283,0
7.53061,0.050932,2.183202,-0.051095,0.141305,0.896804,0.909305,0
7.56737,0.03676,2.183306,0.118071,0.099788,0.918006,0.930931,0
7.60125,0.03388,2.168115,0.367548,0.039575,0.92751,0.998465,0
7.635433,0.034183,2.156844,0.256265,0.083278,0.968451,1.005239,0
7.676564,0.041131,2.135242,0.152498,0.064583,1.131728,1.143781,0
7.708216,0.031652,2.126774,0.03564,0.429743,1.029375,1.116048,0
7.740437,0.032221,2.119317,0.140376,0.167041,0.765452,0.795943,0
7.788354,0.047917,2.104164,0.27857,0.195691,0.980636,1.038048,0
7.820742,0.032388,2.084467,0.287056,0.149803,0.981611,1.033635,0
7.846456,0.025713,2.051039,0.229839,0.108285,0.831006,0.868978,0
7.877848,0.031392,2.009224,0.266933,0.000971,0.899729,0.938491,0
7.914012,0.036164,1.965534,0.01091,0.203703,0.985754,1.00664,0
7.941575,0.027562,1.923504,-0.011848,0.040061,0.771057,0.772188,0
7.987742,0.046168,1.923429,0.1348,0.053414,0.851477,0.863734,0
8.020151,0.032408,1.92018,-0.009627,0.174568,0.846359,0.864228,0
8.052998,0.032847,1.897059,0.060127,0.161457,0.849284,0.866583,0
8.109987,0.05699,1.853123,0.156863,0.083763,1.140257,1.15404,0
8.151244,0.041256,1.840458,0.011637,-0.03546,0.941645,0.942384,0
8.177752,0.026508,1.833817,-0.171304,0.167041,0.83588,0.86945,0
8.213133,0.035381,1.847322,-0.124899,-0.019057,0.918737,0.927384,0
8.243091,0.029958,1.876142,0.056247,-0.04125,0.973569,0.976064,0
8.278457,0.035365,1.895318,0.029578,0.114355,0.957972,0.965227,0
8.305519,0.027062,1.907799,0.1011,0.067982,0.9163,0.924364,0
8.342426,0.036907,1.923208,0.097221,-0.115788,0.919468,0.931816,0
8.375556,0.03313,1.950151,-0.050848,-0.031359,0.864149,0.866212,0
8.41661,0.041054,1.962213,-0.091082,0.151017,0.895586,0.912785,0
8.449236,0.032626,1.960223,0.002909,0.10343,0.923611,0.929389,0
8.480673,0.031436,1.960973,-0.103177,0.07041,0.939695,0.947961,0
8.519743,0.03907,1.959618,-0.020734,0.173839,0.936527,0.95275,0
8.548306,0.028563,1.950743,-0.089848,0.163885,0.989897,1.007386,0
8.579647,0.031342,1.95064,-0.080715,0.024765,0.868536,0.87263,0
8.607918,0.02827,1.958214,-0.129342,0.040061,0.94335,0.953019,0
8.636837,0.028919,1.969773,-0.226348,0.206374,1.053989,1.097596,0
8.671806,0.034968,1.962692,-0.131563,0.141062,1.045216,1.062866,0
8.704153,0.032347,1.960865,-0.203146,-0.046315,0.897779,0.92164,0
8.7402,0.036047,1.961144,-0.136994,0.007041,0.92093,0.931091,0
8.776532,0.036333,1.966238,-0.086392,-0.065372,1.007686,1.013494,0
8.809526,0.032994,1.969798,0.025457,0.02695,1.068854,1.069497,0
8.837761,0.028235,1.966833,0.022063,-0.00796,1.052527,1.052788,0
8.869548,0.031786,1.970945,-0.011354,-0.089495,1.024258,1.028223,0
8.895628,0.02608,1.983742,-0.093057,-0.044627,0.985754,0.991142,0
8.930675,0.035047,1.994424,-0.025424,-0.05114,0.976006,0.977675,0
8.958736,0.028061,2.001769,-0.024684,-0.069714,0.961628,0.964467,0
8.992416,0.03368,2.004029,-0.051589,-0.061271,0.875115,0.878773,0
9.027245,0.034829,2.009713,-0.040234,-0.121578,0.972838,0.981231,0
9.060548,0.033303,2.016081,-0.069114,-0.011096,0.97893,0.98143,0
9.087817,0.027268,2.024247,-0.04443,0.014082,0.999401,1.000487,0
9.123458,0.035641,2.028641,-0.003703,-0.010373,1.022796,1.022855,0
9.150498,0.02704,2.036636,0.006304,0.013354,1.000376,1.000484,0
9.181125,0.030627,2.041964,0.010183,0.039575,0.963334,0.9642,0
9.208227,0.027102,2.047987,0.004364,0.017724,0.968451,0.968623,0
9.235309,0.027082,2.054181,0.038791,0.046616,0.990384,0.992239,0
9.26254,0.027231,2.058388,0.062066,0.007284,0.936771,0.938853,0
9.289502,0.026962,2.065267,0.0337,-0.030636,0.978199,0.979259,0
9.323529,0.034027,2.070805,0.003152,-0.015921,0.97893,0.979065,0
9.350661,0.027132,2.077758,0.008001,-0.011338,0.983561,0.983658,0
9.383408,0.032747,2.082547,0.019396,-0.030394,0.994283,0.994937,0
9.410602,0.027194,2.086683,-0.000494,0.002914,0.983073,0.983077,0
9.437739,0.027137,2.093005,0.000485,-0.006996,0.974787,0.974813,0
9.469668,0.031929,2.098513,0.05455,0.000728,0.947493,0.949063,0
9.496668,0.027001,2.107485,0.015759,0.003885,0.919956,0.920099,0
9.52448,0.027812,2.11499,0.025699,0.020395,0.92093,0.921515,0
9.55862,0.03414,2.11906,-0.032829,0.031077,0.953098,0.95417,0
9.585584,0.026964,2.123294,-0.000987,0.060698,0.99867,1.000513,0
9.619494,0.03391,2.127085,0.064491,0.029378,1.117106,1.119352,0
9.646427,0.026933,2.129846,0.091402,0.070895,1.091762,1.097873,0
9.677468,0.031041,2.127863,0.021335,0.073323,1.071048,1.073767,0
9.704688,0.02722,2.124305,-0.010861,0.034719,1.042779,1.043413,0
9.731598,0.026911,2.119523,0.008728,0.031077,1.019384,1.019895,0
9.758632,0.027034,2.111852,0.003879,0.000486,1.004518,1.004526,0
9.78552,0.026888,2.107406,-0.001975,-0.03353,0.990628,0.991197,0
9.819419,0.033899,2.105652,-0.001481,-0.015197,0.977224,0.977344,0
9.846267,0.026849,2.122687,0.190562,-0.006272,1.155854,1.171474,0
9.879918,0.033651,2.122084,-0.000494,0.12261,1.120274,1.126964,0
9.906672,0.026754,2.106137,-0.18019,0.11654,0.8873,0.912881,0
9.933453,0.02678,2.095695,-0.0975,-0.019298,0.850015,0.855806,0
9.967121,0.033669,2.092417,-0.016538,-0.028706,0.835636,0.836293,0
9.994217,0.027096,2.091799,0.054308,-0.067302,0.904603,0.908727,0
10.028095,0.033878,2.087211,0.007516,0.006555,0.923367,0.923421,0
10.054851,0.026757,2.077212,0.017941,0.055114,1.052283,1.053878,0
10.088532,0.033681,2.069149,-0.010614,0.016995,0.976737,0.976942,0
10.115249,0.026717,2.064637,0.072976,0.001942,0.987216,0.989911,0
10.141873,0.026624,2.066089,0.032003,-0.00796,0.953098,0.953669,0
10.17582,0.033947,2.068577,0.013819,0.02258,0.923367,0.923747,0
10.202603,0.026783,2.069614,0.014062,0.071867,0.951636,0.95445,0
10.229259,0.026657,2.0689,0.024972,0.07041,1.060325,1.062954,0
10.26318,0.03392,2.06554,0.038791,0.072838,1.037174,1.040452,0
10.290047,0.026867,2.061401,0.012365,0.048073,0.937745,0.939058,0
10.323637,0.03359,2.05925,0.04267,0.082307,1.000132,1.00442,0
10.355199,0.031563,2.040699,0.215534,0.264401,1.043754,1.098082,0
10.383424,0.028224,2.025424,-0.04838,0.013596,0.993065,0.994335,0
10.409217,0.025794,2.026891,0.071522,0.09566,1.043754,1.050565,0
10.437478,0.02826,2.041421,0.071279,0.038118,0.964796,0.968176,0
10.470103,0.032625,2.062733,0.095766,0.076237,0.991359,0.998887,0
10.498971,0.028868,2.07484,-0.000494,0.197876,1.051796,1.070247,0
10.533042,0.034072,2.074939,0.023517,0.152474,0.986485,0.998476,0
10.560544,0.027502,2.076631,0.036124,0.069681,0.995258,0.998348,0
10.59088,0.030335,2.061882,0.028124,0.179424,0.921418,0.939146,0
10.617907,0.027028,2.04824,0.048974,0.121639,1.000619,1.009175,0
10.645927,0.02802,2.038325,0.035397,0.069196,0.959191,0.962335,0
10.673751,0.027824,2.026236,-0.016785,0.118726,1.024258,1.031253,0
10.704598,0.030847,2.016408,0.045337,0.038604,1.042291,1.043991,0
10.731414,0.026816,2.002275,0.099403,-0.002895,0.948224,0.953425,0
10.765226,0.033813,1.986306,0.097948,0.02695,0.997451,1.002611,0
10.791988,0.026762,1.981049,0.045822,0.002428,1.008661,1.009704,0
10.818809,0.026821,1.991433,-0.012342,0.166313,1.013291,1.026924,0
10.852556,0.033747,1.991433,-0.038506,0.155873,0.988191,1.001149,0
10.879372,0.026816,1.990285,0.063521,0.066282,1.010123,1.014287,0
10.913037,0.033665,1.992645,0.030306,0.07648,0.959191,0.962712,0
10.939778,0.026741,1.995891,-0.047886,0.098088,0.966258,0.972404,0
10.966537,0.026759,1.996548,-0.000247,0.070895,0.978687,0.981251,0
11.000535,0.033998,1.997338,0.003152,0.067496,0.977468,0.979801,0
11.027312,0.026777,1.997317,0.004849,0.075994,0.948468,0.95152,0
11.061072,0.03376,1.993611,0.026669,0.018452,0.981367,0.981903,0
11.087793,0.026721,1.987984,0.084856,0.04953,1.004518,1.009312,0
11.114529,0.026735,1.979175,0.075158,0.081578,1.020846,1.026855,0
11.148453,0.033925,1.957186,0.072491,0.009712,1.006468,1.009122,0
11.175447,0.026993,1.901332,0.045337,0.037876,1.102728,1.10431,0
11.20974,0.034294,1.855808,0.139406,0.110228,0.995258,1.011001,0
11.236547,0.026807,1.822718,0.259417,0.210258,0.972838,1.028552,0
11.263498,0.02695,1.81058,0.320514,0.243278,0.899729,0.985609,0
11.29024,0.026742,1.822426,0.162681,0.232595,0.856838,0.902628,0
11.324079,0.033839,1.834056,-0.002962,0.263916,0.953098,0.988967,0
11.350712,0.026633,1.838839,-0.127614,0.216571,1.02767,1.057966,0
11.377515,0.026803,1.833118,-0.093057,0.179909,0.907527,0.929856,0
11.411831,0.034316,1.843207,0.016729,0.163399,0.841729,0.857605,0
11.438772,0.026942,1.861748,-0.029867,0.179909,0.962602,0.979726,0
11.472601,0.033829,1.86957,0.002424,0.136692,0.939939,0.949829,0
11.504137,0.031536,1.874601,-0.033076,0.168255,0.98088,0.995756,0
11.530918,0.026781,1.888818,-0.005677,0.172868,0.991359,1.006334,0
11.558142,0.027225,1.90385,-0.070101,0.159272,1.037905,1.052392,0
11.585013,0.026871,1.908446,-0.110582,0.169469,1.097123,1.115629,0
11.612293,0.02728,1.907351,-0.171798,0.073809,1.032787,1.049577,0
11.646254,0.033961,1.904648,0.092614,-0.038355,1.12856,1.133003,0
11.672958,0.026705,1.908835,0.02279,0.044917,1.216778,1.21782,1
11.699801,0.026843,1.924458,0.211655,0.145676,0.993065,1.025766,0
11.733746,0.033945,1.935929,0.159772,0.120182,1.055451,1.07422,0
11.760668,0.026922,1.953033,0.058672,0.008983,1.091031,1.092644,0
11.794538,0.033871,1.956776,0.057217,0.024279,0.94067,0.942721,0
11.821406,0.026868,1.961959,0.136497,0.015539,1.026939,1.036087,0
11.855331,0.033925,1.972283,0.025942,0.00607,1.004031,1.004384,0
11.882281,0.02695,1.976327,-0.061462,-0.069714,0.941401,0.945977,0
11.916015,0.033734,1.981194,0.018426,-0.098661,0.842704,0.84866,0
11.942825,0.02681,1.975555,0.063763,0.052443,0.89583,0.899626,0
11.976879,0.034053,1.972454,0.113465,-0.03546,0.972107,0.979348,0
12.003654,0.026775,1.970786,0.063036,-0.091183,0.970157,0.97647,0
12.03748,0.033826,1.970873,0.081947,-0.034495,0.947981,0.952141,0
12.064228,0.026748,1.973143,0.122435,-0.02557,0.880964,0.889799,0
12.091016,0.026788,1.974237,0.134073,-0.010373,0.885594,0.895746,0
12.124891,0.033875,1.983438,0.179168,-0.013991,0.872191,0.890513,0
12.151768,0.026876,1.992081,0.109586,-0.021952,0.865611,0.872796,0
12.185829,0.034061,1.991475,0.096978,-0.011096,0.857326,0.862864,0
12.212681,0.026852,1.992764,0.133103,-0.016645,0.910451,0.92028,0
12.247013,0.034332,1.994534,0.180622,-0.005548,0.988434,1.004817,0
12.273858,0.026845,1.993296,0.168985,0.008741,0.972594,0.987204,0
12.307802,0.033945,1.992405,0.208988,0.01044,1.006712,1.028228,0
12.334609,0.026806,1.993063,0.182077,0.011654,1.071535,1.086957,0
12.368439,0.03383,1.988411,0.109343,0.028164,1.176325,1.181731,1
12.395903,0.027465,1.976204,0.110555,0.0017,1.228719,1.233684,0
12.42644,0.030537,1.96865,0.053338,0.039818,1.286963,1.288683,0
12.453332,0.026892,1.965355,0.033942,0.099059,1.275753,1.280043,0
12.481488,0.028156,1.965157,-0.001481,0.189621,1.268442,1.282538,0
12.50826,0.026772,1.960366,-0.017772,0.175053,1.075434,1.089733,0
12.535009,0.02675,1.951082,0.002909,0.077451,0.985023,0.988067,0
12.568895,0.033886,1.952147,0.130193,0.067496,0.918981,0.930608,0
12.595797,0.026902,1.971508,0.106434,0.132565,0.953829,0.968861,0
12.62968,0.033883,1.983904,-0.020487,0.102701,0.900704,0.906771,0
12.656379,0.026699,1.995159,-0.034557,0.090076,0.834905,0.840461,0
12.690754,0.034375,2.000551,0.106191,0.077451,0.768132,0.779296,0
12.717378,0.026623,2.015651,0.136739,0.067011,0.768376,0.78332,0
12.751154,0.033776,2.025424,0.070309,0.045888,0.73767,0.742433,0
12.777884,0.026731,2.026046,0.086796,0.01214,0.727435,0.732695,0
12.804539,0.026654,2.023725,0.114434,0.068468,0.863905,0.874137,0
12.838192,0.033653,2.019982,0.19032,0.111199,0.834662,0.863277,0
12.86489,0.026698,2.017055,0.212383,0.087891,0.931653,0.959588,0
12.891651,0.026761,2.014455,0.215777,0.060455,0.892905,0.920595,0
12.9253,0.033648,2.01369,0.218686,0.024765,0.943107,0.968446,0
12.951933,0.026634,2.012689,0.192987,0.062155,1.011342,1.031465,0
12.978702,0.026768,2.01193,0.147892,0.055842,1.155123,1.16589,0
13.012533,0.033831,2.010561,0.062309,0.085949,1.246997,1.251507,1
13.039253,0.02672,1.991544,0.02376,0.163885,1.260888,1.271715,0
13.072918,0.033665,1.968726,0.118071,-0.056447,1.25577,1.262571,0
13.099486,0.026568,1.968238,0.141831,-0.107828,1.357879,1.369517,0
13.126098,0.026611,1.975596,-0.126874,0.161214,1.441223,1.455751,0
13.152671,0.026574,1.959419,-0.138722,0.20953,1.152199,1.179283,0
13.18353,0.030858,1.937216,-0.035791,0.045159,1.055451,1.057023,0
13.210261,0.026731,1.927851,-0.003209,-0.09239,0.959191,0.963635,0
13.237,0.026739,1.920155,-0.00469,0.001942,0.885594,0.885609,0
13.270827,0.033827,1.900761,0.000242,0.027193,0.805418,0.805877,0
13.297614,0.026787,1.880914,0.03564,-0.033289,0.781292,0.782813,0
13.324202,0.026587,1.872559,0.047519,0.011897,0.836611,0.838044,0
13.357791,0.033589,1.8634,0.063278,0.015053,0.826376,0.828932,0
13.384438,0.026647,1.848791,0.059884,0.045645,0.858057,0.861354,0
13.412743,0.028305,1.833433,0.125829,0.045888,0.891443,0.901449,0
13.439891,0.027148,1.825269,0.072976,0.066282,0.938964,0.944125,0
13.473763,0.033872,1.808862,0.093584,0.040304,0.92751,0.93309,0
13.508058,0.034295,1.789624,0.125345,0.094689,0.893149,0.906859,0
13.535381,0.027323,1.781313,0.061096,0.14689,0.904359,0.918245,0
13.569204,0.033823,1.782617,0.123647,0.054143,0.929703,0.939451,0
13.595965,0.026761,1.778453,-0.000741,0.108771,1.012073,1.017902,0
13.622628,0.026664,1.774996,-0.040481,0.179424,1.08372,1.099218,0
13.656291,0.033663,1.773733,0.005091,0.111685,1.058375,1.064264,0
13.682921,0.02663,1.767543,0.018426,0.14956,1.102728,1.112977,0
13.709499,0.026578,1.760083,0.012122,0.048801,1.174863,1.175938,0
13.743163,0.033663,1.754462,-0.14119,0.004127,1.171451,1.179936,0
13.769844,0.026681,1.75111,-0.050848,0.080122,1.201182,1.204924,1
13.796512,0.026668,1.758709,0.064976,0.135235,1.179493,1.188997,0
13.830108,0.033596,1.766157,0.013819,0.192535,1.090787,1.107735,0
13.856774,0.026666,1.77571,-0.056279,0.081093,0.983073,0.988016,0
13.883571,0.026797,1.792295,-0.08343,0.048801,0.912157,0.917264,0
13.917342,0.033771,1.799344,-0.082937,0.147375,0.872435,0.888673,0
13.943922,0.02658,1.802181,0.070794,0.178695,0.852939,0.874328,0
13.970536,0.026614,1.807139,0.15759,0.153202,0.827107,0.85581,0
14.004301,0.033765,1.8135,0.049944,0.049287,0.79299,0.796088,0
14.031102,0.026801,1.825403,0.04558,0.052443,0.849284,0.852121,0
14.06478,0.033678,1.838173,0.097948,0.136935,0.904115,0.919657,0
14.091486,0.026706,1.844116,0.076855,0.155873,0.906065,0.922582,0
14.118251,0.026764,1.840629,0.088008,0.107072,0.883157,0.893967,0
14.151843,0.033592,1.841223,0.15759,0.098817,0.916544,0.935228,0
14.178515,0.026672,1.846204,0.142801,0.08085,0.968695,0.982496,0
14.205137,0.026622,1.849665,0.104737,0.115084,0.998426,1.010479,0
14.238887,0.03375,1.849988,0.094311,0.077208,1.018897,1.026161,0
14.265659,0.026772,1.850024,0.068855,0.100759,1.069829,1.076767,0
14.292288,0.026629,1.842892,-0.017772,0.08959,1.182417,1.185939,1
14.325995,0.033707,1.829936,-0.018513,0.132565,1.117106,1.125097,0
14.352567,0.026572,1.821514,0.125102,0.102701,1.215073,1.225806,0
14.379222,0.026656,1.830585,0.01285,0.042489,1.271123,1.271898,0
14.412998,0.033776,1.832929,-0.167108,0.152231,1.169501,1.191147,0
14.44055,0.027552,1.823767,-0.108114,0.069924,1.106627,1.114093,0
14.474356,0.033806,1.822442,-0.045171,0.020152,1.012317,1.013524,0
14.50123,0.026875,1.828055,-0.029867,0.041275,0.993308,0.994614,0
14.534843,0.033613,1.833913,-0.043196,0.072109,0.929216,0.93301,0
14.562515,0.027672,1.842583,-0.070101,0.109014,0.939208,0.948108,0
14.596208,0.033693,1.847055,-0.056525,0.129408,0.894124,0.905207,0
14.622998,0.02679,1.855887,-0.035544,0.06434,0.918493,0.92143,0
14.656697,0.033699,1.867832,0.027639,0.078179,0.914594,0.918346,0
14.683516,0.026819,1.880528,0.031276,0.066768,0.930678,0.933594,0
14.710289,0.026773,1.890859,-0.008886,0.033748,0.939695,0.940343,0
14.744143,0.033854,1.902122,-0.017525,0.029621,0.942132,0.94276,0
14.770893,0.026751,1.924047,0.000242,0.064583,0.962602,0.964767,0
14.804727,0.033834,1.935054,-0.040481,0.099545,0.955048,0.961075,0
14.831452,0.026724,1.934532,-0.097747,0.090804,0.904603,0.914388,0
14.866056,0.034604,1.934972,0.000485,0.077208,0.90314,0.906435,0
14.892794,0.026738,1.933892,0.058914,0.103672,0.936527,0.944088,0
14.926805,0.034011,1.925448,-0.025671,0.14689,0.999157,1.010223,0
14.953483,0.026678,1.908023,-0.000741,0.184765,1.110283,1.125552,0
14.987439,0.033956,1.896975,0.101585,0.072595,1.038636,1.046114,0
15.014208,0.026769,1.897465,0.05455,-0.003618,1.079821,1.081204,0
15.048213,0.034005,1.90541,-0.028139,0.126495,1.076165,1.083939,0
15.074968,0.026755,1.916135,0.002424,0.252019,1.060325,1.089866,0
15.108987,0.034019,1.92672,0.001212,0.138149,0.969182,0.97898,0
15.135678,0.02669,1.941906,-0.007158,0.062155,0.96967,0.971686,0
15.162537,0.026859,1.956773,-0.044924,0.039575,0.873653,0.875702,0
15.19624,0.033704,1.962756,-0.089355,0.089105,0.92751,0.936055,0
15.223016,0.026775,1.966723,-0.043196,0.122853,0.913132,0.922371,0
15.256808,0.033792,1.973184,0.04267,0.188407,0.972107,0.991115,0
15.283569,0.026762,1.978028,-0.003209,0.145676,0.890956,0.902792,0
15.310346,0.026776,1.977997,-0.103177,0.077694,0.818334,0.828464,0
15.344126,0.03378,1.979684,-0.050354,0.038118,0.88925,0.89149,0
15.37081,0.026684,1.986508,0.009698,0.128923,0.973325,0.981874,0
15.39746,0.02665,1.992375,-0.02888,0.150046,0.999644,1.011255,0
15.432084,0.034624,1.992234,-0.112063,0.142034,0.999157,1.015405,0
15.466065,0.033981,1.989629,-0.060722,0.185251,1.012073,1.030678,0
15.49354,0.027475,1.987923,-0.008886,0.168984,1.013291,1.027324,0
15.523862,0.030322,1.990804,-0.010861,0.143733,1.043754,1.05366,0
15.55085,0.026989,1.993732,0.011637,0.163642,1.067148,1.079685,0
15.578392,0.027542,1.993271,-0.058006,0.187193,1.054964,1.073012,0
15.605272,0.02688,1.990709,-0.073063,0.175539,1.033518,1.050863,0
15.632149,0.026877,1.990339,-0.018513,0.176753,1.017434,1.032839,0
15.665913,0.033763,1.99116,0.014304,0.18695,0.999644,1.017076,0
15.693442,0.027529,1.991046,-0.005924,0.190835,0.948468,0.967494,0
15.725224,0.031782,1.991071,-0.001234,0.161943,0.948956,0.962675,0
15.753954,0.02873,1.990929,0.000485,0.195934,0.950661,0.970643,0
15.785878,0.031924,1.990353,-0.0,0.218513,0.979174,1.00326,0
15.816729,0.030852,1.987693,-0.000987,0.235752,0.955292,0.983952,0
15.841054,0.024324,1.981794,-0.021475,0.183794,0.910695,0.929305,0
15.872864,0.03181,1.976661,0.002424,0.196176,0.905334,0.926348,0
15.901251,0.028387,1.969202,0.040731,0.206616,0.890468,0.915032,0
15.936556,0.035305,1.959765,0.008486,0.192292,0.890468,0.911033,0
15.968194,0.031638,1.952275,0.020608,0.208802,0.94335,0.966402,0
15.996847,0.028652,1.93973,-0.000247,0.168498,0.979418,0.993806,0
16.032242,0.035396,1.921968,0.056005,0.177724,1.072266,1.088337,0
16.063954,0.031711,1.917745,0.027396,-0.065131,1.159753,1.161904,0
16.091997,0.028043,1.920065,-0.143165,-0.012061,1.14635,1.155318,0
16.119908,0.027911,1.916703,-0.240665,0.263916,1.21556,1.266948,1
16.151665,0.031757,1.902486,-0.064918,0.20953,1.108333,1.129832,0
16.179495,0.02783,1.89232,-0.027892,0.081336,1.043754,1.047289,0
16.207436,0.027941,1.891828,-0.106633,0.09736,1.077871,1.0875,0
16.239333,0.031897,1.890812,-0.061956,0.228468,1.096879,1.122132,0
16.267359,0.028026,1.88313,0.018426,0.125038,1.046678,1.054281,0
16.298886,0.031527,1.883364,-0.022956,0.054386,0.960897,0.962708,0
16.326835,0.027949,1.895241,0.06934,0.005099,0.937258,0.939833,0
16.35485,0.028015,1.917494,0.108131,0.143005,0.94993,0.966701,0
16.386454,0.031604,1.936451,0.030063,0.159029,0.895342,0.909853,0
16.414516,0.028062,1.94504,-0.115519,0.07648,0.803469,0.815325,0
16.449877,0.035361,1.965738,-0.0195,-0.000724,0.910208,0.910417,0
16.488407,0.03853,1.990467,-0.040234,0.024036,0.95188,0.953033,0
16.517183,0.028775,1.995893,-0.125886,0.132079,0.941401,0.95892,0
16.546062,0.028879,2.002088,-0.100956,0.028407,0.896073,0.90219,0
16.580955,0.034893,2.029729,0.090675,-0.02557,0.895342,0.900285,0
16.612762,0.031807,2.052113,0.078552,0.231381,0.925804,0.957508,0
16.642333,0.029571,2.072622,-0.003703,0.121882,0.92946,0.937424,0
16.67383,0.031496,2.090475,-0.024437,0.06604,0.917762,0.92046,0
16.702342,0.028512,2.108858,-0.0,0.090319,0.983317,0.987456,0
16.734163,0.031821,2.117138,-0.033076,0.136207,0.99209,1.001942,0
16.762135,0.027972,2.122912,0.000485,0.063126,0.970888,0.972938,0
16.790068,0.027933,2.127429,0.041458,-0.000482,0.987947,0.988817,0
16.821115,0.031047,2.126562,-0.062449,-0.060548,1.029619,1.033287,0
16.848022,0.026907,2.111296,-0.16069,0.081821,1.092737,1.107515,0
16.882042,0.03402,2.098129,-0.01876,0.182823,1.173644,1.187946,1
16.90918,0.027138,2.098801,0.052126,0.111442,1.233837,1.239956,0
16.943129,0.033949,2.104,-0.074544,0.161457,1.175594,1.188968,0
16.97104,0.027911,2.10076,-0.118728,0.146647,1.013291,1.030709,0
17.00674,0.035701,2.095392,-0.013576,0.111442,0.840754,0.848216,0
17.041548,0.034808,2.097762,0.056005,0.002428,0.922636,0.924338,0
17.075659,0.034111,2.096594,0.011637,0.054628,0.906552,0.908271,0
17.102463,0.026803,2.105577,0.089947,0.139606,1.046191,1.05929,0
17.136288,0.033825,2.116381,0.079765,0.161943,0.977224,0.993758,0
17.163073,0.026785,2.122435,0.031276,0.187679,0.962602,0.981226,0
17.189746,0.026674,2.134201,-0.034063,0.072838,0.933115,0.936573,0
17.223522,0.033776,2.14183,-0.086146,0.02695,0.919712,0.924131,0
17.250694,0.027172,2.138983,-0.099228,0.070167,0.950174,0.957915,0
17.284601,0.033907,2.130938,-0.046899,0.173597,0.939939,0.956985,0
17.311354,0.026753,2.127665,-0.002468,0.150289,0.922149,0.934319,0
17.345213,0.033859,2.124035,-0.023203,0.147861,0.866099,0.878936,0
17.371959,0.026746,2.122188,-0.047146,0.155387,0.854888,0.870174,0
17.398662,0.026703,2.122335,-0.055044,0.137421,0.857326,0.870012,0
17.432511,0.03385,2.119267,-0.032582,0.1078,0.87341,0.88064,0
17.461898,0.029387,2.114315,-0.02493,0.054871,0.892905,0.894937,0
17.491195,0.029297,2.110118,-0.027646,0.054628,0.996964,0.998842,0
17.51783,0.026636,2.104541,0.034912,-0.038114,1.113207,1.114406,0
17.551531,0.0337,2.117718,0.094796,-0.008202,1.247728,1.251351,1
17.578915,0.027385,2.124123,-0.270285,0.078908,1.136358,1.170722,0
17.612563,0.033648,2.0956,-0.216228,-0.159933,0.959435,0.996417,0
17.639188,0.026625,2.089894,0.218929,-0.244603,1.207031,1.250873,0
17.665796,0.026608,2.098271,0.061339,0.044188,1.205812,1.208179,0
17.699345,0.033549,2.085599,-0.161924,0.081336,1.071779,1.086989,0
17.725944,0.0266,2.059455,-0.123665,-0.03932,0.826376,0.836502,0
17.752552,0.026607,2.046131,0.13286,-0.058135,0.906552,0.918079,0
17.779431,0.02688,2.042157,0.14377,0.063612,0.943838,0.956842,0
17.806109,0.026678,2.033903,-0.013329,0.079636,0.909964,0.913539,0
17.832713,0.026604,2.024632,-0.042209,-0.060306,0.872435,0.875535,0
17.859327,0.026614,2.027511,0.005819,-0.121337,0.970888,0.978458,0
17.89304,0.033712,2.029948,0.036124,0.0539,0.980149,0.982294,0
17.91962,0.026581,2.025773,-0.031348,0.0539,0.977224,0.979212,0
17.946192,0.026571,2.022437,-0.049614,-0.034495,1.036443,1.038203,0
17.972748,0.026556,2.020703,-0.075038,0.017481,1.013779,1.016702,0
18.006512,0.033764,2.018501,0.142558,0.016753,0.996964,1.007244,0
18.033267,0.026755,2.021148,0.11007,0.0539,1.087132,1.094018,0
18.059835,0.026569,2.02942,-0.057513,0.072352,1.058863,1.062889,0
18.093462,0.033627,2.026613,-0.119715,0.082549,0.930435,0.94173,0
18.120017,0.026555,2.024285,-0.016538,0.081093,0.962602,0.966154,0
18.146589,0.026572,2.020759,0.039276,0.065311,0.92483,0.927964,0
18.180196,0.033607,2.011652,-0.046652,0.036904,0.935065,0.936955,0
18.206742,0.026546,1.996482,-0.107867,-0.000965,0.93409,0.940298,0
18.233435,0.026693,1.98993,-0.027399,-0.024605,0.952124,0.952835,0
18.267423,0.033988,1.991078,0.016729,0.008498,0.975518,0.975699,0
18.294099,0.026676,1.991049,0.032973,0.082792,0.978443,0.982493,0
18.320631,0.026532,1.987772,-0.006171,0.028164,0.957729,0.958163,0
18.354241,0.03361,1.987315,-0.041222,0.007769,0.942132,0.943065,0
18.380799,0.026558,1.985751,-0.042209,0.005584,0.906065,0.907065,0
18.407322,0.026523,1.982713,0.023275,0.052443,0.98746,0.989125,0
18.433989,0.026666,1.971385,0.089947,0.106829,0.967233,0.977263,0
18.467559,0.033571,1.960863,0.092372,0.013596,1.018165,1.022437,0
18.49626,0.028701,1.95378,0.001455,-0.057171,1.08372,1.085228,0
18.526429,0.030169,1.949353,-0.10762,-0.00989,1.129291,1.134451,0
18.553107,0.026678,1.944063,-0.061956,-0.036908,1.11735,1.119675,0
18.580774,0.027667,1.942361,0.020608,-0.003136,1.090056,1.090255,0
18.607411,0.026637,1.945237,-0.040481,0.063612,1.018897,1.021683,0
18.634119,0.026708,1.943091,-0.121443,0.063369,0.947006,0.956862,0
18.667723,0.033604,1.936163,-0.091082,0.044431,0.89851,0.904207,0
18.69451,0.026788,1.930595,0.001455,0.000486,0.83588,0.835882,0
18.721183,0.026672,1.933687,0.073704,-0.044386,0.850258,0.8546,0
18.754895,0.033713,1.934651,0.030306,0.000486,0.864636,0.865168,0
18.781582,0.026687,1.939154,0.016001,-0.031601,0.90046,0.901156,0
18.815287,0.033705,1.944198,-0.037025,-0.00796,0.928729,0.9295,0
18.842302,0.027015,1.948967,-0.036285,0.017967,0.988678,0.989507,0
18.86897,0.026667,1.960501,-0.028139,0.04176,0.971376,0.97268,0
18.902767,0.033798,1.966972,-0.108855,0.089105,1.015972,1.025665,0
18.929433,0.026666,1.972675,-0.15057,0.152717,0.937258,0.961481,0
18.956075,0.026642,1.979257,0.073461,0.017481,0.947737,0.950741,0
18.989869,0.033795,1.990728,0.141831,-0.068508,1.046678,1.058463,0
19.016576,0.026706,2.015958,0.001212,0.029863,1.164627,1.165011,0
19.050378,0.033802,2.021493,-0.381855,-0.035219,1.081039,1.147039,0
19.077065,0.026688,2.024359,-0.065411,-0.098661,1.148787,1.15487,0
19.10372,0.026655,2.053341,0.186926,-0.124231,1.380543,1.398668,1
19.137414,0.033693,2.072546,-0.050108,0.135235,1.301829,1.309793,0
19.164086,0.026673,2.078264,-0.223139,0.094689,1.125636,1.15144,0
19.190713,0.026627,2.088979,-0.049861,0.020395,1.179005,1.180235,0
19.224501,0.033788,2.094485,0.070552,0.18258,1.096392,1.113727,0
19.251297,0.026796,2.092789,-0.064424,0.186222,0.984292,1.003822,0
19.278188,0.02689,2.100024,-0.092317,0.008255,0.917031,0.921703,0
19.309312,0.031124,2.104272,-0.123911,0.177481,0.87146,0.89794,0
19.336137,0.026825,2.097281,-0.032089,0.226525,0.670654,0.708604,0
19.362889,0.026752,2.098464,0.101585,0.160486,0.820284,0.841986,0
19.396556,0.033667,2.091725,-0.021475,0.168984,0.864636,0.881256,0
19.423288,0.026731,2.076265,-0.010614,0.211715,0.828082,0.854784,0
19.45712,0.033833,2.063501,0.011395,0.106586,0.853426,0.860132,0
19.484161,0.027041,2.053129,-0.007899,0.094932,0.876334,0.881496,0
19.511322,0.027162,2.042988,-0.013576,0.158786,0.902897,0.916853,0
19.538042,0.026719,2.030088,0.043883,0.109014,0.901922,0.909546,0
19.564706,0.026664,2.013244,0.002909,0.038604,0.888762,0.889605,0
19.59125,0.026544,1.995663,-0.002962,0.034719,0.88072,0.881409,0
19.624856,0.033606,1.989141,0.037822,0.038604,0.93604,0.937598,0
19.651417,0.026561,1.982429,0.104979,0.154416,0.972838,0.990595,0
19.678001,0.026584,1.972429,0.050914,0.144462,0.926048,0.93863,0
19.711942,0.033941,1.968894,-0.099968,-0.026535,0.86683,0.872979,0
19.738706,0.026764,1.961616,-0.070842,-0.107587,0.904359,0.913487,0
19.772463,0.033757,1.955147,-0.000247,0.005099,0.995502,0.995515,0
19.799235,0.026772,1.952171,-0.019994,-0.023399,1.085913,1.086349,0
19.825846,0.026611,1.94298,-0.100709,0.016995,1.088107,1.092889,0
19.859444,0.033598,1.930618,-0.148348,0.107072,1.103459,1.118523,0
19.886208,0.026764,1.915334,-0.070348,-0.004583,1.116375,1.118599,0
19.912866,0.026659,1.898945,0.058672,-0.140393,1.183879,1.193618,1
19.946551,0.033684,1.89369,0.052126,-0.060548,1.119787,1.122634,0
19.973088,0.026537,1.899417,-0.013329,0.137178,1.136846,1.14517,0
19.999929,0.026841,1.891477,-0.12712,0.286738,1.030838,1.077499,0
20.033762,0.033832,1.876781,-0.020981,0.200061,1.032544,1.051956,0
20.060472,0.02671,1.867668,0.045822,0.134507,1.030594,1.040344,0
20.087434,0.026962,1.861572,0.052611,0.210744,0.959922,0.98419,0
20.121276,0.033843,1.862709,0.037579,0.158058,0.965771,0.97934,0
20.147917,0.026641,1.866874,-0.093551,0.081093,0.917762,0.926075,0
20.181577,0.03366,1.872908,-0.13576,0.10173,0.942132,0.957284,0
20.208318,0.026742,1.879625,-0.116506,0.123339,0.873897,0.890215,0
20.234947,0.026629,1.887219,-0.079728,0.070653,0.89388,0.900205,0
20.26875,0.033803,1.896562,-0.078247,0.078908,0.90972,0.916482,0
20.295443,0.026693,1.904619,-0.145386,0.000728,0.884376,0.896247,0
20.322027,0.026584,1.913934,-0.149336,0.115569,0.914107,0.933407,0
20.355584,0.033558,1.920067,-0.08738,0.16607,0.918737,0.937706,0
20.382191,0.026607,1.925283,-0.060475,0.066768,0.901678,0.906167,0
20.409047,0.026856,1.935966,-0.057266,0.017967,0.877796,0.879845,0
20.442621,0.033574,1.951877,-0.091082,0.094932,0.904359,0.913878,0
20.469219,0.026599,1.972198,-0.095525,0.131108,0.908989,0.92335,0
20.495935,0.026716,1.98603,-0.060475,0.131108,0.898023,0.909556,0
20.526798,0.030863,1.993469,-0.030361,0.08692,0.930191,0.934736,0
20.55346,0.026663,2.007001,0.054065,0.119454,1.034006,1.042286,0
20.580176,0.026716,2.029247,0.090432,0.147861,1.153905,1.166849,0
20.606734,0.026558,2.053263,-0.023449,0.198119,1.197283,1.21379,1
20.64035,0.033616,2.069499,-0.04912,0.249348,1.160728,1.188224,0
20.666961,0.026611,2.088662,0.041701,0.256146,1.159022,1.187721,0
20.693785,0.026824,2.102216,-0.010614,0.236723,1.009149,1.036596,0
20.727364,0.033579,2.099963,-0.050848,0.233081,0.941888,0.971631,0
20.754045,0.026682,2.095012,0.040488,0.072838,0.904603,0.908433,0
20.780551,0.026505,2.101012,0.137952,0.132565,0.972107,0.990755,0
20.814107,0.033556,2.106456,0.093342,0.259545,1.004518,1.041697,0
20.840647,0.02654,2.099839,-0.00469,0.211715,0.858544,0.884275,0
20.867157,0.026509,2.094632,0.065218,0.238422,0.903872,0.937061,0
20.893832,0.026675,2.100541,0.135042,0.167527,0.957241,0.981128,0
20.927514,0.033681,2.103256,0.041943,0.226768,0.96309,0.990316,0
20.954212,0.026698,2.098982,-0.026411,0.187921,0.957485,0.976109,0
20.980886,0.026674,2.095253,0.000242,0.152231,0.995258,1.006833,0
21.014594,0.033708,2.094503,-0.004196,0.175296,1.013535,1.028591,0
21.041207,0.026613,2.090871,-0.039987,0.146161,0.957972,0.969883,0
21.067786,0.02658,2.087954,-0.015797,0.158058,1.001107,1.01363,0
21.101381,0.033594,2.082108,0.018668,0.155873,0.942619,0.955603,0
21.127906,0.026526,2.073544,0.054308,0.152959,0.923855,0.938005,0
21.154507,0.026601,2.066797,0.061339,0.08959,0.912157,0.918597,0
21.181381,0.026874,2.059602,-0.015551,0.123096,0.901922,0.910416,0
21.215011,0.03363,2.05097,-0.055044,0.116783,0.921174,0.930177,0
21.241604,0.026593,2.036377,-0.064671,0.120668,0.908014,0.918277,0
21.268391,0.026787,2.022094,-0.024437,0.04953,0.972594,0.974161,0
21.295195,0.026804,2.01086,-0.138475,-0.001689,1.044972,1.054109,0
21.321857,0.026663,2.002609,-0.166861,-0.007237,1.073972,1.086881,0
21.34847,0.026613,1.992631,-0.125146,-0.038837,1.05277,1.060894,0
21.382193,0.033723,1.991879,-0.089848,-0.061271,1.054476,1.060069,0
21.408743,0.02655,2.001414,-0.112557,0.008012,1.179736,1.185121,1
21.43556,0.026817,2.010871,-0.212032,0.070653,1.107846,1.130165,0
21.469154,0.033594,2.008733,-0.176734,0.066282,0.992334,1.010126,0
21.495932,0.026778,2.003979,-0.122677,0.035205,0.959678,0.968128,0
21.522648,0.026716,2.000731,-0.10219,-0.041491,0.825889,0.83322,0
21.553751,0.031103,1.995328,-0.093304,-0.001206,0.850989,0.85609,0
21.58142,0.027668,1.983717,-0.063437,0.054871,0.859519,0.863602,0
21.617014,0.035594,1.97978,-0.034063,0.001942,0.838317,0.839011,0
21.645505,0.028492,1.977163,-0.011601,-0.005789,0.838073,0.838174,0
21.677402,0.031897,1.976121,-0.006911,0.009954,0.859031,0.859117,0
21.705914,0.028512,1.983679,-0.058994,-0.040285,0.942619,0.945322,0
21.737419,0.031506,1.982297,-0.125146,-0.034495,0.969426,0.978079,0
21.765461,0.028042,1.980164,-0.212032,0.04783,1.036686,1.059228,0
21.800683,0.035222,1.986246,-0.119222,-0.033772,0.937989,0.946138,0
21.835787,0.035104,1.995525,0.013335,-0.014956,1.072754,1.072941,0
21.867479,0.031692,2.000525,0.034185,0.047102,1.084695,1.086255,0
21.895495,0.028016,2.001947,0.006304,-0.034737,1.063006,1.063592,0
21.923722,0.028227,2.000677,-0.024684,-0.012303,1.069829,1.070185,0
21.955465,0.031744,1.995104,0.032973,-0.047522,1.086401,1.087939,0
21.991649,0.036184,1.99196,0.106676,0.034719,1.173888,1.179236,0
22.026829,0.03518,1.983889,-0.011354,0.087405,1.095174,1.098715,0
22.058697,0.031868,1.972877,-0.07257,0.020637,0.999401,1.002245,0
22.086472,0.027774,1.964608,0.013819,0.023551,0.945544,0.945938,0
22.114358,0.027886,1.955182,0.026669,0.095903,0.943594,0.94883,0
22.145842,0.031485,1.950104,0.031518,0.099788,0.993308,0.998806,0
22.174122,0.028279,1.952647,-0.042949,0.023794,0.952367,0.953632,0
22.202165,0.028043,1.953378,-0.099228,-0.060789,0.963821,0.970821,0
22.23375,0.031586,1.947209,-0.062696,0.13038,0.981124,0.991732,0
22.269145,0.035394,1.943671,0.056975,0.148346,0.967964,0.980921,0
22.297574,0.028429,1.939088,0.122678,0.110471,0.833687,0.849875,0
22.329359,0.031785,1.93735,0.139649,0.099302,0.798838,0.81701,0
22.357408,0.028049,1.940423,0.050429,0.054628,0.810292,0.813696,0
22.392577,0.03517,1.93411,-0.127367,-0.00193,0.790065,0.800268,0
22.424181,0.031604,1.920917,-0.069114,-0.018092,0.810536,0.813678,0
22.452362,0.02818,1.911325,0.098918,0.050744,0.966014,0.97239,0
22.480664,0.028303,1.910434,0.093584,0.061912,0.939695,0.946371,0
22.512424,0.03176,1.913929,-0.112063,0.095903,1.100779,1.110617,0
22.548574,0.036151,1.902461,-0.04838,0.29645,1.135627,1.17468,0
22.584062,0.035487,1.893206,0.075158,0.111442,1.152686,1.160497,0
22.615933,0.031871,1.906634,-0.00938,0.054871,1.237736,1.238987,1
22.64497,0.029037,1.910506,-0.177722,0.186222,1.170476,1.198448,0
22.679829,0.034859,1.907715,-0.043443,0.192049,1.070073,1.088038,0
22.714308,0.034479,1.90514,0.008728,0.086191,0.884132,0.888366,0
22.748119,0.033811,1.899257,0.050186,0.144219,0.913132,0.925812,0
22.774802,0.026683,1.887029,0.00097,0.045645,0.84904,0.850266,0
22.801528,0.026726,1.881124,0.033458,0.003642,0.93409,0.934696,0
22.835259,0.033731,1.88501,-0.007405,-0.048486,0.908502,0.909825,0
22.86195,0.026691,1.890094,0.04267,0.09566,0.896317,0.902417,0
22.888718,0.026768,1.902146,0.060854,0.10173,0.814435,0.823017,0
22.922411,0.033693,1.914701,0.003152,0.038361,0.832712,0.833601,0
22.949095,0.026685,1.930212,0.130678,0.111927,0.915569,0.931596,0
22.975796,0.0267,1.93997,-0.009873,0.140334,0.892662,0.903679,0
23.009688,0.033893,1.939311,-0.000494,0.020395,0.817603,0.817857,0
23.036442,0.026753,1.944582,0.116616,-0.029188,0.963577,0.971047,0
23.070208,0.033767,1.955003,0.117344,-0.050416,1.062031,1.069683,0
23.097043,0.026835,1.960629,0.073704,0.10173,1.143913,1.15079,0
23.123706,0.026662,1.953577,0.071037,0.137178,1.105165,1.11591,0
23.157587,0.033881,1.952242,0.104737,-0.091907,1.047896,1.05712,0
23.184253,0.026666,1.971354,0.156378,-0.09046,1.221165,1.234456,1
23.218626,0.034373,1.990955,0.046065,0.063126,1.237736,1.240201,0
23.245381,0.026755,1.990782,-0.154766,0.115326,1.045947,1.063606,0
23.279141,0.03376,1.987174,-0.007652,0.070653,0.969182,0.971784,0
23.305904,0.026763,1.992639,0.11104,-0.028947,0.988922,0.995557,0
23.339755,0.033851,1.989109,-0.110829,0.066282,0.914351,0.923425,0
23.366473,0.026718,1.973431,-0.096266,0.030106,0.838561,0.844605,0
23.393163,0.02669,1.964596,0.077098,-0.000965,0.92483,0.928038,0
23.426821,0.033659,1.961674,0.033215,0.21123,1.021333,1.043476,0
23.4536,0.026779,1.951462,-0.020487,0.231624,0.906796,0.936135,0
23.48045,0.02685,1.930992,0.017699,0.148832,0.903384,0.915733,0
23.514289,0.033839,1.921848,0.141831,0.193506,0.840267,0.873847,0
23.540948,0.026659,1.913736,0.098433,0.051472,0.896073,0.902932,0
23.57278,0.031832,1.894463,-0.035297,-0.041973,0.811023,0.812875,0
23.599558,0.026778,1.870441,0.055278,-0.048245,0.963577,0.966367,0
23.633314,0.033756,1.857573,0.047519,0.112899,0.992577,1.000107,0
23.660096,0.026782,1.845624,0.078552,0.030349,1.026939,1.030386,0
23.686802,0.026707,1.827622,0.008486,0.034477,1.087863,1.088442,0
23.720514,0.033712,1.810117,-0.062449,0.113141,1.044485,1.052449,0
23.747233,0.026719,1.801062,-0.007405,0.005341,1.059106,1.059146,0
23.773969,0.026736,1.786976,0.104737,0.09129,1.022796,1.032189,0
23.808643,0.034673,1.7858,0.140861,-0.040043,1.091031,1.100815,0
23.835392,0.02675,1.790553,0.051156,-0.02943,1.087619,1.089219,0
23.862123,0.026731,1.791965,-0.023943,0.034477,1.041317,1.042162,0
23.888887,0.026764,1.797079,0.063036,0.053657,1.007686,1.011081,0
23.922637,0.03375,1.807229,0.071764,0.000243,0.951392,0.954095,0
23.949322,0.026685,1.812852,-0.008639,0.023794,0.890956,0.891315,0
23.976089,0.026767,1.813504,0.012122,-0.053552,0.947006,0.948596,0
24.010108,0.034019,1.826531,0.104979,-0.129297,0.909233,0.924361,0
24.036941,0.026833,1.854135,0.052368,-0.081534,0.97625,0.981047,0
24.070742,0.033801,1.872019,-0.079234,0.062155,0.963821,0.969068,0
24.097461,0.02672,1.884303,-0.07726,-0.027017,0.870485,0.874324,0
24.12415,0.026689,1.902637,-0.035297,0.009226,0.833931,0.834728,0
24.157873,0.033723,1.923575,0.018911,0.028407,0.860737,0.861413,0
24.184561,0.026688,1.944562,0.018183,0.085463,0.938477,0.942535,0
24.211339,0.026777,1.95629,-0.103671,0.139363,0.912888,0.929266,0
24.24549,0.034151,1.967152,-0.113791,-0.014956,0.866342,0.873911,0
24.27929,0.0338,1.982359,0.033215,-0.000724,1.03035,1.030886,0
24.306179,0.026889,1.994162,0.045822,0.14689,1.140501,1.150834,0
24.332957,0.026778,1.998608,0.023517,0.171654,1.133922,1.147082,0
24.366765,0.033808,2.00512,0.100373,0.086191,1.139039,1.146697,0
24.393446,0.026681,2.016958,0.144983,0.06871,1.10151,1.113133,0
24.427357,0.033911,2.024991,0.157347,0.112656,1.073241,1.090548,0
24.454115,0.026758,2.028692,0.091887,0.076965,0.995258,1.00245,0
24.48126,0.027145,2.030826,0.012365,0.054386,0.963577,0.96519,0
24.511949,0.030689,2.031454,0.01091,0.116783,0.926535,0.93393,0
24.538859,0.026911,2.030507,0.118556,0.094446,0.92483,0.937169,0
24.567042,0.028183,2.026137,0.064248,0.069439,0.907527,0.912445,0
24.593848,0.026805,2.022904,0.063763,0.068225,0.921174,0.925895,0
24.627597,0.033749,2.022737,0.15759,0.092747,0.947737,0.965216,0
24.654238,0.026641,2.023819,0.170682,0.134507,0.976493,1.000382,0
24.68094,0.026702,2.02606,0.13286,0.093718,0.954804,0.968548,0
24.714605,0.033665,2.030659,0.060611,0.042974,0.929216,0.932182,0
24.741269,0.026664,2.037177,0.115162,-0.015438,0.907527,0.914935,0
24.767944,0.026675,2.043402,0.121465,0.04176,0.937502,0.94626,0
24.801586,0.033642,2.04269,0.003637,0.101487,0.968695,0.974003,0
24.828968,0.027382,2.032935,-0.020734,0.029621,0.881695,0.882436,0
24.86266,0.033693,2.023855,0.125829,0.08085,0.979174,0.990531,0
24.889489,0.026829,2.019579,0.166318,0.110956,1.109552,1.127421,0
24.923213,0.033724,2.015896,-0.000987,0.08692,1.015485,1.019198,0
24.950563,0.02735,2.012717,-0.012589,-0.034013,0.964796,0.965477,0
24.984467,0.033903,2.017917,0.043155,0.010683,1.033031,1.033987,0
25.011149,0.026682,2.024906,0.046307,0.127223,1.001594,1.010703,0
25.045212,0.034063,2.024731,-0.038753,0.02695,0.995502,0.99662,0
25.071862,0.02665,2.024899,-0.097253,-0.061995,0.874628,0.882199,0
25.098578,0.026717,2.022822,-0.048873,-0.003377,1.032787,1.033948,0
25.132257,0.033679,2.023981,0.185714,0.103915,1.070804,1.091746,0
25.15881,0.026553,2.026181,0.072249,0.008983,0.968695,0.971427,0
25.185453,0.026643,2.027627,-0.129342,-0.025329,1.034006,1.042372,0
25.219074,0.033622,2.032469,-0.016785,0.035933,0.999888,1.000674,0
25.246276,0.027201,2.032178,-0.032582,0.104644,0.98551,0.991586,0
25.279977,0.033701,2.032677,0.077098,0.159029,0.999888,1.015387,0
25.306727,0.02675,2.03802,0.048732,0.171654,0.95188,0.96846,0
25.333757,0.02703,2.03849,-0.101449,0.10173,0.908502,0.919792,0
25.367502,0.033745,2.034279,-0.001728,0.08085,0.968939,0.972307,0
25.394272,0.026769,2.048934,0.119768,-0.146907,1.00793,1.025597,0
25.427999,0.033727,2.057945,-0.023203,0.104401,0.98088,0.986693,0
25.454674,0.026675,2.064327,-0.036285,0.125038,1.052039,1.060065,0
25.481665,0.02699,2.073196,-0.0,0.164856,0.993065,1.006655,0
25.515646,0.033982,2.084219,0.027881,0.070653,0.94067,0.943731,0
25.542775,0.027129,2.097903,0.02279,0.153688,1.000132,1.012128,0
25.574687,0.031912,2.110079,0.068127,0.226283,0.960653,0.989292,0
25.611007,0.03632,2.117742,0.040004,0.135478,0.9743,0.984487,0
25.637897,0.026891,2.128921,0.050671,0.194962,0.97893,0.999441,0
25.671683,0.033786,2.128508,0.052611,0.241821,0.969182,1.00028,0
25.698281,0.026598,2.13091,0.070794,0.206374,1.014997,1.038182,0
25.724894,0.026613,2.1432,0.051641,0.204917,1.055207,1.07616,0
25.758691,0.033798,2.141536,0.072249,0.126495,0.976981,0.987781,0
25.785572,0.026881,2.134674,0.078795,0.198362,1.024258,1.04626,0
25.81932,0.033748,2.12836,0.056975,0.099788,0.996964,1.003564,0
25.846345,0.027025,2.11584,0.094554,0.094932,0.873897,0.884109,0
25.873139,0.026794,2.110932,0.03467,0.184522,0.884132,0.903847,0
25.906854,0.033715,2.105176,0.062309,0.173111,0.955292,0.972847,0
25.933492,0.026638,2.09514,0.054793,0.147375,0.9743,0.986905,0
25.967135,0.033643,2.088814,0.085583,0.083035,0.871947,0.880063,0
25.99397,0.026835,2.087078,0.085099,0.067011,0.995014,1.000892,0
26.020578,0.026608,2.078958,0.08825,0.002428,0.971376,0.975379,0
26.054307,0.033729,2.073914,0.08025,0.103672,0.841485,0.851637,0
26.080927,0.02662,2.068612,0.019153,0.121882,0.979174,0.986916,0
26.107605,0.026679,2.056438,0.069582,0.065311,1.042048,1.046408,0
26.141259,0.033653,2.0459,0.107646,0.055114,0.991846,0.999192,0
26.167857,0.026598,2.035742,0.051883,0.04953,0.892418,0.895296,0
26.194492,0.026635,2.023405,0.025214,0.043217,0.987703,0.98897,0
26.228075,0.033583,2.015533,0.208503,0.136692,1.078846,1.107279,0
26.254837,0.026762,2.007193,0.08025,0.097603,1.020846,1.028636,0
26.281436,0.026599,2.001622,0.153468,0.155873,0.980392,1.004499,0
26.308043,0.026607,1.993397,0.133103,0.111199,0.994039,1.009057,0
26.341723,0.03368,1.986287,0.128254,0.077694,0.949443,0.961211,0
26.368452,0.026729,1.975077,0.119768,0.123096,0.82004,0.837832,0
26.395202,0.026751,1.961972,0.026669,0.121639,0.85367,0.862705,0
26.42879,0.033587,1.956072,0.002424,0.117997,0.869267,0.877242,0
26.455488,0.026698,1.950559,0.030306,0.065311,0.944813,0.947552,0
26.482269,0.026782,1.950205,0.089463,0.075508,0.973082,0.980098,0
26.516049,0.03378,1.950784,0.006788,0.122125,1.039367,1.046539,0
26.542651,0.026602,1.94389,0.038064,0.078665,1.012804,1.016567,0
26.576748,0.034097,1.935151,-0.0,0.063854,1.037905,1.039867,0
26.603441,0.026694,1.931892,0.048004,-0.059583,1.041804,1.04461,0
26.637089,0.033648,1.929897,-0.003949,0.024522,0.991846,0.992157,0
26.663693,0.026604,1.928622,-0.035051,0.01651,1.023039,1.023773,0
26.690269,0.026576,1.924574,0.002909,0.094446,0.990628,0.995124,0
26.716897,0.026627,1.920937,0.0337,0.000486,0.96967,0.970255,0
26.75056,0.033663,1.908503,-0.023943,0.02088,0.85367,0.854261,0
26.777226,0.026666,1.888996,-0.028633,0.14519,0.984535,0.995595,0
26.803818,0.026592,1.886184,0.070794,-0.000241,0.983073,0.985619,0
26.837513,0.033695,1.888765,0.107404,0.009226,0.931653,0.937869,0
26.864103,0.02659,1.892722,0.211655,-0.025087,0.961872,0.985203,0
26.890854,0.026751,1.892559,0.050429,0.046859,0.908258,0.910863,0
26.924621,0.033767,1.893968,0.13577,-0.063201,0.964308,0.975868,0
26.95128,0.026659,1.893642,0.146195,-0.040285,0.982586,0.994218,0
26.977892,0.026612,1.898023,0.121223,0.009469,0.984048,0.991532,0
27.011659,0.033767,1.899955,0.095039,0.006313,0.940182,0.944995,0
27.038304,0.026645,1.900265,0.115162,-0.023399,0.943594,0.950884,0
27.064974,0.02667,1.901682,0.084614,0.06434,1.051552,1.056911,0
27.098618,0.033644,1.905515,0.133345,0.013354,1.024502,1.033229,0
27.125257,0.026639,1.912265,0.205352,-0.018333,1.045703,1.065833,0
27.151826,0.026569,1.922746,0.128739,0.048316,1.041317,1.050356,0
27.185468,0.033643,1.926392,0.073219,0.027678,1.061543,1.064425,0
27.212067,0.026599,1.932705,0.096493,0.111685,1.071048,1.08117,0
27.238702,0.026635,1.947738,0.069824,0.07648,1.0323,1.037481,0
27.272415,0.033713,1.962084,0.050671,0.068225,1.011586,1.015149,0
27.299093,0.026678,1.978445,0.073219,0.090804,1.004275,1.011026,0
27.325851,0.026758,1.997214,0.110798,0.044917,1.070804,1.077457,0
27.359716,0.033865,2.006802,0.075158,0.02525,1.085669,1.088561,0
27.386453,0.026737,2.013629,0.066188,0.016753,1.088838,1.090976,0
27.420226,0.033773,2.022067,0.015274,0.101973,0.993065,0.998403,0
27.446861,0.026634,2.038297,-0.074051,-0.080087,1.047896,1.053558,0
27.473471,0.02661,2.061926,-0.045665,-0.029671,1.072022,1.073405,0
27.507257,0.033786,2.071895,0.019638,0.067496,1.134409,1.136585,0
27.533902,0.026646,2.06718,0.124375,-0.013267,1.044728,1.052189,0
27.560821,0.026919,2.045592,0.113465,0.047102,0.933846,0.941893,0
27.593772,0.032951,2.025331,0.196624,-0.026294,1.084451,1.102446,0
27.620538,0.026766,2.014796,0.441009,-0.048245,1.234812,1.312089,1
27.647257,0.026719,2.007713,0.147892,0.035933,1.000132,1.011646,0
27.673859,0.026602,2.005305,0.129466,0.202975,0.941645,0.971933,0
27.708775,0.034915,2.006761,0.187896,0.128923,0.944569,0.971667,0
27.740643,0.031868,2.01327,0.107161,0.107314,0.846847,0.860319,0
27.768955,0.028313,2.027065,0.204624,0.132565,1.075922,1.103201,0
27.804509,0.035554,2.031155,0.294087,0.03132,0.973569,1.017499,0
27.836216,0.031706,2.02884,0.168742,0.010197,0.958947,0.973734,0
27.864649,0.028433,2.021157,0.176501,0.047102,1.085182,1.10045,0
27.899846,0.035198,2.015294,0.055763,0.073081,0.993065,0.99731,0
27.934855,0.035009,2.010857,0.097221,0.109014,1.01914,1.029555,0
27.966294,0.031439,2.004708,0.117101,0.035448,0.961872,0.969622,0
27.994525,0.02823,1.99575,0.01091,0.150774,0.831006,0.844644,0
28.022705,0.02818,1.99159,0.276388,-0.0,0.88072,0.92307,0
28.054815,0.03211,1.995823,0.157105,0.073809,1.282333,1.294027,1
28.083174,0.028359,2.006874,0.10207,-0.002412,0.883645,0.889524,0
28.114661,0.031486,2.009641,0.113222,0.000486,1.034493,1.040671,0
28.142514,0.027853,2.005494,0.107888,0.100031,0.947737,0.959089,0
28.170278,0.027764,2.009695,0.063278,0.082549,1.001838,1.007223,0
28.201737,0.031458,2.011735,0.083401,0.067982,0.977712,0.983615,0
28.230007,0.02827,2.010922,0.053096,0.05827,1.015728,1.018783,0
28.266046,0.036039,2.013222,0.083159,0.069196,0.98746,0.993368,0
28.297955,0.031909,2.01327,0.07637,0.073323,0.995502,1.001116,0
28.326669,0.028714,2.014481,0.089705,0.059484,0.979174,0.985072,0
28.358687,0.032017,2.016191,0.108373,0.107072,0.993552,1.005164,0
28.387476,0.028789,2.016878,0.07637,0.062398,0.986241,0.99116,0
28.419234,0.031758,2.01609,0.073946,0.067011,0.997939,1.002916,0
28.447397,0.028163,2.015312,0.078068,0.071138,0.989897,0.995515,0
28.475549,0.028152,2.014668,0.079522,0.065797,0.991115,0.996475,0
28.508134,0.032585,2.014189,0.083159,0.066525,0.987703,0.993428,0
28.536188,0.028054,2.013285,0.085583,0.066525,0.988434,0.99436,0
28.571859,0.035671,2.012503,0.079037,0.068953,0.99209,0.997619,0
28.597137,0.025278,2.011599,0.07734,0.072838,0.989409,0.995097,0
28.629008,0.03187,2.010649,0.098918,0.072595,0.973082,0.980787,0
28.656732,0.027724,2.009487,0.06934,0.072595,1.022796,1.027711,0
28.691577,0.034845,2.006426,0.06934,0.065311,0.956023,0.960756,0
28.726565,0.034988,2.006044,0.078068,0.072109,1.015728,1.021273,0
28.758434,0.031868,2.007181,0.083644,0.000243,0.967476,0.971086,0
28.786882,0.028449,2.006081,0.071037,0.063369,0.997939,1.002469,0
28.822215,0.035332,2.006486,0.111768,0.069196,1.033762,1.042086,0
28.854136,0.031921,2.006508,0.082432,0.075994,0.985754,0.992109,0
28.882023,0.027887,2.007116,0.069582,0.064097,0.997451,1.001928,0
28.910056,0.028033,2.007658,0.076128,0.060941,0.989165,0.993961,0
28.941462,0.031405,2.007596,0.076613,0.116783,0.994283,1.004045,0
28.969454,0.027992,2.007487,0.083644,0.065554,0.988678,0.994373,0
28.998911,0.029457,2.0072,0.097463,0.068225,0.990871,0.997988,0
29.02315,0.024239,2.007159,0.085341,0.06434,0.986972,0.992742,0
29.054761,0.031611,2.007174,0.085583,0.068953,0.994039,1.000097,0
29.082535,0.027775,2.007138,0.072491,0.065311,1.057888,1.062378,0
29.117954,0.035419,2.007186,0.061096,0.057056,0.994283,0.997791,0
29.149781,0.031826,2.007301,0.09019,0.07915,0.991115,0.998353,0
29.178388,0.028607,2.007878,0.095766,0.065311,0.99672,1.003438,0
29.213737,0.03535,2.008421,0.080007,0.067739,0.98551,0.99107,0
29.245569,0.031832,2.009295,0.093827,0.00437,0.998913,1.00332,0
29.274344,0.028774,2.009993,0.073461,0.067254,0.995745,1.000714,0
29.309361,0.035017,2.010557,0.066915,0.063612,0.993065,0.997347,0
29.344495,0.035134,2.011131,0.07928,0.064583,0.994527,0.99977,0
29.376087,0.031593,2.011664,0.086553,0.071624,0.989653,0.996009,0
29.404246,0.028159,2.012244,0.088008,0.070895,0.996233,1.002622,0
29.440038,0.035792,2.012573,0.086311,0.067982,0.992577,0.998639,0
29.471611,0.031573,2.012892,0.075158,0.004856,0.994039,0.996889,0
29.501322,0.029711,2.013134,0.072734,0.063369,0.996476,1.001135,0
29.532597,0.031275,2.013275,0.073219,0.059727,0.993552,0.998035,0
29.562734,0.030138,2.013142,0.077098,0.05827,0.994527,0.999211,0
29.597674,0.03494,2.013061,0.084614,0.061184,0.991115,0.9966,0
29.628746,0.031072,2.013072,0.086068,0.065554,0.992577,0.998456,0
29.656352,0.027606,2.013047,0.084856,0.065311,0.992334,0.998094,0
29.683963,0.027611,2.013036,0.076128,0.069439,1.058863,1.063864,0
29.715377,0.031414,2.013152,0.074673,0.065797,0.995258,1.000222,0
29.743474,0.028096,2.013225,0.077825,0.064826,0.994039,0.999186,0
29.776645,0.033171,2.013159,0.078552,0.064826,0.995258,1.000455,0
29.805083,0.028438,2.013,0.081704,0.063854,0.99209,0.997495,0
29.84018,0.035097,2.012765,0.084371,0.065554,0.993308,0.999038,0
29.875159,0.034979,2.012463,0.077825,0.063369,0.993552,0.998608,0
29.907048,0.03189,2.012302,0.07831,0.067496,0.995745,1.001098,0
29.935118,0.02807,2.012164,0.077583,0.06604,0.994527,0.999732,0
29.970858,0.03574,2.011937,0.07831,0.066525,0.994527,0.999821,0
30.004191,0.033333,2.011616,0.083401,0.064583,0.993065,0.998651,0
30.032204,0.028013,2.011237,0.082674,0.063854,0.993796,0.999271,0
30.063766,0.031562,2.010751,0.082917,0.06434,0.994527,1.000049,0
30.091758,0.027992,2.010358,0.078552,0.065311,0.995502,1.00073,0
30.127448,0.03569,2.010088,0.07734,0.067982,0.996233,1.00154,0
30.159035,0.031587,2.009779,0.080492,0.06871,0.994771,1.000384,0
30.187645,0.02861,2.009459,0.07928,0.06871,0.995745,1.001257,0
30.222976,0.035331,2.009064,0.082432,0.065311,0.992577,0.998133,0
30.255701,0.032725,2.00872,0.082674,0.063126,0.995502,1.000921,0
30.283831,0.02813,2.008384,0.078068,0.062398,0.993065,0.998081,0
30.315575,0.031744,2.007997,0.077583,0.063612,0.998426,1.003454,0
30.34389,0.028315,2.007467,0.065703,0.065554,1.003544,1.007826,0
30.372075,0.028185,2.00658,0.059399,0.068953,0.990628,0.9948,0
30.403744,0.031669,2.001581,0.027881,0.015782,0.98746,0.987979,0
30.438928,0.035184,1.997077,0.095281,0.028164,0.997695,1.00263,0
30.467047,0.028119,1.990391,0.097463,0.008255,1.042048,1.046628,0
30.498859,0.031811,1.984125,0.037094,0.104158,0.995014,1.001138,0
30.527137,0.028278,1.97841,0.10207,0.109985,1.00525,1.016386,0
30.5627,0.035563,1.972757,0.04558,0.055114,0.986972,0.98956,0
30.594508,0.031808,1.968063,0.070067,0.016753,0.969182,0.971856,0
30.624592,0.030083,1.961586,0.102555,0.035448,0.97893,0.984926,0
30.65718,0.032588,1.957102,0.084129,-0.000724,0.993065,0.996622,0
30.692701,0.035521,1.952218,0.082674,0.040304,0.977468,0.981786,0
30.724079,0.031379,1.948867,0.115647,0.081821,0.991115,1.001188,0
30.75176,0.027681,1.946129,0.072249,0.10173,1.006712,1.014415,0
30.779698,0.027938,1.943463,0.063278,0.089348,1.05667,1.062327,0
30.812513,0.032815,1.942254,0.077825,0.085463,1.002569,1.00921,0
30.840635,0.028122,1.941132,0.080977,0.075994,0.986729,0.992958,0
30.872615,0.03198,1.940952,0.078068,0.0539,0.986485,0.991036,0
30.900983,0.028368,1.940311,0.103524,0.042489,0.995745,1.002014,0
30.936318,0.035335,1.939494,0.094554,0.038604,0.980149,0.985455,0
30.971477,0.035159,1.938841,0.06837,0.057785,0.999888,1.003887,0
31.003165,0.031688,1.938594,0.071764,0.067739,0.986241,0.991166,0
31.031324,0.028159,1.938505,0.075886,0.090804,1.006712,1.013643,0
31.059397,0.028072,1.938657,0.084371,0.077694,0.993308,0.999908,0
31.091008,0.031611,1.926903,0.066915,0.095175,0.939208,0.946386,0
31.126185,0.035177,1.92554,0.088978,0.042974,0.985997,0.990936,0
31.154245,0.028059,1.938281,0.095524,0.114355,0.993065,1.004181,0
31.186658,0.032414,1.941243,0.050429,-0.007237,0.995502,0.996804,0
31.221903,0.035244,1.941876,0.073946,0.03302,0.996476,0.999762,0
31.249902,0.028,1.942424,0.07734,0.051715,0.998426,1.002751,0
31.281699,0.031796,1.942869,0.085099,0.118968,0.999644,1.010289,0
31.309793,0.028095,1.943759,0.088978,0.083521,0.984535,0.99207,0
31.345294,0.035501,1.945197,0.090675,0.087891,0.99209,1.000095,0
31.376877,0.031583,1.946735,0.071522,0.084735,0.997939,1.00408,0
31.404963,0.028086,1.948427,0.075158,0.056328,0.998182,1.002591,0
31.432981,0.028018,1.950191,0.081947,0.04953,0.993552,0.998155,0
31.464651,0.03167,1.951719,0.079522,0.044674,0.990628,0.994818,0
31.492823,0.028172,1.953414,0.087523,0.047345,0.997207,1.00216,0
31.527977,0.035154,1.955273,0.086068,0.069439,0.991115,0.997266,0
31.564617,0.03664,1.956784,0.075158,0.065554,0.999157,1.004122,0
31.589149,0.024532,1.958543,0.075643,0.08085,0.997695,1.00382,0
31.622098,0.032949,1.960656,0.085583,0.074052,0.995502,1.001914,0
31.658435,0.036336,1.968185,0.083644,0.118726,0.976493,0.987234,0
31.693401,0.034966,1.974159,0.061339,0.05827,0.997451,1.001033,0
31.728385,0.034984,1.979347,0.061339,0.077694,0.938233,0.94344,0
31.759798,0.031413,1.982511,0.080977,0.057299,0.995745,1.000674,0
31.787518,0.02772,1.984287,0.082917,0.037876,1.060081,1.063993,0
31.823928,0.03641,1.98573,0.077825,0.051472,0.967964,0.972451,0
31.855457,0.031529,1.983652,0.105706,0.015053,1.038636,1.04411,0
31.883807,0.02835,1.982984,0.036124,0.061669,0.982098,0.984696,0
31.911849,0.028041,1.983868,0.095281,0.212201,0.985266,1.012352,0
31.943616,0.031767,1.98518,0.089705,0.067011,1.001838,1.008076,0
31.978748,0.035132,1.986527,0.074431,0.059727,0.992821,0.997397,0
32.008565,0.029818,1.987234,0.059157,0.050744,0.99672,0.999763,0
32.03284,0.024275,1.987816,0.090432,0.080364,0.995745,1.003068,0
32.064701,0.03186,1.987722,0.088735,0.009226,0.957729,0.961875,0
32.092561,0.02786,1.985203,0.065945,0.082549,1.000619,1.006182,0
32.120475,0.027914,1.983529,0.053338,0.072109,0.986972,0.991039,0
32.152387,0.031912,1.980596,0.0674,0.079879,0.963821,0.969471,0
32.187741,0.035354,1.980352,0.076613,0.100031,1.026207,1.033914,0
32.215752,0.028011,1.99441,0.119768,0.146647,0.938233,0.957147,0
32.25054,0.034788,1.989896,0.037579,0.053657,0.918737,0.92107,0
32.283426,0.032886,1.985642,0.14474,0.164613,1.088107,1.109965,0
32.312234,0.028809,1.980361,0.083401,0.081578,0.97625,0.983196,0
32.344748,0.032514,1.974106,0.064733,0.024036,1.092737,1.094916,0
32.372869,0.02812,1.969462,0.052126,0.063126,0.984292,0.98769,0
32.405172,0.032303,1.962442,-0.039987,0.048801,1.024258,1.026199,0
32.433247,0.028076,1.954465,0.14571,0.092504,1.002569,1.017316,0
32.465214,0.031966,1.95506,0.11201,0.000971,1.009392,1.015589,0
32.493484,0.02827,1.96053,0.065703,-0.004583,1.044728,1.046802,0
32.528813,0.035329,1.968005,0.074916,-0.001689,1.042048,1.044739,0
32.561718,0.032905,1.972486,0.061824,0.067982,0.982342,0.98663,0
32.590091,0.028373,1.976181,0.055035,0.131351,0.953829,0.964403,0
32.621656,0.031566,1.975593,0.03467,0.123339,1.004275,1.012414,0
32.655847,0.034191,1.976089,0.035882,0.09299,0.992577,0.997569,0
32.684465,0.028618,1.978203,0.109586,0.052443,1.044485,1.051526,0
32.719621,0.035156,1.979855,0.067158,0.000243,0.964796,0.96713,0
32.748391,0.028769,1.984182,0.071037,0.045159,0.98088,0.984485,0
32.772458,0.024068,1.98601,0.052368,0.064826,0.983804,0.987327,0
32.803561,0.031103,1.987492,0.074673,0.054143,1.013779,1.017966,0
32.830724,0.027163,1.991551,0.061339,0.038118,1.004518,1.007111,0
32.857637,0.026913,1.997378,0.062793,0.057785,0.992821,0.996482,0
32.884286,0.026649,2.005783,0.098191,0.034234,1.008174,1.013523,0
32.910874,0.026588,2.013535,0.060369,0.028164,0.993796,0.996026,0
32.937595,0.026721,2.016785,0.017699,0.084977,0.987216,0.991025,0
32.971116,0.033521,2.016129,0.02085,0.081093,1.010367,1.013831,0
32.997893,0.026777,2.014782,0.014062,0.033991,0.979661,0.980352,0
33.024733,0.026839,2.017563,0.057217,-0.030636,1.010855,1.012936,0
33.055386,0.030653,2.018604,0.045822,0.01651,1.032544,1.033692,0
33.082357,0.026971,2.015553,0.059157,0.080122,0.949443,0.954652,0
33.108969,0.026612,2.012554,0.016244,0.11824,0.986972,0.994162,0
33.135641,0.026672,2.011289,0.052611,0.056085,1.016703,1.019607,0
33.169238,0.033597,2.01238,0.07928,-0.010614,1.009149,1.012314,0
33.1959,0.026662,2.012783,0.02279,0.067982,1.002325,1.004886,0
33.222527,0.026627,2.011854,0.062309,0.061184,0.995502,0.999324,0
33.25633,0.033804,2.012838,0.053096,0.116783,0.973082,0.981501,0
33.283005,0.026674,2.01314,0.059884,0.084977,0.99672,1.002127,0
33.309602,0.026597,2.010598,0.035882,0.07478,1.018409,1.021781,0
33.343364,0.033762,2.009593,0.076613,0.048073,0.979661,0.983828,0
33.369918,0.026553,2.012364,0.083159,-0.027982,0.986485,0.990379,0
33.396554,0.026636,2.017444,0.072976,0.007284,1.018409,1.021046,0
33.430169,0.033615,2.027986,0.108616,-0.044144,1.029863,1.036515,0
33.456805,0.026636,2.035621,0.007516,0.138392,0.970157,0.980007,0
33.483714,0.026909,2.045128,0.029578,0.114841,1.00135,1.008348,0
33.518076,0.034362,2.048417,0.083644,0.023308,1.010855,1.014577,0
33.548105,0.03003,2.043955,0.026427,0.038847,0.999401,1.000505,0
33.585399,0.037293,2.044152,0.069582,0.058756,1.013535,1.017619,0
33.614278,0.028879,2.046759,0.03176,0.061184,1.000619,1.002991,0
33.648505,0.034228,2.055402,0.072249,0.012382,1.034249,1.036844,0
33.686566,0.038061,2.068916,0.100615,-0.060306,1.001594,1.00844,0
33.722183,0.035617,2.071484,0.001455,0.078179,1.000619,1.00367,0
33.757565,0.035382,2.070953,-0.01407,0.076237,1.034493,1.037394,0
33.788894,0.031329,2.071252,0.072976,0.031563,1.010611,1.013734,0
33.818401,0.029507,2.073334,0.071037,0.016995,0.944325,0.947146,0
33.852554,0.034153,2.065906,0.037822,0.107557,1.090056,1.096002,0
33.896061,0.043507,2.064344,0.057945,0.032049,0.971619,0.973873,0
33.937517,0.041456,2.06745,0.066188,0.06604,1.024745,1.029002,0
33.977144,0.039627,2.073295,0.073946,0.018938,0.969182,0.972184,0
34.005584,0.02844,2.073596,0.098191,0.101245,0.902653,0.913605,0
34.034115,0.028531,2.072178,0.082432,0.016995,1.052283,1.055643,0
34.066515,0.0324,2.075484,0.118556,0.023551,1.005006,1.012248,0
34.093714,0.027199,2.077458,0.067885,0.06434,0.976737,0.981205,0
34.120485,0.026771,2.077364,0.060127,0.055599,0.984535,0.987935,0
34.147125,0.02664,2.077288,0.065218,0.000243,0.954317,0.956543,0
34.183921,0.036796,2.073895,0.02279,-0.035943,1.05009,1.050952,0
34.217053,0.033133,2.074205,0.104494,0.03909,0.984779,0.991079,0
34.252536,0.035482,2.084054,0.072491,-0.031118,0.989653,0.992792,0
34.285752,0.033216,2.089821,-0.005924,0.082064,0.94725,0.950816,0
34.312981,0.027229,2.084472,0.083401,0.089105,0.970157,0.977804,0
34.344278,0.031298,2.076826,0.117586,0.073809,0.974056,0.9839,0
34.372228,0.027949,2.064291,0.076613,0.050015,1.047165,1.051155,0
34.401592,0.029365,2.05243,0.125345,0.019909,0.995745,1.003801,0
34.425495,0.023903,2.041084,0.063521,0.058756,1.024258,1.027906,0
34.459966,0.034471,2.027015,0.091887,0.007527,1.107602,1.111433,0
34.495393,0.035427,2.018776,0.009698,0.159272,1.019871,1.032279,0
34.529647,0.034254,2.015683,0.054308,0.077936,0.96114,0.965823,0
34.562609,0.032962,2.01292,0.062793,0.073323,1.011098,1.015696,0
34.591136,0.028527,2.013724,0.039761,0.080607,1.030594,1.034506,0
34.625796,0.034661,2.015331,0.07637,0.084249,1.048384,1.054533,0
34.658786,0.03299,2.017027,0.066188,0.029621,0.984292,0.986959,0
34.696758,0.037972,2.011383,0.034427,0.090804,0.973569,0.9784,0
34.738743,0.041985,2.001922,0.071764,0.028164,0.998426,1.001398,0
34.770087,0.031345,1.990192,0.081462,0.035205,0.97625,0.980275,0
34.798096,0.028009,1.976148,0.092857,0.055357,0.924342,0.930642,0
34.830024,0.031927,1.964864,0.091645,0.09736,0.956266,0.965569,0
34.859605,0.029581,1.960299,0.075886,0.117754,1.011342,1.020998,0
34.886626,0.027021,1.960606,0.074431,0.117026,0.980636,0.990395,0
34.92054,0.033914,1.962804,0.070552,0.111199,0.995258,1.003933,0
34.947495,0.026955,1.96551,0.070309,0.082549,0.990628,0.996545,0
34.979332,0.031837,1.969868,0.055035,0.048316,1.008174,1.01083,0
35.006193,0.026861,1.975839,0.064491,0.063369,0.985266,0.989406,0
35.04003,0.033837,1.979866,0.105706,0.093475,0.986241,0.996285,0
35.066828,0.026798,1.980875,0.09116,0.101002,1.000863,1.010068,0
35.093833,0.027006,1.981658,0.069582,0.083278,0.991846,0.997765,0
35.120769,0.026936,1.982849,0.066673,0.081821,0.99867,1.004232,0
35.155589,0.03482,1.984167,0.076613,0.082549,0.990384,0.996767,0
35.182253,0.026664,1.984841,0.06934,0.080364,1.057644,1.062957,0
35.216045,0.033793,1.985948,0.065945,0.087891,0.995014,1.001063,0
35.24276,0.026715,1.987065,0.06934,0.084977,0.99672,1.002736,0
35.26951,0.026749,1.988022,0.065218,0.086191,0.996964,1.002806,0
35.303244,0.033735,1.988975,0.067885,0.085949,0.995258,1.001266,0
35.330045,0.026801,1.989811,0.074673,0.088619,0.997451,1.004161,0
35.356795,0.02675,1.990617,0.071279,0.087648,0.996233,1.002618,0
35.390454,0.03366,1.991218,0.070067,0.086191,0.995014,1.001195,0
35.417273,0.026819,1.991734,0.068855,0.085706,0.997451,1.003492,0
35.451014,0.033741,1.992234,0.066188,0.084735,0.994527,1.000322,0
35.477929,0.026915,1.992679,0.070552,0.085949,0.996476,1.002661,0
35.505227,0.027298,1.993218,0.070067,0.085463,0.995745,1.001859,0
35.535688,0.030461,1.993965,0.070067,0.090076,0.997207,1.003716,0
35.562525,0.026837,1.994751,0.072249,0.087405,0.994771,1.001213,0
35.589191,0.026666,1.995561,0.068612,0.087163,0.997695,1.003843,0
35.623079,0.033888,1.996188,0.067885,0.087648,0.997695,1.003835,0
35.64974,0.026662,1.996707,0.068612,0.084977,0.996964,1.002929,0
35.683707,0.033967,1.997267,0.068612,0.084977,0.995258,1.001233,0
35.710785,0.027078,1.99779,0.071279,0.086677,0.997207,1.003502,0
35.738039,0.027254,1.998285,0.072006,0.086191,0.995014,1.001333,0
35.764768,0.026728,1.998659,0.070067,0.087163,1.057157,1.063056,0
35.791426,0.026658,1.998639,0.052611,0.043703,0.960897,0.963328,0
35.825298,0.033872,1.999222,0.042913,0.081093,0.986972,0.991227,0
35.851969,0.026671,1.998825,0.085099,0.128194,1.017678,1.029245,0
35.879026,0.027057,1.999135,0.069097,0.108285,0.969426,0.977899,0
35.909424,0.030398,1.998925,0.069824,0.106829,0.979905,0.988181,0
35.937004,0.02758,1.999411,0.073946,0.059241,1.008905,1.013344,0
35.970875,0.033871,1.999748,0.059399,0.104158,0.996476,1.003665,0
35.998064,0.027189,1.999607,0.086796,0.06434,0.994527,1.000378,0
36.031845,0.033782,1.999554,0.06934,0.075508,1.011586,1.016767,0
36.058592,0.026747,1.999857,0.064733,0.103187,0.993308,1.000749,0
36.085558,0.026966,1.999959,0.073219,0.091047,0.996964,1.003787,0
36.112475,0.026918,1.999304,0.051641,0.038604,0.976737,0.978863,0
36.147649,0.035174,1.997409,0.084614,-0.028706,1.029619,1.033489,0
36.174303,0.026654,1.995028,0.037337,0.188164,1.007443,1.025544,0
36.208319,0.034016,1.990588,0.07831,0.147618,0.912401,0.927577,0
36.235014,0.026695,1.991103,0.097948,0.213172,1.055938,1.081685,0
36.26888,0.033865,1.990747,0.052853,0.222884,0.983561,1.009882,0
36.295643,0.026763,1.989956,0.095524,0.088619,0.979905,0.98853,0
36.322353,0.02671,1.987909,0.073461,-0.022675,0.99209,0.995064,0
36.355999,0.033646,1.987241,0.040731,0.076237,0.97625,0.980069,0
36.382695,0.026696,1.986089,0.066915,0.074052,0.97625,0.981338,0
36.409403,0.026708,1.98659,0.085583,0.102944,1.052039,1.060523,0
36.443318,0.033916,1.991163,0.043155,0.162914,1.005493,1.01952,0
36.469955,0.026637,1.993108,0.072734,0.191563,0.987947,1.008973,0
36.504281,0.034325,1.994565,0.06546,0.162185,1.057644,1.072008,0
36.531065,0.026784,1.994729,0.059642,0.083521,1.008417,1.013626,0
36.565674,0.03461,1.993282,0.07734,0.053657,0.967233,0.971802,0
36.59946,0.033786,1.993063,0.038549,0.088134,0.995502,1.000139,0
36.626331,0.02687,1.992296,0.110313,0.088619,0.979905,0.990069,0
36.653049,0.026719,1.993685,0.077583,0.148103,0.999644,1.01353,0
36.686836,0.033787,1.996269,0.046792,0.168984,1.002569,1.017786,0
36.714506,0.027669,1.996723,0.054308,0.126009,0.984535,0.994051,0
36.749648,0.035142,1.996932,0.055278,0.096631,1.006468,1.012606,0
36.782753,0.033104,1.997167,0.115889,0.124795,0.983561,0.998196,0
36.806461,0.023709,1.997751,0.093827,0.131108,0.998426,1.011359,0
36.833214,0.026753,1.998859,0.086553,0.15563,0.979661,0.995715,0
36.866991,0.033776,1.999943,0.067158,0.093475,0.986729,0.993419,0
36.893721,0.02673,2.000585,0.056975,0.090319,0.996476,1.002182,0
36.920445,0.026725,2.000956,0.061581,0.113384,0.991359,0.99972,0
36.954282,0.033837,2.001653,0.065703,0.131594,1.004275,1.014988,0
36.981112,0.02683,2.002734,0.063036,0.131594,0.985754,0.996494,0
37.01969,0.038578,2.003674,0.079037,0.104158,0.992334,1.00091,0
37.054434,0.034744,2.004933,0.067885,0.120425,0.981124,0.990815,0
37.087359,0.032924,2.006631,0.062551,0.124553,1.000619,1.01028,0
37.120559,0.033201,2.008456,0.064006,0.120911,0.985754,0.995202,0
37.145871,0.025311,2.010421,0.05552,0.119211,0.997939,1.006566,0
37.173836,0.027965,2.012286,0.073461,0.117512,0.987216,0.996896,0
37.202122,0.028286,2.014252,0.069582,0.126252,0.994039,1.004438,0
37.23332,0.031197,2.015642,0.085341,0.116783,0.985023,0.995586,0
37.260972,0.027653,2.017218,0.054793,0.128923,0.936527,0.946946,0
37.289321,0.028349,2.018681,0.06837,0.121882,0.991359,1.00116,0
37.319775,0.030454,2.020071,0.055763,0.122853,0.997939,1.007017,0
37.347087,0.027312,2.021382,0.066915,0.119454,0.990384,0.999804,0
37.374774,0.027686,2.021455,0.071037,0.115084,0.990628,0.999817,0
37.406634,0.031861,2.022824,0.071279,0.117997,0.990628,1.000174,0
37.434443,0.027809,2.024103,0.06837,0.119454,0.989165,0.998695,0
37.461529,0.027086,2.025138,0.061581,0.11994,0.994039,1.003141,0
37.49673,0.0352,2.026444,0.061096,0.118968,0.993552,1.002513,0
37.534447,0.037717,2.028348,0.062551,0.121882,0.991602,1.001021,0
37.565717,0.031271,2.030784,0.072249,0.121153,0.99209,1.002068,0
37.601043,0.035326,2.03281,0.06643,0.120668,0.990871,1.0004,0
37.635401,0.034358,2.032059,0.070794,0.123096,0.990384,1.000512,0
37.670703,0.035302,2.03206,0.059157,0.125038,0.994283,1.003859,0
37.70476,0.034057,2.032692,0.065945,0.122125,0.991115,1.000786,0
37.73269,0.02793,2.033632,0.061581,0.120425,0.992334,1.001509,0
37.764475,0.031785,2.034658,0.070067,0.114598,0.991115,1.000176,0
37.800866,0.036391,2.035607,0.06837,0.121153,0.989409,0.999141,0
37.837531,0.036665,2.036535,0.063036,0.184765,0.999157,1.01805,0
37.872054,0.034523,2.037272,0.067158,0.121882,0.991846,1.001561,0
37.900119,0.028064,2.037985,0.061339,0.121396,0.995014,1.004267,0
37.931121,0.031003,2.037129,0.064976,0.105372,0.995989,1.003653,0
37.95845,0.027329,2.033389,0.069097,0.11387,0.996964,1.005822,0
37.989186,0.030735,2.031517,0.062551,0.116055,0.98551,0.994289,0
38.016472,0.027287,2.029387,0.069097,0.109014,0.991115,0.999484,0
38.050792,0.03432,2.02822,0.067642,0.115812,0.99209,1.001114,0
38.077682,0.026889,2.028721,0.065218,0.12261,0.993552,1.003211,0
38.111701,0.034019,2.028919,0.058914,0.119211,0.998182,1.007001,0
38.138513,0.026813,2.028402,0.071279,0.107557,0.991115,0.999479,0
38.172341,0.033828,2.028837,0.05455,0.136935,0.993065,1.003944,0
38.199104,0.026763,2.028904,0.074188,0.115569,0.993308,1.002757,0
38.233099,0.033995,2.028058,0.063036,0.111685,0.993308,1.001553,0
38.259904,0.026805,2.028061,0.061096,0.102216,0.991115,0.998243,0
38.287907,0.028002,2.029134,0.064006,0.128437,0.997695,1.007962,0
38.315647,0.02774,2.028702,0.069824,0.114113,0.99867,1.00759,0
38.349458,0.033812,2.02957,0.050429,0.12431,0.985754,0.99484,0
38.38521,0.035752,2.032162,0.059884,0.125767,0.991846,1.00158,0
38.417263,0.032053,2.033949,0.063278,0.125524,0.996233,1.006101,0
38.446347,0.029084,2.036003,0.063278,0.117754,0.990384,0.999365,0
38.482006,0.035659,2.036583,0.062309,0.117997,0.995014,1.003922,0
38.519923,0.037918,2.034869,0.0674,0.111685,0.994283,1.002804,0
38.550266,0.030342,2.032858,0.065218,0.115569,0.991359,1.000201,0
38.580901,0.030635,2.030448,0.052853,0.11217,0.995258,1.002953,0
38.607914,0.027014,2.028139,0.044125,0.070653,0.990384,0.993881,0
38.634745,0.02683,2.026659,0.064733,0.114355,0.99209,1.000755,0
38.661532,0.026788,2.025609,0.063521,0.11387,0.985266,0.993857,0
38.688247,0.026715,2.024962,0.049217,0.142762,0.994771,1.006167,0
38.715017,0.02677,2.023703,0.053823,0.149317,0.990628,1.003263,0
38.748672,0.033655,2.023572,0.05552,0.13475,0.992334,1.002979,0
38.775457,0.026785,2.02353,0.041216,0.158301,0.99209,1.005485,0
38.809621,0.034164,2.024334,0.0674,0.147618,0.986241,0.999503,0
38.837095,0.027474,2.025682,0.047277,0.13912,0.990871,1.001706,0
38.870889,0.033794,2.0264,0.055278,0.139363,0.988678,0.999981,0
38.897794,0.026905,2.027069,0.05746,0.134507,0.98746,0.998234,0
38.931522,0.033728,2.02747,0.047519,0.142762,0.993796,1.005121,0
38.95829,0.026767,2.027923,0.053581,0.137178,0.98746,0.998381,0
38.991991,0.033702,2.028222,0.054308,0.146647,0.93604,0.949013,0
39.02526,0.033269,2.028607,0.055278,0.145676,0.987216,0.999436,0
39.053801,0.028541,2.028941,0.052126,0.14689,0.995989,1.008111,0
39.085711,0.03191,2.029543,0.054065,0.145676,0.987947,1.000092,0
39.113188,0.027478,2.030544,0.046065,0.151017,0.995745,1.008185,0
39.147083,0.033895,2.031145,0.053581,0.143005,0.983804,0.995586,0
39.173869,0.026786,2.031409,0.048974,0.136449,0.992577,1.003108,0
39.207665,0.033796,2.03126,0.049217,0.141062,0.989409,1.000626,0
39.234709,0.027044,2.03078,0.053338,0.149075,0.991359,1.003922,0
39.268716,0.034007,2.030233,0.045337,0.148346,0.99209,1.004144,0
39.295688,0.026972,2.029268,0.061581,0.15126,1.008174,1.021316,0
39.329566,0.033878,2.028639,0.044368,0.140577,0.964796,0.975992,0
39.356506,0.02694,2.027957,0.042428,0.12868,1.013535,1.022552,0
39.390436,0.03393,2.027101,0.057945,0.139363,0.96967,0.981346,0
39.417486,0.02705,2.026082,0.049459,0.129166,0.994771,1.00434,0
39.451295,0.033809,2.025492,0.051156,0.132808,1.002081,1.012137,0
39.478016,0.026721,2.023772,0.063278,0.118968,0.977712,0.986954,0
39.504713,0.026698,2.022081,0.058914,0.143976,0.999401,1.011436,0
39.542671,0.037957,2.020889,0.040246,0.151017,0.989653,1.001918,0
39.574969,0.032298,2.020352,0.05649,0.120911,0.982829,0.991849,0
39.602877,0.027908,2.019173,0.063278,0.133536,0.975031,0.986165,0
39.633807,0.03093,2.018137,0.062551,0.151503,0.996476,1.009867,0
39.660779,0.026972,2.016006,0.048489,0.143976,0.986972,0.998596,0
39.687647,0.026869,2.015023,0.040731,0.135478,1.000376,1.010329,0
39.714782,0.027135,2.014163,0.067158,0.158301,0.995258,1.010004,0
39.741937,0.027155,2.013808,0.045095,0.150774,1.060081,1.071699,0
39.775872,0.033935,2.013574,0.049217,0.151745,0.996476,1.009165,0
39.802725,0.026854,2.012652,0.074188,0.15733,0.985754,1.000983,0
39.835078,0.032353,2.011702,0.058187,0.149075,0.989165,1.002027,0
39.869429,0.03435,2.011091,0.050186,0.140334,0.983073,0.994306,0
39.896483,0.027054,2.010823,0.05455,0.131836,0.989897,1.000126,0
39.923355,0.026872,2.010708,0.053338,0.141062,0.993552,1.004933,0
39.950249,0.026894,2.010754,0.04655,0.134993,0.994771,1.004967,0
39.984104,0.033855,2.010661,0.052126,0.139363,0.985997,0.997161,0
40.011082,0.026978,2.010028,0.061824,0.146161,0.989165,1.001815,0
40.044983,0.033901,2.009656,0.059399,0.144704,0.986729,0.99905,0
40.071709,0.026726,2.009724,0.05649,0.144947,0.989897,1.002046,0
40.098553,0.026844,2.010035,0.059399,0.146647,0.988922,1.001499,0
40.129245,0.030692,2.010606,0.052126,0.144947,0.990628,1.002532,0
40.155869,0.026624,2.011131,0.051156,0.14082,0.989165,1.000448,0
40.182566,0.026697,2.01162,0.055278,0.140334,0.990384,1.001803,0
40.209226,0.026659,2.011999,0.055763,0.141791,0.986972,0.998663,0
40.242912,0.033687,2.012272,0.059157,0.135478,0.98551,0.996536,0
40.269705,0.026793,2.012594,0.056247,0.141548,0.986241,0.997933,0
40.296371,0.026667,2.01295,0.05649,0.141548,0.985754,0.997465,0
40.330108,0.033736,2.013306,0.052853,0.141791,0.993065,1.004528,0
40.356734,0.026626,2.013522,0.047519,0.144219,0.987947,0.999548,0
40.383538,0.026804,2.013727,0.055278,0.141548,0.988434,1.000047,0
40.410203,0.026664,2.014108,0.055035,0.14349,0.988434,1.00031,0
40.436825,0.026622,2.014416,0.054308,0.142034,0.990384,1.00199,0
40.463407,0.026582,2.01461,0.056732,0.139849,0.985997,0.99748,0
40.4972,0.033794,2.014855,0.059399,0.141062,0.986729,0.998529,0
40.524419,0.027218,2.015123,0.052126,0.142034,0.994527,1.005969,0
40.558303,0.033885,2.015471,0.049701,0.139606,0.986729,0.997794,0
40.585119,0.026816,2.015848,0.051883,0.142762,0.99014,1.001724,0
40.611822,0.026703,2.016251,0.048489,0.141548,0.998913,1.010057,0
40.643226,0.031404,2.016615,0.048489,0.133293,0.97625,0.9865,0
40.670093,0.026867,2.017221,0.056732,0.140091,0.991846,1.003296,0
40.704712,0.034619,2.017893,0.062309,0.139606,0.985266,0.997057,0
40.73192,0.027208,2.018402,0.055763,0.142034,0.985754,0.997494,0
40.758575,0.026654,2.018656,0.062309,0.14349,0.986485,0.998811,0
40.785282,0.026707,2.018994,0.058914,0.142519,0.988191,1.000152,0
40.812107,0.026825,2.019413,0.049459,0.142762,0.986729,0.998229,0
40.843494,0.031387,2.019596,0.049944,0.141791,0.989409,1.000765,0
40.870435,0.026941,2.019573,0.055763,0.144219,0.990871,1.002863,0
40.904279,0.033844,2.019409,0.05746,0.143005,0.985266,0.997247,0
40.931215,0.026937,2.0194,0.055763,0.143248,0.986972,0.998871,0
40.964967,0.033752,2.019474,0.058914,0.140577,0.988434,1.000118,0
40.991779,0.026812,2.019598,0.053096,0.137663,0.987216,0.998181,0
41.018785,0.027006,2.019657,0.053823,0.138149,0.98551,0.9966,0
41.045513,0.026728,2.019462,0.058187,0.142034,0.986729,0.998595,0
41.072288,0.026775,2.019067,0.057945,0.146647,0.991359,1.00382,0
41.099037,0.026749,2.01858,0.059884,0.145676,0.981367,0.993926,0
41.132923,0.033886,2.01859,0.060369,0.144219,0.992334,1.004574,0
41.159626,0.026704,2.018671,0.050429,0.141548,0.984535,0.995936,0
41.193587,0.03396,2.018895,0.050914,0.137421,0.99209,1.002855,0
41.22029,0.026703,2.019191,0.04655,0.137421,0.988434,0.999026,0
41.246891,0.026601,2.019277,0.052611,0.136692,0.990384,1.001156,0
41.280694,0.033804,2.019301,0.05746,0.141548,0.980392,0.992223,0
41.307416,0.026722,2.019211,0.061096,0.14519,0.992334,1.004758,0
41.341188,0.033772,2.019142,0.056732,0.143976,0.986485,0.998549,0
41.367831,0.026643,2.019014,0.05552,0.143733,0.986729,0.998687,0
41.394563,0.026732,2.01909,0.050914,0.139606,0.99209,1.003157,0
41.428218,0.033655,2.019298,0.047035,0.138392,0.987216,0.997978,0
41.454991,0.026772,2.01944,0.052368,0.13912,0.992577,1.003647,0
41.481703,0.026712,2.019461,0.057945,0.138635,0.985997,0.997381,0
41.515538,0.033835,2.019296,0.058429,0.142276,0.98746,0.999366,0
41.542402,0.026864,2.019033,0.058914,0.141791,0.985997,0.997881,0
41.576347,0.033945,2.018725,0.056005,0.14349,0.987216,0.99916,0
41.603173,0.026827,2.018653,0.052368,0.143976,0.988678,1.000478,0
41.636985,0.033811,2.018736,0.052853,0.141548,0.987947,0.999434,0
41.66373,0.026745,2.018844,0.053096,0.142519,0.987216,0.998862,0
41.690596,0.026866,2.018841,0.053823,0.140577,0.986241,0.997662,0
41.724346,0.03375,2.018856,0.056005,0.139363,0.987947,0.999299,0
41.751136,0.02679,2.019084,0.056247,0.139363,0.98551,0.996903,0
41.785004,0.033868,2.019545,0.053096,0.139606,0.991115,1.002306,0
41.81169,0.026685,2.019878,0.052368,0.138877,0.988678,0.999757,0
41.838371,0.026681,2.020282,0.051399,0.140091,0.986241,0.997466,0
41.872606,0.034235,2.020772,0.054793,0.140577,0.987703,0.999161,0
41.900244,0.027638,2.021328,0.055763,0.142519,0.988434,1.000212,0
41.930687,0.030443,2.0218,0.058429,0.143005,0.986972,0.998989,0
41.957445,0.026758,2.02226,0.056975,0.143733,0.99014,1.002139,0
41.984103,0.026658,2.022835,0.053823,0.141791,0.986485,0.998075,0
42.018038,0.033935,2.023239,0.053096,0.140334,0.985997,0.997348,0
42.044796,0.026758,2.023338,0.066915,0.140577,0.981855,0.994122,0
42.078592,0.033796,2.023396,0.059399,0.148103,1.004275,1.016873,0
42.105462,0.02687,2.023274,0.050186,0.141062,0.981124,0.992482,0
42.132126,0.026664,2.023198,0.055278,0.133293,0.989897,1.000359,0
42.165907,0.033782,2.023268,0.064006,0.149803,0.991359,1.004654,0
42.192689,0.026782,2.0235,0.046792,0.135721,0.991359,1.001699,0
42.22646,0.033772,2.023535,0.060611,0.143733,0.98088,0.993206,0
42.253196,0.026735,2.023682,0.060369,0.148589,0.989897,1.002805,0
42.279988,0.026792,2.023955,0.051641,0.141548,0.993552,1.004912,0
42.313675,0.033688,2.023911,0.040246,0.137663,0.990628,1.000957,0
42.340441,0.026765,2.023613,0.039034,0.112899,1.061543,1.068244,0
42.36717,0.026729,2.023936,0.114434,0.168984,0.892905,0.915931,0
42.40091,0.03374,2.022506,-0.004196,0.178453,1.063737,1.07861,0
42.42754,0.02663,2.022408,0.072734,0.123824,0.948224,0.959037,0
42.461219,0.033679,2.021479,0.0337,0.165342,0.995502,1.009701,0
42.487861,0.026643,2.019979,0.093099,0.22604,0.955535,0.986311,0
42.51473,0.026868,2.020619,0.068855,0.149075,1.029132,1.04215,0
42.548595,0.033866,2.021832,-0.011354,0.078665,0.960166,0.96345,0
42.576063,0.027467,2.02213,0.047762,0.098574,0.994039,1.000056,0
42.602861,0.026798,2.022171,0.081462,0.162428,0.976981,0.993735,0
42.629696,0.026835,2.02226,0.02279,0.138149,0.986729,0.996613,0
42.663768,0.034071,2.022145,0.071522,0.14689,0.979905,0.993431,0
42.690585,0.026818,2.021928,0.088978,0.178453,0.985266,1.005242,0
42.717354,0.026769,2.022217,0.072734,0.154902,0.98551,1.000257,0
42.751173,0.033818,2.022988,-0.000987,0.14082,0.985754,0.995762,0
42.777908,0.026736,2.023559,0.042186,0.13305,0.994527,1.004274,0
42.811653,0.033745,2.024018,0.062793,0.141791,0.975762,0.988008,0
42.838315,0.026662,2.024595,0.048489,0.155144,0.991115,1.004356,0
42.86509,0.026775,2.024801,0.084856,0.139606,0.973082,0.986701,0
42.896891,0.031801,2.025118,0.078068,0.154902,0.972838,0.988181,0
42.925133,0.028241,2.025748,0.026184,0.138635,0.992821,1.002795,0
42.960894,0.035761,2.026197,0.035882,0.141548,0.999644,1.010254,0
42.993092,0.032198,2.02635,0.043883,0.147375,0.989653,1.001528,0
43.02199,0.028898,2.026595,0.048974,0.154416,0.995745,1.008837,0
43.054382,0.032392,2.02681,0.074431,0.162185,0.970157,0.986432,0
43.089929,0.035547,2.02724,0.065218,0.147132,0.989409,1.002413,0
43.118299,0.028371,2.027502,0.034427,0.150289,0.985266,0.997257,0
43.149486,0.031187,2.027505,0.043155,0.134993,0.997695,1.007711,0
43.176924,0.027438,2.027558,0.039519,0.146404,0.989653,1.001204,0
43.205558,0.028634,2.02752,0.053096,0.153445,0.98746,1.00072,0
43.237089,0.031532,2.027645,0.064733,0.157572,0.985754,1.000365,0
43.272551,0.035461,2.028024,0.064976,0.156844,0.98551,1.000026,0
43.300679,0.028129,2.028474,0.048489,0.146161,0.99209,1.00397,0
43.332594,0.031915,2.028589,0.040731,0.143005,0.993308,1.004376,0
43.360675,0.028081,2.028635,0.040488,0.138149,0.988678,0.999104,0
43.392756,0.032081,2.028837,0.051641,0.146647,0.987703,0.999865,0
43.420676,0.027921,2.028989,0.064006,0.152959,0.988191,1.002005,0
43.448831,0.028155,2.029176,0.06546,0.152231,0.986485,1.000306,0
43.480582,0.031751,2.029576,0.052853,0.150289,0.989653,1.002394,0
43.51622,0.035637,2.029954,0.043155,0.147132,0.994771,1.006518,0
43.555143,0.038923,2.030277,0.043155,0.145918,0.988191,0.999838,0
