timestamp,dt,heading_rad,accel_x,accel_y,accel_z,accel_norm,step_event
0.003021,0.003021,1.943197,0.020365,-0.123266,0.980636,0.988563,0
0.175632,0.172611,1.942777,0.019638,-0.123266,0.982098,0.989999,0
0.23158,0.055947,1.942404,0.018911,-0.123266,0.981124,0.989017,0
0.260513,0.028934,1.942128,0.020123,-0.123749,0.980636,0.988618,0
0.300678,0.040165,1.941481,0.021093,-0.123508,0.980392,0.988366,0
0.333512,0.032834,1.940944,0.019881,-0.123749,0.982586,0.990547,0
0.366644,0.033132,1.940579,0.019881,-0.122784,0.982342,0.990185,0
0.400366,0.033722,1.940354,0.02085,-0.123025,0.982342,0.990235,0
0.438232,0.037866,1.940103,0.02085,-0.123266,0.979905,0.987848,0
0.478123,0.039891,1.939747,0.020365,-0.121819,0.979174,0.986933,0
0.516737,0.038614,1.939423,0.019638,-0.123508,0.981367,0.989304,0
0.549751,0.033014,1.939106,0.019396,-0.123266,0.981855,0.989752,0
0.580595,0.030844,1.938833,0.020365,-0.122543,0.98088,0.988715,0
0.621384,0.040789,1.938607,0.021335,-0.123508,0.981855,0.989822,0
0.654547,0.033163,1.938517,0.020123,-0.184538,0.981124,0.99853,0
0.695558,0.041011,1.938235,0.02085,-0.123749,0.981124,0.989117,0
0.74825,0.052692,1.938016,0.021578,-0.12399,0.982829,0.990855,0
0.797504,0.049254,1.937919,0.020123,-0.124231,0.980149,0.988195,0
0.825826,0.028322,1.938002,0.019396,-0.122302,0.983073,0.990841,0
0.862381,0.036555,1.937683,0.020365,-0.062478,0.980392,0.982592,0
0.907306,0.044925,1.937719,0.020123,-0.062236,0.981611,0.983788,0
0.944751,0.037445,1.937895,0.020608,-0.123025,0.982829,0.990714,0
0.98072,0.035969,1.937759,0.021578,-0.123025,0.981367,0.989284,0
1.067575,0.086855,1.937899,0.019881,-0.123266,0.982586,0.990487,0
1.10717,0.039596,1.938068,0.020123,-0.12206,0.982829,0.990584,0
1.140378,0.033208,1.938172,0.021578,-0.123025,0.982586,0.990493,0
1.169079,0.028701,1.938003,0.019881,-0.124714,0.983804,0.991877,0
1.206696,0.037617,1.937764,0.02085,-0.122784,0.982829,0.990689,0
1.244945,0.038249,1.937493,0.019881,-0.12399,0.982342,0.990336,0
1.284629,0.039685,1.937351,0.019881,-0.123025,0.983561,0.991424,0
1.334236,0.049607,1.937292,0.020365,-0.121578,0.982829,0.99053,0
1.362801,0.028565,1.937253,0.021093,-0.123025,0.983561,0.991449,0
1.401082,0.038281,1.937195,0.020365,-0.123266,0.984048,0.991947,0
1.437463,0.036381,1.937448,0.02182,-0.122543,0.981611,0.989471,0
1.472842,0.035379,1.937468,0.019638,-0.124231,0.984048,0.992053,0
1.508414,0.035572,1.937373,0.021335,-0.121578,0.982586,0.990309,0
1.54135,0.032936,1.937215,0.02182,-0.123266,0.985754,0.993671,0
1.576035,0.034685,1.937093,0.019638,-0.123749,0.985023,0.99296,0
1.611423,0.035388,1.936925,0.021335,-0.062236,0.983804,0.986002,0
1.652357,0.040934,1.936602,0.021578,-0.121819,0.984779,0.99252,0
1.693496,0.041139,1.936293,0.022305,-0.123025,0.984535,0.992443,0
1.736969,0.043473,1.936153,0.020365,-0.123266,0.984535,0.992431,0
1.776104,0.039135,1.93587,0.020365,-0.061995,0.984292,0.986452,0
1.810499,0.034395,1.935697,0.02085,-0.123508,0.984779,0.992713,0
1.853027,0.042528,1.935188,0.022305,-0.063442,0.984048,0.986343,0
1.892614,0.039587,1.934904,0.020123,-0.123266,0.985023,0.992909,0
1.92172,0.029106,1.934488,0.02085,-0.061754,0.984048,0.986204,0
1.966461,0.044742,1.934231,0.020608,-0.062236,0.984048,0.986229,0
2.001822,0.03536,1.934336,0.020608,-0.122302,0.984779,0.992558,0
2.029624,0.027802,1.934562,0.021093,-0.123508,0.98551,0.993443,0
2.058732,0.029108,1.935039,0.021093,-0.184779,0.98551,1.002905,0
2.093194,0.034462,1.935332,0.02085,-0.121337,0.985023,0.992687,0
2.129153,0.035959,1.935696,0.02085,-0.123266,0.984048,0.991957,0
2.154449,0.025296,1.93604,0.021335,-0.122302,0.985754,0.993541,0
2.196842,0.042393,1.936239,0.020123,-0.122784,0.985754,0.993575,0
2.231295,0.034453,1.936972,0.021335,-0.18502,0.982586,1.000081,0
2.273162,0.041867,1.937411,0.020608,-0.123508,0.983804,0.991741,0
2.307417,0.034255,1.937909,0.020365,-0.123266,0.982829,0.990739,0
2.34673,0.039314,1.938285,0.02182,-0.122784,0.983073,0.990951,0
2.378677,0.031946,1.938996,0.02085,-0.18502,0.984535,1.001986,0
2.410891,0.032214,1.939822,0.019881,-0.123025,0.984535,0.992391,0
2.446138,0.035247,1.940097,0.020608,-0.123025,0.983317,0.991197,0
2.484041,0.037903,1.940043,0.021093,-0.122543,0.982098,0.989939,0
2.525524,0.041484,1.939871,0.021335,-0.12399,0.984535,0.992541,0
2.571334,0.045809,1.939631,0.021093,-0.123508,0.983317,0.991267,0
2.612647,0.041314,1.939367,0.021335,-0.12399,0.984048,0.992058,0
2.64744,0.034792,1.938905,0.021335,-0.062478,0.983073,0.985287,0
2.681819,0.03438,1.938734,0.020123,-0.122543,0.984535,0.992336,0
2.716766,0.034947,1.938655,0.020123,-0.123266,0.983073,0.990975,0
2.749068,0.032301,1.938588,0.020608,-0.123266,0.982829,0.990744,0
2.783632,0.034564,1.938549,0.020365,-0.12206,0.983317,0.991073,0
2.82006,0.036428,1.938292,0.02182,-0.122784,0.984292,0.99216,0
2.855612,0.035551,1.938113,0.021578,-0.123508,0.982586,0.990553,0
2.889412,0.033801,1.937992,0.02085,-0.123508,0.982098,0.990054,0
2.923755,0.034343,1.938027,0.021578,-0.123266,0.983804,0.991731,0
2.957985,0.03423,1.938292,0.02182,-0.183573,0.982829,1.000064,0
2.995208,0.037222,1.938218,0.020608,-0.122784,0.983073,0.990925,0
3.029659,0.034451,1.938131,0.020365,-0.124473,0.984292,0.99234,0
3.06247,0.032812,1.938129,0.021335,-0.184055,0.983804,1.0011,0
3.098096,0.035625,1.937819,0.02085,-0.122543,0.982586,0.990417,0
3.135791,0.037695,1.937379,0.020365,-0.061995,0.984535,0.986695,0
3.165934,0.030143,1.937225,0.021093,-0.123749,0.984292,0.992264,0
3.202154,0.036221,1.937196,0.020608,-0.12206,0.982829,0.990594,0
3.236028,0.033874,1.937436,0.020365,-0.184538,0.983561,1.00093,0
3.274304,0.038276,1.937376,0.02085,-0.123749,0.982829,0.990809,0
3.309419,0.035115,1.937343,0.019881,-0.123025,0.983561,0.991424,0
3.343727,0.034308,1.937308,0.019881,-0.123266,0.981611,0.98952,0
3.393035,0.049308,1.937432,0.020365,-0.183573,0.982342,0.999555,0
3.427176,0.034141,1.9375,0.019638,-0.122543,0.983317,0.991118,0
3.462431,0.035254,1.937723,0.020365,-0.12399,0.981855,0.989862,0
3.501464,0.039033,1.937926,0.020608,-0.123749,0.982342,0.99032,0
3.540259,0.038795,1.93823,0.02182,-0.12399,0.982586,0.990618,0
3.588465,0.048207,1.93815,0.020123,-0.061995,0.982342,0.984502,0
3.626628,0.038163,1.937926,0.021578,-0.122543,0.983804,0.991642,0
3.665864,0.039235,1.937666,0.020608,-0.061995,0.98088,0.983053,0
3.702783,0.036919,1.937979,0.019396,-0.123025,0.983804,0.991656,0
3.73587,0.033087,1.938406,0.020365,-0.123508,0.982098,0.990043,0
3.771224,0.035353,1.938498,0.019881,-0.061995,0.982829,0.984983,0
3.808321,0.037097,1.938756,0.020365,-0.123025,0.979905,0.987808,0
3.840126,0.031806,1.939102,0.021093,-0.123508,0.981855,0.989817,0
3.876516,0.03639,1.93959,0.020365,-0.124473,0.981611,0.989681,0
3.910473,0.033957,1.940203,0.02085,-0.122302,0.982829,0.990629,0
3.948327,0.037853,1.940767,0.020123,-0.122302,0.982098,0.989889,0
3.989129,0.040802,1.941239,0.020365,-0.123025,0.982098,0.989983,0
4.0287,0.039571,1.941701,0.021093,-0.122543,0.983073,0.990906,0
4.074308,0.045608,1.94184,0.019881,-0.122784,0.981855,0.989702,0
4.111012,0.036704,1.941891,0.021578,-0.123266,0.980636,0.988589,0
4.159104,0.048092,1.942008,0.020365,-0.12206,0.982342,0.990106,0
4.20556,0.046456,1.942168,0.02085,-0.123266,0.981367,0.989298,0
4.239628,0.034069,1.941965,0.02085,-0.062236,0.982586,0.984775,0
4.278719,0.039091,1.941764,0.019638,-0.123749,0.982586,0.990542,0
4.308465,0.029746,1.942125,0.020608,-0.122543,0.980636,0.988478,0
4.34174,0.033275,1.941965,0.022547,-0.123025,0.98088,0.988822,0
4.376841,0.035101,1.942053,0.020608,-0.123749,0.981611,0.989595,0
4.409136,0.032295,1.941804,0.019881,-0.061754,0.982829,0.984968,0
4.451195,0.042059,1.941936,0.021578,-0.123266,0.982829,0.990764,0
4.483653,0.032457,1.941857,0.021578,-0.123025,0.981855,0.989767,0
4.516995,0.033343,1.941618,0.019881,-0.122784,0.982586,0.990427,0
4.550846,0.033851,1.941373,0.02085,-0.12206,0.982098,0.989874,0
4.58723,0.036384,1.94173,0.021093,-0.122543,0.982342,0.990181,0
4.621037,0.033807,1.942219,0.021093,-0.123266,0.981611,0.989545,0
4.658235,0.037199,1.942888,0.021093,-0.184779,0.982829,1.000271,0
4.688214,0.029979,1.943027,0.019638,-0.123025,0.982586,0.990452,0
4.732087,0.043873,1.943638,0.019881,-0.184055,0.983073,1.000352,0
4.768133,0.036046,1.943595,0.021335,-0.123749,0.981855,0.989852,0
4.804045,0.035912,1.943577,0.02085,-0.062236,0.982586,0.984775,0
4.841066,0.03702,1.944643,0.019881,-0.184055,0.983804,1.001071,0
4.875133,0.034067,1.944592,0.019881,-0.121578,0.983561,0.991246,0
4.905381,0.030249,1.944267,0.02182,-0.122543,0.983317,0.991163,0
4.944585,0.039204,1.944233,0.019881,-0.12206,0.982098,0.989854,0
5.029856,0.085271,1.94421,0.021578,-0.123508,0.983317,0.991278,0
5.071202,0.041346,1.944361,0.02085,-0.12206,0.982342,0.990116,0
5.10644,0.035238,1.94485,0.020608,-0.123266,0.984292,0.992194,0
5.153468,0.047028,1.945214,0.019638,-0.122543,0.983073,0.990876,0
5.195669,0.042202,1.945762,0.020123,-0.123266,0.982586,0.990492,0
5.233938,0.038268,1.946166,0.020608,-0.124231,0.983073,0.991106,0
5.269656,0.035718,1.946402,0.02085,-0.123508,0.983561,0.991504,0
5.305478,0.035822,1.946532,0.019881,-0.123508,0.983804,0.991726,0
5.350678,0.045201,1.946571,0.021578,-0.123266,0.983073,0.991006,0
5.396833,0.046155,1.947125,0.019881,-0.18502,0.983073,1.00053,0
5.440487,0.043653,1.947432,0.021335,-0.122784,0.983073,0.990941,0
5.484148,0.043661,1.947745,0.023032,-0.123025,0.984048,0.991976,0
5.527274,0.043126,1.948542,0.019396,-0.184779,0.983317,1.000715,0
5.563665,0.036391,1.949081,0.020123,-0.124231,0.981855,0.989887,0
5.597384,0.033719,1.949396,0.022063,-0.12399,0.981611,0.989657,0
5.632442,0.035058,1.950027,0.02182,-0.12399,0.981855,0.989893,0
5.672941,0.0405,1.95043,0.020365,-0.122302,0.982098,0.989894,0
5.709199,0.036258,1.950421,0.020608,-0.12399,0.983804,0.991801,0
5.739679,0.03048,1.950217,0.02085,-0.122543,0.983073,0.990901,0
5.773156,0.033477,1.949944,0.020608,-0.122543,0.982829,0.990654,0
5.805546,0.03239,1.949778,0.020123,-0.122302,0.982829,0.990614,0
5.837161,0.031615,1.949669,0.018668,-0.123749,0.98088,0.988831,0
5.873595,0.036434,1.949617,0.02085,-0.122784,0.982829,0.990689,0
5.901214,0.027619,1.949463,0.02182,-0.123508,0.981611,0.989591,0
5.93431,0.033096,1.949252,0.022305,-0.123025,0.981855,0.989783,0
5.962645,0.028335,1.949088,0.020123,-0.122302,0.982098,0.989889,0
6.000904,0.038259,1.948919,0.019638,-0.122784,0.982829,0.990664,0
6.03846,0.037556,1.948913,0.020365,-0.122302,0.983317,0.991103,0
6.085801,0.047341,1.949219,0.020123,-0.123508,0.982586,0.990522,0
6.12195,0.036149,1.949314,0.021578,-0.124473,0.981855,0.989948,0
6.160205,0.038255,1.949167,0.020608,-0.122543,0.983804,0.991621,0
6.214423,0.054218,1.94888,0.020608,-0.122784,0.981124,0.988991,0
6.250255,0.035832,1.948363,0.022063,-0.123025,0.983073,0.990987,0
6.279445,0.029191,1.947835,0.020608,-0.184538,0.982829,1.000216,0
6.315652,0.036207,1.947062,0.021093,-0.122543,0.983317,0.991148,0
6.352201,0.036549,1.946635,0.020608,-0.123025,0.981367,0.989263,0
6.392207,0.040006,1.946069,0.021093,-0.123025,0.983073,0.990966,0
6.420098,0.027891,1.945759,0.020608,-0.124231,0.983317,0.991348,0
6.457334,0.037236,1.94549,0.021093,-0.121819,0.982829,0.990575,0
6.492484,0.03515,1.945195,0.019881,-0.124473,0.983073,0.991121,0
6.527493,0.035009,1.945393,0.021093,-0.122784,0.983073,0.990936,0
6.562705,0.035212,1.945197,0.021335,-0.122543,0.983561,0.991395,0
6.605626,0.042921,1.945116,0.02085,-0.123266,0.984048,0.991957,0
6.681064,0.075438,1.944884,0.021578,-0.122784,0.983317,0.991188,0
6.717002,0.035938,1.944889,0.020365,-0.122543,0.982098,0.989924,0
6.753585,0.036583,1.944924,0.021093,-0.123266,0.984535,0.992446,0
6.788234,0.034649,1.944956,0.02085,-0.122543,0.983804,0.991626,0
6.83086,0.042626,1.944974,0.020365,-0.123025,0.98088,0.988775,0
6.86746,0.036599,1.944894,0.021093,-0.122302,0.982586,0.990392,0
6.913021,0.045561,1.94478,0.021578,-0.123508,0.983561,0.99152,0
6.952159,0.039138,1.9448,0.02085,-0.122784,0.984535,0.992381,0
6.986445,0.034286,1.94453,0.021093,-0.123749,0.98551,0.993473,0
7.023889,0.037444,1.944174,0.020608,-0.123749,0.983804,0.991771,0
7.06461,0.04072,1.944308,0.022063,-0.123508,0.983804,0.991772,0
7.103292,0.038682,1.944158,0.021093,-0.123749,0.982342,0.990331,0
7.139716,0.036424,1.944081,0.02182,-0.121578,0.984048,0.99177,0
7.178244,0.038528,1.944107,0.019638,-0.124231,0.982098,0.990119,0
7.223901,0.045656,1.943835,0.021093,-0.123025,0.982829,0.990724,0
7.270148,0.046247,1.943616,0.021335,-0.12399,0.984048,0.992058,0
7.318221,0.048074,1.94355,0.020608,-0.123025,0.983073,0.990955,0
7.350488,0.032267,1.94346,0.02085,-0.122784,0.984048,0.991898,0
7.387326,0.036838,1.94324,0.02085,-0.123025,0.982829,0.990719,0
7.418474,0.031148,1.942981,0.019396,-0.12206,0.984292,0.992021,0
7.444585,0.026111,1.942567,0.019881,-0.123025,0.984048,0.991908,0
7.47586,0.031275,1.942448,0.020608,-0.122302,0.984535,0.992317,0
7.509144,0.033283,1.942313,0.020608,-0.124714,0.983804,0.991892,0
7.537163,0.028019,1.942039,0.021578,-0.123508,0.984535,0.992486,0
7.568311,0.031148,1.941522,0.021093,-0.061754,0.984292,0.986452,0
7.616017,0.047706,1.941101,0.021093,-0.061995,0.985266,0.98744,0
7.646306,0.030289,1.941022,0.019881,-0.124231,0.983317,0.991333,0
7.680219,0.033913,1.941145,0.021578,-0.12399,0.983317,0.991338,0
7.716019,0.0358,1.941288,0.020608,-0.124231,0.98551,0.993523,0
7.747982,0.031962,1.941463,0.020123,-0.123025,0.985266,0.993121,0
7.780889,0.032907,1.941669,0.020123,-0.122543,0.984779,0.992578,0
7.817316,0.036427,1.941779,0.020123,-0.123266,0.984292,0.992184,0
7.863948,0.046632,1.9417,0.021093,-0.124231,0.985023,0.99305,0
7.904813,0.040865,1.942037,0.021335,-0.122543,0.983317,0.991153,0
7.945925,0.041111,1.942332,0.020608,-0.122784,0.984048,0.991893,0
7.985435,0.03951,1.942619,0.020123,-0.124473,0.985997,0.994027,0
8.026651,0.041216,1.943008,0.022063,-0.124231,0.984535,0.992587,0
8.066394,0.039743,1.943555,0.019638,-0.122543,0.982586,0.990392,0
8.103877,0.037483,1.943559,0.021093,-0.062236,0.983073,0.985267,0
8.14174,0.037863,1.943616,0.021578,-0.123266,0.984048,0.991973,0
8.184421,0.042681,1.943396,0.021578,-0.122543,0.984292,0.992125,0
8.231966,0.047545,1.943215,0.021335,-0.061995,0.985023,0.987202,0
8.265378,0.033412,1.943386,0.021335,-0.123266,0.985266,0.993176,0
8.300317,0.03494,1.943667,0.021578,-0.123508,0.984048,0.992003,0
8.338301,0.037984,1.944239,0.02085,-0.184779,0.985023,1.002421,0
8.377408,0.039107,1.944786,0.021335,-0.123508,0.984779,0.992723,0
8.425028,0.047619,1.944833,0.019638,-0.123508,0.984779,0.992688,0
8.475036,0.050008,1.945132,0.019881,-0.183814,0.985023,1.002224,0
8.527897,0.052861,1.94508,0.019638,-0.123025,0.984779,0.992628,0
8.585791,0.057894,1.944983,0.021093,-0.123025,0.984292,0.992174,0
8.625167,0.039376,1.94496,0.018911,-0.122543,0.985023,0.992796,0
8.655164,0.029997,1.945087,0.020365,-0.122543,0.984779,0.992583,0
8.69177,0.036606,1.945289,0.02182,-0.061995,0.985023,0.987213,0
8.727628,0.035858,1.945706,0.02085,-0.122784,0.985023,0.992865,0
8.760862,0.033233,1.946259,0.019638,-0.18502,0.985023,1.002441,0
8.801435,0.040573,1.946174,0.02085,-0.123025,0.984779,0.992653,0
8.828949,0.027514,1.946144,0.02085,-0.123266,0.985266,0.993166,0
8.864273,0.035324,1.946159,0.020365,-0.123749,0.984779,0.992733,0
8.906566,0.042293,1.945946,0.021093,-0.124231,0.984779,0.992808,0
8.933601,0.027035,1.946004,0.021093,-0.122784,0.982342,0.99021,0
8.973208,0.039607,1.945982,0.020608,-0.123266,0.983317,0.991227,0
9.007235,0.034027,1.945844,0.019638,-0.123749,0.982586,0.990542,0
9.043445,0.03621,1.946097,0.02085,-0.18502,0.984048,1.001508,0
9.082723,0.039278,1.945971,0.02085,-0.122784,0.983561,0.991414,0
9.121163,0.03844,1.945794,0.021093,-0.123025,0.983561,0.991449,0
9.157168,0.036005,1.945688,0.021335,-0.123025,0.983073,0.990971,0
9.198482,0.041315,1.945263,0.02085,-0.123749,0.984535,0.992501,0
9.235778,0.037295,1.944879,0.021578,-0.123025,0.982829,0.990734,0
9.283893,0.048115,1.94494,0.021093,-0.184779,0.983804,1.001229,0
9.329693,0.0458,1.944837,0.020365,-0.123266,0.984292,0.992189,0
9.361473,0.03178,1.945058,0.020608,-0.122784,0.983804,0.991651,0
9.405447,0.043974,1.945078,0.02085,-0.122302,0.984292,0.99208,0
9.442146,0.036699,1.945183,0.019881,-0.121819,0.984048,0.991759,0
9.476465,0.034319,1.945367,0.02085,-0.123508,0.982829,0.990779,0
9.509136,0.03267,1.945458,0.019396,-0.122784,0.984535,0.992352,0
9.548606,0.03947,1.945814,0.021335,-0.12399,0.983561,0.991575,0
9.580037,0.031431,1.945848,0.020365,-0.122302,0.983073,0.990861,0
9.620331,0.040295,1.945764,0.019638,-0.121819,0.984048,0.991754,0
9.65025,0.029919,1.945729,0.02085,-0.121578,0.983073,0.990782,0
9.684066,0.033816,1.945646,0.020608,-0.12206,0.983804,0.991561,0
9.719228,0.035161,1.945429,0.02085,-0.123508,0.984292,0.992229,0
9.759273,0.040045,1.945221,0.019881,-0.123508,0.982829,0.990759,0
9.792912,0.033639,1.945159,0.020608,-0.12206,0.984048,0.991803,0
9.835505,0.042593,1.944999,0.021093,-0.184297,0.983804,1.00114,0
9.868369,0.032864,1.944504,0.021093,-0.123025,0.983561,0.991449,0
9.901918,0.03355,1.944105,0.020123,-0.061995,0.983804,0.985961,0
9.938111,0.036192,1.94436,0.02182,-0.184297,0.982586,0.999958,0
9.975336,0.037225,1.944222,0.022063,-0.12399,0.983804,0.991832,0
10.006311,0.030976,1.944218,0.019638,-0.123266,0.984048,0.991933,0
10.046687,0.040376,1.944041,0.021335,-0.12399,0.985266,0.993267,0
10.095085,0.048398,1.944065,0.020365,-0.122302,0.982829,0.990619,0
10.132652,0.037567,1.944113,0.022063,-0.123749,0.984048,0.992044,0
10.166176,0.033524,1.944086,0.020123,-0.123508,0.983804,0.991731,0
10.213308,0.047132,1.944294,0.020608,-0.12399,0.983317,0.991317,0
10.252749,0.039441,1.944439,0.020365,-0.123025,0.983561,0.991434,0
10.293575,0.040826,1.944302,0.02085,-0.061754,0.984535,0.98669,0
10.332917,0.039341,1.944223,0.020123,-0.12399,0.98551,0.993483,0
10.365145,0.032228,1.943978,0.02182,-0.123266,0.984048,0.991978,0
10.400008,0.034864,1.943739,0.019638,-0.123508,0.983561,0.991479,0
10.442947,0.042939,1.943591,0.019638,-0.123266,0.984048,0.991933,0
10.485335,0.042387,1.943525,0.02182,-0.122784,0.983317,0.991193,0
10.530226,0.044892,1.943463,0.02085,-0.123508,0.985266,0.993196,0
10.567763,0.037537,1.943445,0.021093,-0.124714,0.985997,0.994077,0
10.59402,0.026256,1.943516,0.022063,-0.123025,0.984535,0.992437,0
10.626789,0.032769,1.943833,0.021093,-0.123025,0.985023,0.9929,0
10.660562,0.033773,1.944142,0.021335,-0.123025,0.982342,0.990246,0
10.69112,0.030558,1.944314,0.02085,-0.124714,0.983804,0.991897,0
10.72998,0.03886,1.944345,0.020123,-0.123266,0.984779,0.992668,0
10.770564,0.040584,1.944265,0.020608,-0.123508,0.984292,0.992224,0
10.804204,0.03364,1.944047,0.020365,-0.123025,0.984292,0.992159,0
10.852834,0.04863,1.944145,0.020123,-0.123025,0.985266,0.993121,0
10.886986,0.034152,1.944525,0.021335,-0.123508,0.985266,0.993206,0
10.917366,0.03038,1.945167,0.021335,-0.124231,0.984535,0.992572,0
10.957312,0.039946,1.94561,0.019153,-0.122302,0.983804,0.991562,0
10.98933,0.032017,1.946076,0.019396,-0.12206,0.984779,0.992504,0
11.025219,0.035889,1.946511,0.019396,-0.12399,0.983561,0.991535,0
11.056908,0.031689,1.947073,0.020365,-0.124231,0.983317,0.991343,0
11.09303,0.036122,1.947697,0.021578,-0.122784,0.984048,0.991913,0
11.129813,0.036783,1.94856,0.021335,-0.123749,0.983317,0.991303,0
11.165843,0.036029,1.948921,0.02085,-0.123025,0.982829,0.990719,0
11.213451,0.047609,1.949102,0.021335,-0.122543,0.983073,0.990911,0
11.273631,0.06018,1.949405,0.021335,-0.123025,0.984535,0.992421,0
11.321497,0.047866,1.949785,0.019396,-0.122302,0.984292,0.99205,0
11.378284,0.056787,1.949793,0.019638,-0.123025,0.983804,0.991661,0
11.417608,0.039324,1.949714,0.020365,-0.123749,0.984779,0.992733,0
11.465715,0.048106,1.949723,0.020365,-0.123025,0.98551,0.993368,0
11.512172,0.046458,1.949879,0.020123,-0.184538,0.983073,1.000446,0
11.559512,0.04734,1.949633,0.021093,-0.123025,0.983317,0.991207,0
11.6027,0.043187,1.949834,0.021093,-0.123025,0.985266,0.993141,0
11.65992,0.057221,1.95003,0.020365,-0.122784,0.983804,0.991646,0
11.708089,0.048168,1.9505,0.019638,-0.123025,0.982586,0.990452,0
11.746318,0.038229,1.950602,0.021335,-0.123749,0.983561,0.991544,0
11.783261,0.036943,1.950541,0.020365,-0.122784,0.983804,0.991646,0
11.823331,0.04007,1.950387,0.020123,-0.123266,0.984535,0.992426,0
11.874021,0.05069,1.950125,0.02085,-0.12206,0.984535,0.992292,0
11.910846,0.036825,1.949876,0.02085,-0.123266,0.984535,0.992441,0
11.945981,0.035135,1.949674,0.019881,-0.12399,0.983561,0.991544,0
11.98427,0.038289,1.949278,0.019881,-0.122784,0.984048,0.991878,0
12.019531,0.035261,1.94878,0.019396,-0.123508,0.984779,0.992683,0
12.057753,0.038222,1.94826,0.020608,-0.12399,0.984048,0.992043,0
12.102575,0.044822,1.94775,0.020365,-0.122784,0.984292,0.992129,0
12.142359,0.039784,1.947675,0.020123,-0.123025,0.983317,0.991187,0
12.174246,0.031887,1.947687,0.02182,-0.122543,0.983804,0.991647,0
12.205424,0.031178,1.947525,0.021335,-0.123266,0.985266,0.993176,0
12.241746,0.036322,1.94763,0.020123,-0.123749,0.984048,0.992003,0
12.2775,0.035754,1.947705,0.019881,-0.123266,0.983804,0.991696,0
12.304638,0.027138,1.947755,0.019396,-0.123266,0.982586,0.990477,0
12.337051,0.032413,1.94794,0.02085,-0.122784,0.985023,0.992865,0
12.372643,0.035593,1.948256,0.020608,-0.12399,0.985266,0.993251,0
12.414504,0.04186,1.9486,0.020365,-0.12206,0.985023,0.992765,0
12.46695,0.052447,1.948777,0.020365,-0.184297,0.983561,1.000885,0
12.504206,0.037256,1.94843,0.019396,-0.122302,0.983317,0.991083,0
12.548599,0.044393,1.948043,0.021578,-0.12399,0.984779,0.992788,0
12.590488,0.04189,1.947722,0.019396,-0.123749,0.983073,0.991021,0
12.623168,0.032679,1.947343,0.02085,-0.123025,0.983561,0.991444,0
12.661083,0.037915,1.947221,0.020608,-0.123508,0.982829,0.990774,0
12.697931,0.036848,1.946953,0.02085,-0.12399,0.983317,0.991322,0
12.736239,0.038308,1.946743,0.02085,-0.123508,0.984535,0.992471,0
12.768775,0.032536,1.946569,0.019396,-0.123749,0.981611,0.989571,0
12.801136,0.032362,1.94655,0.02085,-0.122784,0.983561,0.991414,0
12.830979,0.029843,1.946685,0.02182,-0.122302,0.984292,0.992101,0
12.869276,0.038297,1.94717,0.020123,-0.123508,0.983561,0.991489,0
12.907937,0.03866,1.947749,0.02085,-0.123266,0.985266,0.993166,0
12.94129,0.033353,1.94779,0.020123,-0.122784,0.985266,0.993091,0
12.980181,0.038891,1.947863,0.020365,-0.122543,0.983073,0.990891,0
13.017292,0.037111,1.947602,0.020123,-0.122784,0.985266,0.993091,0
13.048088,0.030796,1.947487,0.020365,-0.123508,0.984535,0.992461,0
13.081192,0.033104,1.947481,0.02085,-0.123508,0.984535,0.992471,0
13.118716,0.037524,1.947421,0.019396,-0.123266,0.983317,0.991203,0
13.157697,0.038982,1.947359,0.02182,-0.123266,0.983561,0.991495,0
13.193154,0.035457,1.947202,0.020365,-0.122302,0.982586,0.990377,0
13.222534,0.029379,1.94739,0.021578,-0.12206,0.983317,0.991098,0
13.257149,0.034615,1.947247,0.02085,-0.124473,0.984048,0.992108,0
13.282938,0.025789,1.947263,0.019881,-0.123266,0.983317,0.991212,0
13.313236,0.030298,1.947681,0.021093,-0.123749,0.983561,0.991539,0
13.346296,0.033059,1.947846,0.020365,-0.123025,0.985266,0.993126,0
13.379201,0.032905,1.947957,0.02085,-0.123749,0.984535,0.992501,0
13.418923,0.039722,1.94815,0.022063,-0.123508,0.984292,0.992255,0
13.453027,0.034105,1.948146,0.02085,-0.122302,0.984535,0.992322,0
13.488681,0.035653,1.948076,0.020365,-0.123025,0.984535,0.992401,0
13.521313,0.032633,1.948013,0.020365,-0.12399,0.984292,0.992279,0
13.556441,0.035128,1.947866,0.020608,-0.061754,0.984292,0.986442,0
13.594466,0.038025,1.947375,0.02085,-0.061995,0.982342,0.984517,0
13.641175,0.046708,1.947106,0.02085,-0.123508,0.984048,0.991987,0
13.678508,0.037333,1.946921,0.02085,-0.124955,0.984292,0.99241,0
13.71366,0.035152,1.946779,0.020365,-0.123508,0.984779,0.992703,0
13.757815,0.044155,1.946845,0.021093,-0.12399,0.984048,0.992053,0
13.793209,0.035394,1.946819,0.020123,-0.123025,0.984535,0.992396,0
13.826717,0.033508,1.946795,0.020608,-0.122784,0.985023,0.99286,0
13.859961,0.033244,1.946739,0.02085,-0.123508,0.983561,0.991504,0
13.899071,0.039111,1.946943,0.020608,-0.183573,0.984292,1.001476,0
13.929595,0.030524,1.946901,0.020123,-0.123266,0.983073,0.990975,0
13.963472,0.033877,1.946754,0.019396,-0.122302,0.984535,0.992292,0
13.99898,0.035508,1.946506,0.021578,-0.123025,0.983317,0.991218,0
14.04546,0.04648,1.946411,0.021578,-0.18502,0.983804,1.001284,0
14.080822,0.035362,1.94639,0.02182,-0.184297,0.982586,0.999958,0
14.121081,0.040259,1.946116,0.019881,-0.123266,0.985023,0.992905,0
14.162815,0.041734,1.946038,0.021093,-0.123025,0.984048,0.991933,0
14.205274,0.042459,1.945624,0.019396,-0.123749,0.983561,0.991505,0
14.25717,0.051896,1.945443,0.020365,-0.122543,0.985266,0.993067,0
14.293667,0.036496,1.945788,0.020123,-0.123508,0.984779,0.992698,0
14.333216,0.03955,1.946642,0.020123,-0.123266,0.984292,0.992184,0
14.371244,0.038028,1.947192,0.02085,-0.062236,0.985266,0.98745,0
14.410358,0.039114,1.947953,0.020608,-0.183814,0.983317,1.000562,0
14.45564,0.045282,1.948291,0.020365,-0.123266,0.983561,0.991464,0
14.49796,0.042321,1.948523,0.019881,-0.123508,0.984535,0.992451,0
14.527071,0.02911,1.948557,0.02085,-0.12399,0.984535,0.992531,0
14.566196,0.039125,1.949064,0.020123,-0.122784,0.984292,0.992124,0
14.598911,0.032715,1.949703,0.020365,-0.062478,0.983073,0.985267,0
14.635271,0.03636,1.950287,0.020123,-0.123025,0.984779,0.992638,0
14.671167,0.035896,1.950644,0.021578,-0.123749,0.985266,0.993242,0
14.709138,0.037971,1.950797,0.021335,-0.124231,0.983073,0.991121,0
14.738407,0.029269,1.950802,0.020608,-0.122784,0.982586,0.990442,0
14.773508,0.035101,1.950844,0.02085,-0.123025,0.982342,0.990235,0
14.808295,0.034787,1.951064,0.020123,-0.123025,0.984292,0.992154,0
14.843534,0.035238,1.950869,0.020365,-0.123749,0.985266,0.993216,0
14.877567,0.034033,1.95074,0.019881,-0.123266,0.984048,0.991938,0
14.916667,0.0391,1.95069,0.022063,-0.122784,0.98551,0.993374,0
14.946786,0.03012,1.950645,0.020365,-0.123266,0.985266,0.993156,0
14.985236,0.038449,1.950524,0.021093,-0.123266,0.98551,0.993413,0
15.020473,0.035237,1.949985,0.020608,-0.124955,0.981855,0.989988,0
15.057412,0.036939,1.949505,0.019396,-0.123025,0.983317,0.991173,0
15.084033,0.026621,1.949123,0.019153,-0.12206,0.98551,0.993225,0
15.118223,0.03419,1.949289,0.021093,-0.184297,0.985754,1.003056,0
15.14757,0.029347,1.949226,0.020608,-0.123266,0.984048,0.991952,0
15.181932,0.034363,1.949027,0.020365,-0.123749,0.981611,0.98959,0
15.221181,0.039249,1.949211,0.021335,-0.123266,0.984048,0.991968,0
15.255004,0.033823,1.949361,0.021335,-0.18502,0.983561,1.001039,0
15.291787,0.036782,1.949081,0.018911,-0.123025,0.983073,0.990922,0
15.325171,0.033385,1.948722,0.020365,-0.123749,0.983804,0.991766,0
15.365661,0.04049,1.948497,0.02085,-0.12399,0.983804,0.991806,0
15.401181,0.035519,1.948391,0.019881,-0.123025,0.982098,0.989974,0
15.435163,0.033983,1.94843,0.019638,-0.123266,0.984048,0.991933,0
15.472481,0.037318,1.948503,0.018911,-0.122302,0.983317,0.991074,0
15.50199,0.02951,1.948709,0.020608,-0.122784,0.983317,0.991167,0
15.543388,0.041398,1.949083,0.020365,-0.123266,0.984535,0.992431,0
15.576454,0.033066,1.949361,0.019881,-0.12399,0.982342,0.990336,0
15.610818,0.034364,1.949682,0.019881,-0.123749,0.984048,0.991998,0
15.645775,0.034957,1.949727,0.019881,-0.122784,0.982342,0.990185,0
15.68124,0.035465,1.949765,0.020365,-0.122784,0.982342,0.990195,0
15.720186,0.038946,1.949373,0.020608,-0.061995,0.984048,0.986214,0
15.762046,0.04186,1.949687,0.019638,-0.123266,0.984048,0.991933,0
15.801245,0.039199,1.950089,0.019396,-0.18502,0.983804,1.001239,0
15.83353,0.032285,1.950294,0.021093,-0.12399,0.984779,0.992778,0
15.869415,0.035885,1.950258,0.021093,-0.12399,0.984292,0.992294,0
15.905509,0.036094,1.950187,0.02085,-0.12206,0.984535,0.992292,0
15.934261,0.028752,1.949905,0.020608,-0.123749,0.985266,0.993221,0
15.962817,0.028556,1.949626,0.020608,-0.122784,0.985266,0.993101,0
15.990098,0.027281,1.949353,0.020123,-0.123266,0.985023,0.992909,0
16.024388,0.03429,1.949167,0.020608,-0.123266,0.983561,0.991469,0
16.061009,0.036621,1.949066,0.02085,-0.123508,0.985023,0.992954,0
16.09558,0.034571,1.948919,0.019881,-0.123025,0.983073,0.99094,0
16.13155,0.035969,1.948695,0.020608,-0.123266,0.983804,0.991711,0
16.167613,0.036063,1.948578,0.021093,-0.123508,0.984292,0.992234,0
16.204708,0.037095,1.948445,0.020123,-0.121578,0.984048,0.991734,0
16.241971,0.037263,1.948401,0.019881,-0.184779,0.98551,1.00288,0
16.284724,0.042752,1.948309,0.020365,-0.123508,0.98551,0.993428,0
16.31208,0.027356,1.948257,0.02085,-0.122543,0.983804,0.991626,0
16.349744,0.037664,1.94842,0.02182,-0.123266,0.983561,0.991495,0
16.385992,0.036248,1.948611,0.019638,-0.123266,0.984535,0.992416,0
16.415913,0.029921,1.948899,0.020365,-0.123266,0.983073,0.99098,0
16.453161,0.037248,1.9495,0.02085,-0.122543,0.984535,0.992351,0
16.489977,0.036817,1.950034,0.019638,-0.122302,0.984779,0.992539,0
16.525597,0.03562,1.950637,0.02085,-0.123749,0.982098,0.990084,0
16.556358,0.030761,1.951091,0.021335,-0.123025,0.985266,0.993147,0
16.589791,0.033433,1.95128,0.021093,-0.123508,0.983804,0.991751,0
16.631067,0.041276,1.951379,0.021335,-0.123749,0.985266,0.993236,0
16.666876,0.035809,1.95144,0.021578,-0.12399,0.984535,0.992547,0
16.696027,0.02915,1.95173,0.021093,-0.123025,0.984292,0.992174,0
16.733162,0.037135,1.951999,0.02182,-0.123025,0.983804,0.991707,0
16.765156,0.031995,1.952165,0.020123,-0.124231,0.984292,0.992305,0
16.799144,0.033987,1.952268,0.021093,-0.122543,0.985266,0.993082,0
16.835435,0.036292,1.952563,0.02085,-0.12399,0.984535,0.992531,0
16.868798,0.033363,1.952651,0.019881,-0.122784,0.98551,0.993328,0
16.902974,0.034176,1.952533,0.019881,-0.122543,0.984292,0.99209,0
16.939888,0.036913,1.952174,0.020123,-0.12399,0.984048,0.992033,0
16.978295,0.038407,1.951992,0.021093,-0.122543,0.983804,0.991631,0
17.015168,0.036874,1.95161,0.019396,-0.122543,0.984535,0.992322,0
17.042558,0.02739,1.951331,0.019396,-0.123266,0.983561,0.991444,0
17.08584,0.043283,1.95107,0.021093,-0.122784,0.984048,0.991903,0
17.115803,0.029963,1.950799,0.020365,-0.123508,0.983804,0.991736,0
17.14959,0.033787,1.950426,0.020365,-0.123025,0.983561,0.991434,0
17.186946,0.037356,1.949964,0.020123,-0.122784,0.983317,0.991157,0
17.222554,0.035609,1.949361,0.019881,-0.123266,0.983317,0.991212,0
17.252471,0.029917,1.94876,0.020365,-0.122784,0.983561,0.991404,0
17.301302,0.04883,1.948131,0.020608,-0.123508,0.985023,0.992949,0
17.346401,0.045099,1.947669,0.020123,-0.123508,0.983561,0.991489,0
17.374684,0.028284,1.947397,0.021093,-0.123266,0.982586,0.990512,0
17.408164,0.03348,1.947275,0.021093,-0.123749,0.984048,0.992023,0
17.443038,0.034874,1.947247,0.019881,-0.122302,0.983073,0.990851,0
17.488812,0.045774,1.94667,0.020365,-0.123508,0.984535,0.992461,0
17.515108,0.026296,1.94653,0.020123,-0.122784,0.983561,0.991399,0
17.55431,0.039202,1.946674,0.02085,-0.123508,0.982342,0.990295,0
17.590037,0.035727,1.946817,0.020123,-0.123749,0.983804,0.991761,0
17.626434,0.036397,1.946983,0.020123,-0.123749,0.982098,0.990069,0
17.670094,0.04366,1.947073,0.02279,-0.123266,0.984292,0.992242,0
17.713313,0.043219,1.947227,0.020123,-0.123025,0.983804,0.991671,0
17.759311,0.045999,1.947342,0.02085,-0.124231,0.984535,0.992561,0
17.811918,0.052606,1.947097,0.021578,-0.184055,0.983804,1.001106,0
17.845788,0.03387,1.947014,0.020365,-0.123025,0.984535,0.992401,0
17.880069,0.034281,1.946994,0.019881,-0.123025,0.983804,0.991666,0
17.911446,0.031377,1.946665,0.020365,-0.123508,0.983317,0.991252,0
17.960284,0.048838,1.946958,0.019881,-0.184779,0.983317,1.000725,0
18.0064,0.046116,1.94696,0.019396,-0.123266,0.984292,0.99217,0
18.036889,0.030489,1.946671,0.02085,-0.122784,0.984779,0.992623,0
18.070344,0.033456,1.946208,0.020365,-0.124473,0.984779,0.992823,0
18.113657,0.043313,1.945797,0.020123,-0.123508,0.984779,0.992698,0
18.1509,0.037243,1.945187,0.02085,-0.061995,0.985754,0.987921,0
18.188699,0.037799,1.945014,0.019638,-0.123266,0.984535,0.992416,0
18.231044,0.042345,1.94486,0.021335,-0.123749,0.984292,0.99227,0
18.264196,0.033152,1.944697,0.02085,-0.122784,0.985023,0.992865,0
18.30257,0.038374,1.944551,0.019881,-0.124714,0.984048,0.992118,0
18.334581,0.032011,1.94439,0.020123,-0.122543,0.985023,0.99282,0
18.367867,0.033286,1.9444,0.020123,-0.122302,0.984292,0.992065,0
18.407552,0.039684,1.944408,0.02085,-0.12399,0.984535,0.992531,0
18.439128,0.031576,1.944423,0.020365,-0.123025,0.983317,0.991192,0
18.484318,0.04519,1.944489,0.020123,-0.124231,0.986241,0.994238,0
18.514152,0.029834,1.944671,0.019396,-0.124231,0.984535,0.992532,0
18.549178,0.035026,1.944816,0.021335,-0.123025,0.985023,0.992905,0
18.589373,0.040196,1.945178,0.019638,-0.123266,0.984535,0.992416,0
18.625322,0.035949,1.945001,0.019638,-0.122784,0.984779,0.992598,0
18.657782,0.03246,1.945147,0.020365,-0.122543,0.983561,0.991374,0
18.69271,0.034928,1.945901,0.02085,-0.184779,0.983804,1.001224,0
18.723799,0.031089,1.946126,0.020608,-0.123749,0.982342,0.99032,0
18.758171,0.034373,1.945922,0.020365,-0.061995,0.984048,0.986209,0
18.796316,0.038145,1.946118,0.019638,-0.124231,0.983804,0.991811,0
18.833846,0.03753,1.946061,0.020365,-0.122784,0.984779,0.992613,0
18.873836,0.039989,1.945961,0.020608,-0.123266,0.983561,0.991469,0
18.90429,0.030454,1.945868,0.021093,-0.123749,0.982586,0.990572,0
18.944986,0.040696,1.945804,0.020365,-0.123508,0.982098,0.990043,0
18.978173,0.033187,1.945739,0.019881,-0.122302,0.983317,0.991093,0
19.011336,0.033163,1.94568,0.018668,-0.123508,0.983317,0.991219,0
19.049625,0.038289,1.945705,0.020608,-0.123508,0.983317,0.991257,0
19.084181,0.034556,1.946141,0.020365,-0.123266,0.983317,0.991222,0
19.116385,0.032204,1.946097,0.020123,-0.123025,0.983804,0.991671,0
19.157203,0.040818,1.946028,0.020365,-0.123025,0.983804,0.991676,0
19.183429,0.026226,1.946422,0.019881,-0.184779,0.983073,1.000485,0
19.225684,0.042255,1.946502,0.021093,-0.123508,0.982098,0.990059,0
19.254185,0.028501,1.947301,0.020365,-0.183814,0.984048,1.001276,0
19.293774,0.039588,1.947846,0.018668,-0.18309,0.980636,0.997756,0
19.323227,0.029453,1.948138,0.020608,-0.123266,0.985266,0.993161,0
19.356969,0.033742,1.948407,0.022547,-0.123508,0.981367,0.989366,0
19.388944,0.031975,1.948566,0.02085,-0.124473,0.982098,0.990174,0
19.422668,0.033723,1.948999,0.020123,-0.183814,0.98088,0.998157,0
19.454436,0.031769,1.94903,0.020608,-0.123025,0.980149,0.988054,0
19.494331,0.039895,1.948965,0.018426,-0.12206,0.978199,0.985957,0
19.530352,0.036022,1.94891,0.019881,-0.062236,0.980636,0.98281,0
19.574319,0.043967,1.94854,0.021335,-0.123025,0.98088,0.988795,0
19.613889,0.03957,1.948193,0.020123,-0.12206,0.984779,0.992519,0
19.652033,0.038144,1.947824,0.020365,-0.122302,0.979905,0.987718,0
19.68773,0.035697,1.947322,0.018183,-0.126644,0.990628,0.998856,0
19.714355,0.026625,1.946739,0.020123,-0.122302,0.981367,0.989163,0
19.75239,0.038035,1.946525,0.022547,-0.121095,0.983317,0.991002,0
19.788536,0.036145,1.946225,0.021335,-0.061754,0.983073,0.985242,0
19.823723,0.035187,1.945781,0.019881,-0.123025,0.984048,0.991908,0
19.865667,0.041944,1.945641,0.02182,-0.126885,0.984292,0.992676,0
19.908891,0.043225,1.945387,0.020608,-0.123025,0.982829,0.990714,0
19.963429,0.054538,1.945132,0.018183,-0.127367,0.980149,0.988557,0
20.009629,0.0462,1.945714,0.021578,-0.123749,0.985754,0.993725,0
20.06745,0.05782,1.946066,0.022063,-0.182608,0.981367,0.998456,0
20.112981,0.045531,1.946428,0.02085,-0.183573,0.982829,1.000044,0
20.166153,0.053172,1.946459,0.021335,-0.12206,0.983561,0.991335,0
20.205313,0.03916,1.946325,0.021578,-0.122784,0.984779,0.992638,0
20.245144,0.039831,1.946165,0.021093,-0.122784,0.983073,0.990936,0
20.290934,0.04579,1.946098,0.020123,-0.123266,0.984292,0.992184,0
20.328425,0.037491,1.946197,0.022305,-0.123508,0.985023,0.992986,0
20.381205,0.052781,1.946118,0.022305,-0.122784,0.983561,0.991446,0
20.421974,0.040769,1.945987,0.020365,-0.062236,0.985754,0.987926,0
20.458532,0.036557,1.946106,0.020365,-0.12399,0.983804,0.991796,0
20.494451,0.035919,1.946087,0.020608,-0.124231,0.986241,0.994248,0
20.53327,0.038819,1.946081,0.02085,-0.124231,0.984048,0.992078,0
20.561693,0.028424,1.94565,0.020365,-0.123508,0.984048,0.991977,0
20.595951,0.034257,1.945415,0.021578,-0.123508,0.984048,0.992003,0
20.629256,0.033306,1.945328,0.021335,-0.123266,0.984779,0.992693,0
20.666018,0.036762,1.945341,0.021093,-0.122302,0.983561,0.99136,0
20.701997,0.035979,1.945371,0.020365,-0.123749,0.984535,0.992491,0
20.731942,0.029945,1.945394,0.022063,-0.123025,0.983561,0.99147,0
20.767559,0.035617,1.945401,0.020608,-0.124714,0.983317,0.991408,0
20.802871,0.035312,1.945854,0.018911,-0.124714,0.983561,0.991616,0
20.844491,0.041621,1.946084,0.019881,-0.123749,0.984779,0.992723,0
20.884032,0.039541,1.945981,0.020608,-0.122543,0.984535,0.992346,0
20.915848,0.031816,1.945662,0.021093,-0.123266,0.984048,0.991963,0
20.95642,0.040573,1.945232,0.019396,-0.123025,0.984779,0.992623,0
20.999061,0.042641,1.944746,0.021578,-0.123266,0.984779,0.992698,0
21.029793,0.030731,1.944387,0.02085,-0.123508,0.984779,0.992713,0
21.063808,0.034015,1.944053,0.020123,-0.123508,0.985266,0.993181,0
21.114928,0.05112,1.944084,0.02085,-0.121578,0.98551,0.9932,0
21.149738,0.034811,1.94396,0.022063,-0.12206,0.984779,0.99256,0
21.198979,0.049241,1.943572,0.02085,-0.061995,0.983804,0.985976,0
21.231418,0.032439,1.94311,0.019396,-0.12399,0.98551,0.993469,0
21.266676,0.035258,1.942794,0.021093,-0.122784,0.986241,0.994079,0
21.302461,0.035785,1.94277,0.020123,-0.12399,0.984779,0.992758,0
21.333791,0.03133,1.942867,0.020608,-0.122543,0.985266,0.993072,0
21.371177,0.037386,1.942956,0.020608,-0.123025,0.984048,0.991922,0
21.410372,0.039195,1.942867,0.02085,-0.123508,0.986241,0.994163,0
21.449813,0.039441,1.942721,0.020365,-0.123749,0.984048,0.992007,0
21.4796,0.029787,1.942515,0.02085,-0.119166,0.982098,0.989521,0
21.513772,0.034172,1.942582,0.020123,-0.125437,0.987216,0.995357,0
21.545161,0.031389,1.942531,0.020608,-0.119889,0.983317,0.990813,0
21.575064,0.029903,1.942619,0.021335,-0.125196,0.985023,0.993176,0
21.625395,0.050331,1.942914,0.020365,-0.123508,0.986729,0.994637,0
21.665159,0.039764,1.942512,0.019396,-0.123025,0.98551,0.993349,0
21.692146,0.026986,1.942392,0.020123,-0.124473,0.985997,0.994027,0
21.733129,0.040983,1.942561,0.020608,-0.122784,0.986241,0.994069,0
21.77553,0.042401,1.942806,0.020608,-0.123508,0.985997,0.993916,0
21.813247,0.037717,1.943282,0.020608,-0.123508,0.984292,0.992224,0
21.861932,0.048685,1.943531,0.022547,-0.123508,0.983804,0.991783,0
21.912648,0.050716,1.943626,0.020365,-0.061754,0.983561,0.985708,0
21.95359,0.040942,1.943998,0.021578,-0.123749,0.984048,0.992033,0
21.985258,0.031668,1.944331,0.019881,-0.123508,0.984292,0.992209,0
22.025686,0.040428,1.944458,0.020608,-0.062478,0.983561,0.985758,0
22.061401,0.035715,1.944866,0.024729,-0.120854,0.984048,0.99175,0
22.099042,0.037641,1.94529,0.019396,-0.124714,0.984779,0.992834,0
22.140383,0.041341,1.945781,0.019881,-0.12399,0.984779,0.992753,0
22.174153,0.03377,1.945887,0.020608,-0.123749,0.984535,0.992496,0
22.220981,0.046828,1.945717,0.019638,-0.123508,0.985023,0.99293,0
22.25866,0.037679,1.945807,0.020608,-0.12399,0.985023,0.99301,0
22.305033,0.046373,1.945447,0.019881,-0.124714,0.983804,0.991877,0
22.338207,0.033174,1.94478,0.021335,-0.123025,0.983804,0.991696,0
22.371004,0.032798,1.944658,0.019396,-0.12399,0.983317,0.991293,0
22.406594,0.03559,1.944456,0.02182,-0.184538,0.984779,1.002158,0
22.448646,0.042052,1.943842,0.020123,-0.123508,0.981855,0.989797,0
22.485983,0.037338,1.943246,0.020608,-0.123025,0.984048,0.991922,0
22.518186,0.032202,1.942916,0.021093,-0.122302,0.983804,0.991601,0
22.552835,0.03465,1.942442,0.020608,-0.123749,0.983561,0.991529,0
22.598638,0.045802,1.94192,0.020365,-0.123025,0.984292,0.992159,0
22.62993,0.031292,1.9414,0.021093,-0.123508,0.982098,0.990059,0
22.669524,0.039594,1.940684,0.02279,-0.123508,0.984292,0.992272,0
22.705278,0.035754,1.940155,0.020608,-0.061754,0.981367,0.983524,0
22.734785,0.029507,1.940021,0.019881,-0.123508,0.983561,0.991484,0
22.772986,0.038201,1.939145,0.020365,-0.061995,0.983804,0.985966,0
22.810626,0.03764,1.938839,0.020365,-0.18502,0.984048,1.001498,0
22.861194,0.050568,1.938477,0.018911,-0.123266,0.983073,0.990951,0
22.893681,0.032487,1.938212,0.021093,-0.12399,0.983804,0.991811,0
22.926206,0.032525,1.937597,0.020608,-0.12399,0.982829,0.990834,0
22.964062,0.037856,1.937485,0.021335,-0.123749,0.982342,0.990336,0
23.000057,0.035995,1.937071,0.019153,-0.123025,0.982586,0.990443,0
23.041338,0.04128,1.937058,0.022305,-0.123266,0.986485,0.994407,0
23.080649,0.039311,1.936827,0.021335,-0.123749,0.981611,0.98961,0
23.106444,0.025795,1.936432,0.020365,-0.124231,0.983073,0.991101,0
23.14187,0.035426,1.936146,0.018911,-0.123749,0.982829,0.99077,0
23.17901,0.037139,1.935596,0.020365,-0.123508,0.983317,0.991252,0
23.216933,0.037923,1.93505,0.02085,-0.123508,0.982098,0.990054,0
23.245728,0.028796,1.934594,0.019396,-0.124473,0.982586,0.990628,0
23.273926,0.028197,1.934083,0.019638,-0.122784,0.983804,0.991631,0
23.311413,0.037487,1.933779,0.020123,-0.123749,0.984048,0.992003,0
23.343779,0.032366,1.933278,0.018426,-0.125437,0.985266,0.99339,0
23.379555,0.035777,1.932907,0.021335,-0.122302,0.984535,0.992332,0
23.422173,0.042618,1.932583,0.020608,-0.123749,0.983317,0.991287,0
23.468077,0.045904,1.932343,0.020608,-0.061754,0.983561,0.985713,0
23.515051,0.046974,1.932037,0.020123,-0.123266,0.982829,0.990734,0
23.549063,0.034012,1.931799,0.021335,-0.122543,0.984535,0.992362,0
23.600665,0.051603,1.931984,0.020123,-0.184055,0.983561,1.000836,0
23.635198,0.034533,1.932168,0.020365,-0.123508,0.984048,0.991977,0
23.681743,0.046545,1.93262,0.021093,-0.122543,0.984048,0.991873,0
23.721837,0.040094,1.932757,0.020123,-0.122784,0.983317,0.991157,0
23.769229,0.047393,1.932851,0.020365,-0.122543,0.984535,0.992341,0
23.815034,0.045805,1.932702,0.02085,-0.123266,0.983561,0.991474,0
23.86843,0.053396,1.932792,0.021335,-0.124231,0.984535,0.992572,0
23.905386,0.036956,1.932774,0.021093,-0.124231,0.98551,0.993533,0
23.942316,0.03693,1.933005,0.020608,-0.12399,0.983561,0.991559,0
23.97955,0.037234,1.933145,0.020608,-0.122302,0.983073,0.990866,0
24.022876,0.043326,1.93311,0.02085,-0.123749,0.983804,0.991776,0
24.059648,0.036772,1.933273,0.019396,-0.123266,0.984779,0.992653,0
24.095748,0.036101,1.933348,0.020365,-0.123025,0.984535,0.992401,0
24.143017,0.047269,1.933579,0.019881,-0.12399,0.984779,0.992753,0
24.185846,0.042829,1.93378,0.020123,-0.061754,0.984535,0.986675,0
24.225063,0.039217,1.933634,0.019638,-0.062236,0.985266,0.987425,0
24.270081,0.045018,1.9334,0.021578,-0.061995,0.984779,0.986964,0
24.309594,0.039513,1.933818,0.019396,-0.184779,0.983804,1.001194,0
24.347218,0.037624,1.934148,0.02085,-0.123266,0.984535,0.992441,0
24.381566,0.034348,1.934491,0.019396,-0.123749,0.983561,0.991505,0
24.419413,0.037847,1.934978,0.02182,-0.123266,0.984535,0.992462,0
24.458979,0.039566,1.935599,0.020608,-0.123508,0.982829,0.990774,0
24.500912,0.041933,1.936075,0.019638,-0.123508,0.983317,0.991237,0
24.544504,0.043592,1.93627,0.022305,-0.123749,0.98551,0.9935,0
24.588503,0.043999,1.936311,0.020365,-0.12206,0.984535,0.992282,0
24.620448,0.031945,1.93628,0.020365,-0.121578,0.984535,0.992223,0
24.662159,0.041711,1.936256,0.02085,-0.12399,0.985266,0.993256,0
24.710144,0.047985,1.936212,0.021093,-0.12399,0.984048,0.992053,0
24.757716,0.047572,1.935694,0.019881,-0.062236,0.985754,0.987916,0
24.798619,0.040903,1.935655,0.019153,-0.12399,0.983561,0.99153,0
24.835492,0.036874,1.935522,0.020365,-0.123266,0.983317,0.991222,0
24.874553,0.039061,1.935385,0.02085,-0.122302,0.98551,0.993289,0
24.92326,0.048707,1.935545,0.020123,-0.123508,0.985023,0.992939,0
24.965103,0.041842,1.935582,0.019396,-0.123266,0.985266,0.993137,0
25.003486,0.038383,1.935515,0.019153,-0.123266,0.984779,0.992649,0
25.042279,0.038794,1.935526,0.019881,-0.12399,0.984779,0.992753,0
25.080646,0.038366,1.93553,0.019153,-0.123025,0.985266,0.993102,0
25.117023,0.036377,1.935574,0.021093,-0.124231,0.984292,0.992325,0
25.153335,0.036312,1.935437,0.02182,-0.122784,0.984535,0.992402,0
25.201766,0.048431,1.935519,0.02085,-0.18502,0.985754,1.003184,0
25.234931,0.033166,1.935245,0.019881,-0.122543,0.985023,0.992815,0
25.273055,0.038124,1.93489,0.020608,-0.123025,0.984535,0.992406,0
25.314431,0.041376,1.934365,0.021578,-0.123749,0.98551,0.993483,0
25.347372,0.032941,1.933935,0.020608,-0.123025,0.982829,0.990714,0
25.383034,0.035662,1.933719,0.02085,-0.122543,0.984292,0.99211,0
25.432804,0.04977,1.933709,0.019881,-0.122543,0.984535,0.992331,0
25.471216,0.038412,1.933652,0.019638,-0.123025,0.984292,0.992145,0
25.513118,0.041902,1.934212,0.02085,-0.18502,0.983804,1.001268,0
25.549659,0.036542,1.934717,0.020365,-0.12206,0.985023,0.992765,0
25.592385,0.042726,1.934923,0.019881,-0.12399,0.984292,0.992269,0
25.630221,0.037836,1.935073,0.020608,-0.122543,0.983561,0.991379,0
25.66917,0.038949,1.935554,0.019638,-0.184297,0.984535,1.001829,0
25.702125,0.032956,1.935372,0.020365,-0.123508,0.984779,0.992703,0
25.743364,0.041239,1.935301,0.020365,-0.123749,0.984535,0.992491,0
25.787864,0.044499,1.935309,0.020365,-0.12206,0.984535,0.992282,0
25.83218,0.044317,1.935025,0.02085,-0.123266,0.985023,0.992924,0
25.886558,0.054378,1.935448,0.021335,-0.122784,0.984292,0.99215,0
25.924732,0.038174,1.936567,0.019638,-0.184538,0.985023,1.002352,0
25.957342,0.032609,1.93698,0.019638,-0.123025,0.985023,0.99287,0
26.001734,0.044393,1.937404,0.019396,-0.123025,0.985023,0.992865,0
26.039351,0.037617,1.937799,0.020365,-0.124231,0.983073,0.991101,0
26.081886,0.042534,1.937969,0.020365,-0.124714,0.984535,0.992612,0
26.127534,0.045648,1.93796,0.021093,-0.12399,0.982342,0.990361,0
26.165578,0.038044,1.938106,0.02085,-0.123266,0.983561,0.991474,0
26.203466,0.037888,1.938462,0.020123,-0.122784,0.982342,0.99019,0
26.237944,0.034478,1.93899,0.020365,-0.18502,0.984535,1.001977,0
26.273431,0.035486,1.938778,0.019153,-0.123508,0.983073,0.990986,0
26.312155,0.038724,1.938833,0.020123,-0.124231,0.983073,0.991096,0
26.344686,0.032532,1.938839,0.020608,-0.122543,0.983804,0.991621,0
26.381221,0.036534,1.93893,0.019153,-0.124231,0.983561,0.99156,0
26.415969,0.034749,1.939261,0.020608,-0.123025,0.983561,0.991439,0
26.449979,0.03401,1.939693,0.019638,-0.184538,0.982829,1.000197,0
26.490561,0.040581,1.939784,0.020608,-0.123508,0.985266,0.993191,0
26.522822,0.032262,1.939543,0.019881,-0.061754,0.983073,0.985211,0
26.55773,0.034908,1.939552,0.020365,-0.123508,0.981855,0.989802,0
26.596508,0.038777,1.939014,0.020123,-0.061754,0.982829,0.984973,0
26.635583,0.039076,1.938463,0.02085,-0.123749,0.982098,0.990084,0
26.673199,0.037616,1.937847,0.020123,-0.12399,0.983073,0.991066,0
26.714154,0.040954,1.937089,0.02085,-0.061754,0.984779,0.986934,0
26.746443,0.032289,1.936736,0.021578,-0.123266,0.982829,0.990764,0
26.786054,0.039612,1.936354,0.021093,-0.123749,0.984779,0.992748,0
26.823356,0.037302,1.935951,0.020123,-0.123508,0.983073,0.991005,0
26.864629,0.041273,1.935863,0.019638,-0.121819,0.981611,0.989336,0
26.902281,0.037652,1.935698,0.021335,-0.123025,0.982829,0.990729,0
26.937647,0.035365,1.93541,0.020365,-0.12399,0.984535,0.992521,0
26.975048,0.037402,1.934622,0.020123,-0.062719,0.981124,0.983332,0
27.006053,0.031005,1.934003,0.019881,-0.123749,0.983804,0.991756,0
27.042197,0.036143,1.933563,0.020123,-0.122784,0.983804,0.991641,0
27.076216,0.03402,1.933322,0.020608,-0.123508,0.984048,0.991982,0
27.114686,0.03847,1.933206,0.014789,-0.109758,0.993552,0.999706,0
27.149415,0.034728,1.933271,0.015517,-0.139187,0.986241,0.996135,0
27.183581,0.034167,1.932883,0.02085,-0.111688,0.977224,0.983807,0
27.222408,0.038827,1.932594,0.016729,-0.104933,0.979418,0.985165,0
27.261625,0.039217,1.932485,0.023517,-0.134122,0.98088,0.990286,0
27.293142,0.031517,1.932185,0.023517,-0.127609,0.991359,0.999815,0
27.333281,0.040139,1.932054,0.019881,-0.174648,0.97893,0.994586,0
27.373746,0.040465,1.931821,0.019638,-0.116753,0.980392,0.987515,0
27.409586,0.035839,1.931695,0.019638,-0.122302,0.986241,0.993989,0
27.447381,0.037796,1.931844,0.019153,-0.131227,0.997695,1.00647,0
27.48377,0.036389,1.932343,0.022547,-0.126885,0.986485,0.994867,0
27.529145,0.045375,1.932521,0.022547,-0.130021,0.968208,0.977159,0
27.564866,0.035721,1.932692,0.018668,-0.114824,0.991115,0.997919,0
27.594363,0.029497,1.933167,0.017941,-0.181161,0.982342,0.999068,0
27.624156,0.029793,1.933398,0.020365,-0.121095,0.983073,0.990713,0
27.662377,0.038222,1.933334,0.02085,-0.065131,0.983561,0.985935,0
27.693511,0.031134,1.933215,0.019881,-0.120372,0.981611,0.989164,0
27.729983,0.036472,1.933214,0.020608,-0.12206,0.983561,0.99132,0
27.778983,0.049,1.932944,0.022063,-0.061995,0.98088,0.983085,0
27.817537,0.038554,1.933264,0.019881,-0.183814,0.980149,0.997434,0
27.852519,0.034982,1.933351,0.019881,-0.123749,0.982342,0.990305,0
27.888215,0.035696,1.933336,0.021093,-0.123508,0.982586,0.990542,0
27.927509,0.039294,1.933556,0.019638,-0.123508,0.983073,0.990996,0
27.964776,0.037267,1.933826,0.020608,-0.122302,0.982586,0.990382,0
28.009295,0.044519,1.933625,0.020123,-0.061754,0.982829,0.984973,0
28.049351,0.040056,1.93327,0.021093,-0.063442,0.982098,0.984371,0
28.102529,0.053179,1.933529,0.020365,-0.184055,0.983317,1.000601,0
28.137566,0.035037,1.933163,0.020608,-0.122784,0.982342,0.9902,0
28.184592,0.047026,1.933133,0.02085,-0.122543,0.982342,0.990175,0
28.226171,0.041579,1.933094,0.021093,-0.123266,0.983317,0.991237,0
28.26332,0.037149,1.933013,0.020123,-0.123749,0.982098,0.990069,0
28.292101,0.028781,1.933126,0.020123,-0.123508,0.982342,0.99028,0
28.320692,0.02859,1.933114,0.020123,-0.123749,0.982342,0.99031,0
28.355617,0.034925,1.933065,0.019881,-0.122784,0.982829,0.990669,0
28.392814,0.037198,1.933176,0.019881,-0.123266,0.983073,0.99097,0
28.425522,0.032708,1.93307,0.02085,-0.123508,0.982829,0.990779,0
28.451594,0.026072,1.933151,0.019881,-0.123749,0.981855,0.989822,0
28.494511,0.042917,1.933089,0.02085,-0.123749,0.983317,0.991292,0
28.534038,0.039527,1.932937,0.020365,-0.123508,0.981124,0.989076,0
28.566201,0.032164,1.932712,0.019638,-0.123266,0.98088,0.98879,0
28.605552,0.03935,1.93258,0.018668,-0.123749,0.982586,0.990524,0
28.647891,0.042339,1.93272,0.020365,-0.123508,0.982342,0.990285,0
28.681443,0.033552,1.932695,0.021578,-0.121578,0.981855,0.989588,0
28.71444,0.032997,1.932553,0.021578,-0.122543,0.981367,0.989224,0
28.749882,0.035442,1.932263,0.021093,-0.123025,0.980636,0.988548,0
28.782894,0.033012,1.932097,0.020123,-0.122543,0.981855,0.989677,0
28.825045,0.042151,1.93193,0.020608,-0.124231,0.982342,0.990381,0
28.858775,0.033731,1.931841,0.020608,-0.123749,0.983317,0.991287,0
28.90114,0.042365,1.931822,0.020608,-0.124231,0.983804,0.991831,0
28.930067,0.028927,1.932322,0.019881,-0.123266,0.981855,0.989762,0
28.972728,0.042661,1.932653,0.019153,-0.123508,0.982098,0.990019,0
29.018727,0.045999,1.932972,0.02085,-0.123025,0.981611,0.98951,0
29.050294,0.031567,1.933166,0.020365,-0.122543,0.981855,0.989682,0
29.085974,0.03568,1.933544,0.020365,-0.12399,0.982586,0.990587,0
29.134702,0.048728,1.93387,0.019638,-0.184779,0.981124,0.998565,0
29.173661,0.038958,1.934035,0.021093,-0.123025,0.982829,0.990724,0
29.199354,0.025693,1.933665,0.020365,-0.122543,0.982098,0.989924,0
29.237811,0.038457,1.933416,0.020123,-0.123508,0.980636,0.988588,0
29.275892,0.038081,1.933598,0.020365,-0.122784,0.981611,0.98947,0
29.31026,0.034368,1.933238,0.020365,-0.124231,0.983561,0.991584,0
29.347383,0.037123,1.932845,0.020608,-0.123508,0.983073,0.991015,0
29.3816,0.034217,1.932541,0.022063,-0.123025,0.983073,0.990987,0
29.420353,0.038753,1.932483,0.020123,-0.123749,0.983317,0.991277,0
29.464335,0.043982,1.932185,0.020123,-0.124231,0.983804,0.991821,0
29.508375,0.04404,1.931967,0.019638,-0.061754,0.983317,0.98545,0
29.545334,0.036959,1.931871,0.020608,-0.123508,0.984292,0.992224,0
29.589381,0.044047,1.931796,0.019881,-0.123266,0.983073,0.99097,0
29.635637,0.046256,1.931807,0.020123,-0.124231,0.983317,0.991338,0
29.673959,0.038322,1.931474,0.020123,-0.123266,0.983317,0.991217,0
29.704817,0.030858,1.931057,0.020123,-0.122784,0.983804,0.991641,0
29.742372,0.037555,1.930696,0.021335,-0.061754,0.982342,0.984512,0
29.782703,0.040331,1.93064,0.020123,-0.123749,0.982586,0.990552,0
29.829831,0.047128,1.93057,0.018183,-0.12399,0.981611,0.989578,0
29.866089,0.036257,1.930417,0.020608,-0.123025,0.979661,0.987571,0
29.915013,0.048924,1.930338,0.019881,-0.123508,0.983073,0.991001,0
29.945314,0.030302,1.930127,0.019638,-0.123025,0.984048,0.991903,0
29.993166,0.047852,1.929695,0.020123,-0.123266,0.983561,0.991459,0
30.040397,0.047231,1.929515,0.020123,-0.123508,0.983561,0.991489,0
30.082358,0.041961,1.929416,0.020365,-0.122784,0.984048,0.991888,0
30.120059,0.0377,1.929499,0.019638,-0.184055,0.985023,1.002263,0
30.163228,0.043169,1.92941,0.020608,-0.122543,0.983317,0.991137,0
30.208433,0.045205,1.929052,0.019881,-0.121819,0.984048,0.991759,0
30.236726,0.028293,1.928791,0.020365,-0.122784,0.983317,0.991162,0
30.271889,0.035163,1.928456,0.020608,-0.123266,0.983317,0.991227,0
30.31056,0.03867,1.92824,0.020123,-0.122543,0.983317,0.991127,0
30.340051,0.029491,1.928094,0.020365,-0.122784,0.983317,0.991162,0
30.377568,0.037517,1.927783,0.020123,-0.123025,0.984535,0.992396,0
30.407416,0.029849,1.927418,0.020608,-0.122302,0.982098,0.989899,0
30.461275,0.053859,1.927154,0.019881,-0.124473,0.984048,0.992088,0
30.495467,0.034192,1.927006,0.020123,-0.123508,0.984048,0.991972,0
30.532084,0.036617,1.926747,0.019396,-0.123266,0.984779,0.992653,0
30.570163,0.03808,1.926709,0.018911,-0.123266,0.983073,0.990951,0
30.602837,0.032674,1.926457,0.018911,-0.123508,0.982586,0.990498,0
30.6352,0.032363,1.926333,0.019638,-0.122784,0.983073,0.990906,0
30.674918,0.039717,1.926483,0.020365,-0.121578,0.982342,0.990046,0
30.711058,0.03614,1.926345,0.021335,-0.124231,0.983073,0.991121,0
30.740026,0.028967,1.926406,0.020365,-0.125437,0.984535,0.992703,0
30.790593,0.050568,1.926729,0.019153,-0.124473,0.983561,0.99159,0
30.838495,0.047902,1.926902,0.020365,-0.122302,0.981611,0.98941,0
30.876797,0.038301,1.926881,0.019881,-0.123266,0.983073,0.99097,0
30.924316,0.04752,1.926826,0.019638,-0.061995,0.981124,0.983276,0
30.969174,0.044857,1.926982,0.019638,-0.12206,0.982829,0.990575,0
31.000367,0.031193,1.927031,0.02085,-0.123508,0.980636,0.988603,0
31.035972,0.035605,1.926985,0.021578,-0.12399,0.982342,0.990371,0
31.08189,0.045918,1.926903,0.019881,-0.122784,0.982342,0.990185,0
31.112787,0.030897,1.92652,0.019881,-0.124231,0.981367,0.989399,0
31.161597,0.04881,1.926268,0.021578,-0.062236,0.983073,0.985277,0
31.192851,0.031254,1.926116,0.020365,-0.123025,0.984292,0.992159,0
31.22913,0.036279,1.926172,0.019153,-0.123025,0.982098,0.989959,0
31.265403,0.036273,1.926014,0.019881,-0.123508,0.983317,0.991242,0
31.30694,0.041537,1.925741,0.019881,-0.123266,0.982342,0.990245,0
31.338348,0.031409,1.925441,0.018668,-0.124231,0.984048,0.992034,0
31.374916,0.036568,1.925109,0.020608,-0.124473,0.983073,0.991136,0
31.411843,0.036927,1.924908,0.019881,-0.122784,0.982586,0.990427,0
31.446966,0.035123,1.925015,0.021578,-0.123025,0.982586,0.990493,0
31.479958,0.032992,1.924812,0.020365,-0.123266,0.983804,0.991706,0
31.515378,0.03542,1.924866,0.02085,-0.122784,0.983317,0.991172,0
31.553525,0.038147,1.92474,0.021335,-0.12399,0.983317,0.991333,0
31.58618,0.032655,1.924503,0.021578,-0.124473,0.984048,0.992124,0
31.625119,0.038939,1.924237,0.021093,-0.123266,0.983561,0.991479,0
31.661176,0.036057,1.924159,0.020365,-0.123749,0.984048,0.992007,0
31.701145,0.039969,1.924544,0.02085,-0.18502,0.984048,1.001508,0
31.733666,0.032521,1.924475,0.019881,-0.122302,0.984535,0.992302,0
31.767364,0.033698,1.924608,0.02085,-0.123749,0.983317,0.991292,0
31.81171,0.044347,1.92501,0.019881,-0.124714,0.982829,0.99091,0
31.863223,0.051513,1.925286,0.021093,-0.062236,0.984535,0.986726,0
31.911161,0.047939,1.926125,0.020365,-0.123749,0.982829,0.990799,0
31.967184,0.056022,1.926667,0.02085,-0.123749,0.983804,0.991776,0
32.006684,0.0395,1.927019,0.018426,-0.123749,0.981367,0.98931,0
32.069154,0.06247,1.926807,0.021335,-0.123749,0.98088,0.988885,0
32.113299,0.044145,1.926745,0.020608,-0.123025,0.981611,0.989505,0
32.237481,0.124182,1.926396,0.020608,-0.123025,0.979905,0.987813,0
32.28467,0.047189,1.926299,0.020608,-0.12399,0.981855,0.989867,0
32.427464,0.142794,1.926395,0.020608,-0.12399,0.982342,0.99035,0
32.465691,0.038227,1.926614,0.021093,-0.124231,0.982342,0.990391,0
32.506385,0.040694,1.926626,0.021093,-0.123749,0.982098,0.990089,0
32.549631,0.043246,1.92688,0.020608,-0.184538,0.981855,0.999258,0
32.586871,0.03724,1.926555,0.022063,-0.123749,0.983561,0.99156,0
32.636275,0.049404,1.926399,0.019638,-0.123266,0.981611,0.989515,0
32.664805,0.02853,1.926337,0.02085,-0.123508,0.981124,0.989087,0
32.707152,0.042347,1.926296,0.019881,-0.122543,0.979174,0.987012,0
32.743542,0.03639,1.926427,0.021335,-0.18502,0.979418,0.996969,0
32.779151,0.035609,1.926464,0.019881,-0.123266,0.977712,0.985652,0
32.812124,0.032973,1.926738,0.019638,-0.184538,0.979174,0.996605,0
32.852995,0.040871,1.926862,0.019396,-0.123266,0.978199,0.986126,0
32.888842,0.035846,1.926829,0.02085,-0.123266,0.977712,0.985672,0
32.923051,0.03421,1.926459,0.019396,-0.122543,0.978687,0.986519,0
32.961062,0.03801,1.926471,0.020608,-0.18502,0.978687,0.996235,0
32.994365,0.033304,1.926211,0.020123,-0.123266,0.979174,0.987107,0
33.02994,0.035575,1.925578,0.019638,-0.061995,0.977955,0.980115,0
33.066589,0.036649,1.925171,0.019638,-0.123508,0.97893,0.986886,0
33.09747,0.030881,1.925057,0.02085,-0.122784,0.97893,0.986821,0
33.132224,0.034754,1.924817,0.019638,-0.123508,0.979174,0.987128,0
33.173143,0.040919,1.924419,0.018911,-0.123025,0.977468,0.985361,0
33.21813,0.044986,1.924012,0.019881,-0.061754,0.977712,0.979862,0
33.253324,0.035195,1.924258,0.02182,-0.183814,0.977712,0.99508,0
33.305494,0.05217,1.924329,0.020608,-0.123508,0.977712,0.985697,0
33.351215,0.045721,1.924456,0.020608,-0.123508,0.979418,0.987389,0
33.380973,0.029758,1.924601,0.019881,-0.123025,0.978687,0.986589,0
33.41587,0.034897,1.924792,0.02182,-0.123508,0.979174,0.987174,0
33.451586,0.035716,1.924862,0.020608,-0.124231,0.980392,0.988447,0
33.48226,0.030674,1.924735,0.021093,-0.062236,0.97893,0.981133,0
33.51668,0.03442,1.924863,0.019638,-0.123749,0.980636,0.988608,0
33.550362,0.033682,1.925038,0.020123,-0.123749,0.981124,0.989102,0
33.58757,0.037208,1.925197,0.019638,-0.124231,0.981124,0.989152,0
33.631358,0.043788,1.925413,0.02085,-0.184779,0.981124,0.99859,0
33.681629,0.050272,1.925439,0.02085,-0.123025,0.981611,0.98951,0
33.710667,0.029038,1.925195,0.021093,-0.061995,0.983073,0.985252,0
33.747257,0.03659,1.925097,0.020608,-0.124473,0.980636,0.988719,0
33.793844,0.046587,1.925116,0.019396,-0.121819,0.979661,0.987397,0
33.829773,0.035929,1.924979,0.022063,-0.123266,0.982586,0.990533,0
33.859222,0.029449,1.924727,0.019638,-0.123266,0.981124,0.989032,0
33.898937,0.039716,1.924568,0.019881,-0.123266,0.979418,0.987344,0
33.938661,0.039724,1.924522,0.019638,-0.122784,0.980636,0.988488,0
33.974092,0.035431,1.924411,0.018911,-0.123025,0.980392,0.988262,0
34.013579,0.039487,1.924612,0.02085,-0.121819,0.979905,0.987668,0
34.046781,0.033202,1.924882,0.021093,-0.124231,0.979661,0.987732,0
34.089608,0.042826,1.924444,0.020123,-0.123266,0.979661,0.987591,0
34.126049,0.036441,1.924419,0.020123,-0.124473,0.979905,0.987984,0
34.173064,0.047015,1.924784,0.019153,-0.123025,0.979905,0.987783,0
34.215348,0.042284,1.924811,0.018426,-0.123025,0.980149,0.988011,0
34.260756,0.045408,1.924795,0.019881,-0.124473,0.979661,0.987737,0
34.300056,0.0393,1.924566,0.020365,-0.123749,0.980149,0.98814,0
34.366758,0.066702,1.924593,0.019881,-0.122784,0.983073,0.990911,0
34.40357,0.036813,1.924979,0.020123,-0.184538,0.982098,0.999488,0
34.436697,0.033127,1.925459,0.019881,-0.184779,0.979174,0.996654,0
34.477182,0.040485,1.925404,0.020123,-0.062236,0.980392,0.982572,0
34.507492,0.03031,1.925607,0.019881,-0.123025,0.979661,0.987556,0
34.550102,0.04261,1.9259,0.020608,-0.121819,0.981124,0.988872,0
34.590389,0.040287,1.926612,0.019881,-0.18502,0.980392,0.997896,0
34.622814,0.032425,1.927097,0.020365,-0.123508,0.979905,0.987868,0
34.654729,0.031915,1.927642,0.020123,-0.12206,0.980392,0.988166,0
34.698874,0.044145,1.927988,0.021335,-0.184779,0.981367,0.998839,0
34.734883,0.036009,1.927957,0.021093,-0.123025,0.981367,0.989273,0
34.771964,0.037081,1.927968,0.019881,-0.123266,0.981367,0.989278,0
34.806494,0.03453,1.927991,0.021335,-0.122784,0.981611,0.98949,0
34.842592,0.036098,1.92795,0.020365,-0.123749,0.981124,0.989107,0
34.874653,0.03206,1.927868,0.020608,-0.124473,0.980149,0.988236,0
34.911179,0.036526,1.927979,0.02085,-0.123266,0.979174,0.987123,0
34.945271,0.034092,1.927944,0.020608,-0.123025,0.980392,0.988296,0
34.990016,0.044744,1.927956,0.020608,-0.123266,0.980392,0.988326,0
35.032681,0.042666,1.9279,0.021335,-0.18502,0.980636,0.998166,0
35.067239,0.034558,1.927671,0.019638,-0.123508,0.982342,0.99027,0
35.107614,0.040375,1.927278,0.020608,-0.061995,0.981611,0.983783,0
35.146961,0.039347,1.927036,0.021093,-0.123266,0.981367,0.989303,0
35.179069,0.032108,1.926358,0.021093,-0.123266,0.983073,0.990996,0
35.222329,0.04326,1.925987,0.020365,-0.124231,0.980636,0.988684,0
35.253038,0.030708,1.92565,0.020608,-0.123266,0.98088,0.98881,0
35.29096,0.037922,1.925301,0.021335,-0.123266,0.983317,0.991243,0
35.331126,0.040166,1.924843,0.019396,-0.123266,0.981855,0.989752,0
35.371375,0.040249,1.924635,0.021093,-0.062236,0.980149,0.982349,0
35.411201,0.039826,1.924464,0.020365,-0.123508,0.981124,0.989076,0
35.445667,0.034467,1.924249,0.018911,-0.122784,0.981124,0.988957,0
35.483203,0.037536,1.924055,0.019638,-0.123749,0.981367,0.989334,0
35.519683,0.036479,1.924037,0.019881,-0.18502,0.981611,0.999093,0
35.552121,0.032438,1.923822,0.02085,-0.12399,0.982098,0.990114,0
35.590741,0.03862,1.923527,0.019638,-0.061995,0.981367,0.98352,0
35.624377,0.033636,1.923342,0.019881,-0.122784,0.981855,0.989702,0
35.65802,0.033643,1.923263,0.020365,-0.123025,0.980392,0.988291,0
35.694942,0.036922,1.923375,0.019881,-0.12206,0.98088,0.988645,0
35.730692,0.03575,1.923527,0.019638,-0.123025,0.981855,0.989727,0
35.763236,0.032544,1.923732,0.020608,-0.124231,0.981367,0.989414,0
35.794951,0.031715,1.923721,0.019396,-0.123025,0.981855,0.989722,0
35.833166,0.038215,1.923972,0.019881,-0.123508,0.982586,0.990517,0
35.865395,0.032229,1.924436,0.019153,-0.184538,0.981611,0.99899,0
35.905211,0.039816,1.924626,0.021093,-0.12399,0.981124,0.989152,0
35.935652,0.03044,1.924708,0.019396,-0.123749,0.981367,0.989329,0
35.969156,0.033504,1.924915,0.020123,-0.18502,0.979418,0.996944,0
36.006195,0.037039,1.92479,0.020365,-0.122784,0.98088,0.988745,0
36.050564,0.044369,1.924224,0.019881,-0.061754,0.98088,0.983023,0
36.097936,0.047372,1.92427,0.019153,-0.122543,0.980149,0.987965,0
36.14516,0.047224,1.924386,0.020123,-0.124231,0.979661,0.987712,0
36.187296,0.042136,1.924432,0.019881,-0.122784,0.980392,0.988251,0
36.226329,0.039033,1.924407,0.019638,-0.123266,0.982342,0.99024,0
36.269825,0.043497,1.924409,0.020365,-0.123749,0.981367,0.989348,0
36.307523,0.037697,1.923978,0.020123,-0.061754,0.981611,0.983757,0
36.350911,0.043389,1.923634,0.02085,-0.061995,0.98088,0.983058,0
36.392851,0.04194,1.923311,0.019881,-0.12206,0.982098,0.989854,0
36.434657,0.041806,1.92327,0.020608,-0.18502,0.980149,0.997672,0
36.467221,0.032564,1.922809,0.020365,-0.061754,0.981367,0.983519,0
36.505635,0.038414,1.922621,0.020365,-0.123508,0.981855,0.989802,0
36.537473,0.031838,1.922578,0.021093,-0.122543,0.981611,0.989455,0
36.572038,0.034564,1.922652,0.021335,-0.122543,0.981855,0.989702,0
36.603965,0.031927,1.922748,0.019881,-0.123025,0.981855,0.989732,0
36.656262,0.052297,1.923274,0.02085,-0.184297,0.980636,0.998022,0
36.700275,0.044013,1.923659,0.019638,-0.12399,0.981367,0.989364,0
36.752066,0.051791,1.924129,0.019638,-0.123025,0.982342,0.99021,0
36.795379,0.043313,1.924382,0.019638,-0.123025,0.98088,0.98876,0
36.839551,0.044172,1.924205,0.019638,-0.062236,0.981855,0.984021,0
36.880643,0.041092,1.924254,0.019396,-0.124473,0.981855,0.989903,0
36.917135,0.036492,1.924087,0.020608,-0.12399,0.981367,0.989384,0
36.957234,0.040099,1.924478,0.020608,-0.18502,0.980392,0.997911,0
36.989038,0.031805,1.925032,0.020608,-0.184538,0.983317,1.000695,0
37.023047,0.034009,1.925298,0.020123,-0.123508,0.982342,0.99028,0
37.060124,0.037076,1.925209,0.020365,-0.061754,0.982342,0.984492,0
37.093307,0.033183,1.925411,0.021578,-0.122543,0.983073,0.990916,0
37.137806,0.044499,1.92593,0.019881,-0.18502,0.982098,0.999572,0
37.179824,0.042018,1.926023,0.019396,-0.123749,0.982829,0.990779,0
37.217825,0.038001,1.925844,0.020123,-0.123508,0.981367,0.989313,0
37.259784,0.041959,1.925739,0.019881,-0.124473,0.981367,0.989429,0
37.293072,0.033288,1.925692,0.020608,-0.123508,0.981367,0.989323,0
37.355758,0.062686,1.925582,0.020365,-0.124231,0.98088,0.988925,0
37.400634,0.044876,1.925465,0.019638,-0.123025,0.983073,0.990936,0
37.440107,0.039473,1.925415,0.019396,-0.123266,0.982586,0.990477,0
37.502305,0.062197,1.925319,0.02085,-0.122784,0.984048,0.991898,0
37.53984,0.037535,1.925335,0.021578,-0.123508,0.983073,0.991036,0
37.579557,0.039718,1.925387,0.019881,-0.123025,0.983073,0.99094,0
37.623187,0.04363,1.925293,0.020123,-0.123025,0.983317,0.991187,0
37.649692,0.026505,1.925658,0.019153,-0.183573,0.984048,1.001207,0
37.693569,0.043877,1.92532,0.020365,-0.124231,0.983317,0.991343,0
37.726213,0.032644,1.924908,0.020365,-0.123749,0.983073,0.99104,0
37.763824,0.037612,1.924629,0.020608,-0.12399,0.982342,0.99035,0
37.798431,0.034607,1.924629,0.019881,-0.184779,0.981367,0.998809,0
37.836354,0.037923,1.924778,0.021578,-0.184779,0.983073,1.000521,0
37.883352,0.046998,1.924795,0.019881,-0.123749,0.983561,0.991514,0
37.982558,0.099206,1.924333,0.019638,-0.061754,0.984048,0.986179,0
38.053413,0.070855,1.924126,0.019396,-0.061754,0.983073,0.985202,0
38.109725,0.056312,1.923945,0.020365,-0.062719,0.982829,0.985039,0
38.17225,0.062525,1.923944,0.02085,-0.122302,0.982098,0.989904,0
38.215652,0.043402,1.923799,0.020608,-0.123749,0.983073,0.991045,0
38.253155,0.037503,1.923748,0.020608,-0.123266,0.982829,0.990744,0
38.287824,0.034668,1.923847,0.020608,-0.122784,0.982098,0.989958,0
38.328863,0.041039,1.924069,0.020123,-0.123508,0.983073,0.991005,0
38.365489,0.036625,1.924585,0.019881,-0.184538,0.984048,1.001399,0
38.402413,0.036924,1.924752,0.021578,-0.123508,0.982586,0.990553,0
38.437201,0.034788,1.924807,0.019638,-0.123266,0.983561,0.991449,0
38.477919,0.040718,1.924679,0.020365,-0.062236,0.982586,0.984765,0
38.516641,0.038722,1.924888,0.018911,-0.123025,0.983804,0.991647,0
38.550066,0.033425,1.925089,0.020123,-0.122784,0.983804,0.991641,0
38.593784,0.043718,1.9254,0.02182,-0.123508,0.984048,0.992008,0
38.648672,0.054888,1.925631,0.020365,-0.123025,0.983804,0.991676,0
38.689254,0.040582,1.925826,0.02085,-0.124473,0.984048,0.992108,0
38.722137,0.032884,1.92575,0.019396,-0.122784,0.984535,0.992352,0
38.756851,0.034714,1.925582,0.019881,-0.061754,0.984779,0.986914,0
38.813265,0.056413,1.925457,0.020608,-0.123749,0.984292,0.992254,0
38.855473,0.042208,1.925507,0.020123,-0.123749,0.984292,0.992244,0
38.893047,0.037574,1.925524,0.02085,-0.123266,0.983561,0.991474,0
38.937239,0.044192,1.925699,0.020608,-0.123749,0.984779,0.992738,0
38.977174,0.039935,1.925578,0.020608,-0.12399,0.984779,0.992768,0
39.012804,0.03563,1.925382,0.019396,-0.122543,0.984779,0.992564,0
39.052788,0.039984,1.925227,0.020123,-0.123749,0.984048,0.992003,0
39.096415,0.043627,1.92508,0.021093,-0.123749,0.983804,0.991781,0
39.137209,0.040794,1.924895,0.020608,-0.123508,0.984292,0.992224,0
39.169757,0.032548,1.924538,0.021093,-0.123508,0.984779,0.992718,0
39.207321,0.037564,1.924583,0.020608,-0.123266,0.984779,0.992678,0
39.241176,0.033855,1.924689,0.019881,-0.122784,0.983804,0.991636,0
39.281082,0.039907,1.924512,0.020123,-0.12399,0.983804,0.991791,0
39.329283,0.048201,1.924552,0.020123,-0.123025,0.982342,0.99022,0
39.371639,0.042356,1.924654,0.019638,-0.12399,0.984048,0.992023,0
39.407962,0.036322,1.924865,0.020123,-0.12399,0.982829,0.990824,0
39.45416,0.046198,1.924991,0.019881,-0.122784,0.982098,0.989944,0
39.509313,0.055153,1.925237,0.019638,-0.12399,0.981855,0.989847,0
39.540752,0.031439,1.925001,0.019153,-0.12399,0.98088,0.988871,0
39.570553,0.029801,1.924906,0.020123,-0.123266,0.981124,0.989041,0
39.608193,0.03764,1.924482,0.02085,-0.123266,0.982098,0.990023,0
39.658656,0.050463,1.924177,0.019881,-0.123025,0.982098,0.989974,0
39.695486,0.03683,1.923909,0.019638,-0.12399,0.981855,0.989847,0
39.735022,0.039536,1.923834,0.020608,-0.123508,0.983561,0.991499,0
39.78247,0.047447,1.924243,0.020123,-0.123508,0.983073,0.991005,0
39.82656,0.04409,1.924602,0.019396,-0.184538,0.983561,1.00091,0
39.870676,0.044116,1.924582,0.020365,-0.123266,0.983317,0.991222,0
39.908617,0.037942,1.924775,0.018668,-0.184297,0.982829,1.000134,0
39.959537,0.05092,1.92497,0.020123,-0.123025,0.982098,0.989978,0
40.000339,0.040802,1.925319,0.019396,-0.123266,0.982342,0.990236,0
40.040505,0.040166,1.925708,0.019638,-0.12399,0.984292,0.992265,0
40.084543,0.044038,1.926066,0.020365,-0.123749,0.98088,0.988865,0
40.135572,0.051028,1.926124,0.020365,-0.061754,0.983317,0.985464,0
40.171268,0.035696,1.926525,0.018911,-0.18502,0.981367,0.998835,0
40.222077,0.05081,1.926958,0.020608,-0.12399,0.983317,0.991317,0
40.269933,0.047856,1.926996,0.020608,-0.123749,0.982829,0.990804,0
40.311811,0.041878,1.92695,0.021335,-0.124231,0.983561,0.991605,0
40.361219,0.049408,1.92681,0.021335,-0.123749,0.983073,0.991061,0
40.402325,0.041107,1.926634,0.020365,-0.122784,0.981124,0.988986,0
40.440653,0.038328,1.926556,0.021093,-0.12206,0.983073,0.990846,0
40.484484,0.043831,1.926586,0.020123,-0.123025,0.982829,0.990704,0
40.523,0.038516,1.926615,0.020123,-0.123266,0.982098,0.990008,0
40.560496,0.037496,1.926443,0.019881,-0.122784,0.982098,0.989944,0
40.597636,0.03714,1.926217,0.020365,-0.12399,0.981611,0.98962,0
40.638053,0.040417,1.92557,0.018668,-0.122784,0.981855,0.989678,0
40.673652,0.035599,1.924881,0.018668,-0.123749,0.982342,0.990282,0
40.70596,0.032307,1.924477,0.020608,-0.124231,0.981855,0.989897,0
40.745765,0.039806,1.924216,0.020123,-0.122302,0.981367,0.989163,0
40.789958,0.044192,1.924017,0.020123,-0.123508,0.984048,0.991972,0
40.834009,0.044052,1.923777,0.019881,-0.122784,0.983073,0.990911,0
40.874406,0.040397,1.923339,0.018911,-0.123749,0.982098,0.990045,0
40.914773,0.040367,1.923276,0.019881,-0.063442,0.981367,0.983617,0
40.948714,0.033941,1.923206,0.019881,-0.123508,0.982342,0.990275,0
40.981968,0.033255,1.923151,0.019153,-0.122784,0.981611,0.989446,0
41.020721,0.038752,1.923124,0.021093,-0.122543,0.984048,0.991873,0
41.050741,0.030021,1.923236,0.020123,-0.12399,0.982586,0.990582,0
41.088088,0.037346,1.923294,0.020123,-0.123508,0.984048,0.991972,0
41.132003,0.043916,1.923304,0.02085,-0.124231,0.982586,0.990627,0
41.162493,0.030489,1.92336,0.019881,-0.122543,0.981855,0.989672,0
41.201123,0.038631,1.923237,0.021093,-0.124231,0.983073,0.991116,0
41.233204,0.032081,1.923383,0.020123,-0.184538,0.983561,1.000925,0
41.277182,0.043978,1.923622,0.019396,-0.123266,0.983073,0.990961,0
41.30776,0.030578,1.923367,0.020123,-0.062719,0.981367,0.983575,0
41.346285,0.038525,1.923492,0.020365,-0.123266,0.984779,0.992673,0
41.389574,0.043289,1.923698,0.020123,-0.123025,0.983804,0.991671,0
41.426444,0.03687,1.923588,0.019396,-0.123749,0.983317,0.991263,0
41.469165,0.042722,1.923705,0.020365,-0.123025,0.982829,0.990709,0
41.502347,0.033182,1.923753,0.020365,-0.123508,0.982342,0.990285,0
41.541142,0.038795,1.923728,0.021335,-0.122784,0.981855,0.989732,0
41.581428,0.040287,1.923527,0.02085,-0.123508,0.980636,0.988603,0
41.620704,0.039276,1.92338,0.020608,-0.184779,0.981124,0.998585,0
41.65647,0.035766,1.923102,0.019396,-0.123508,0.981367,0.989299,0
41.691951,0.035482,1.922929,0.019153,-0.123749,0.981611,0.989566,0
41.722756,0.030804,1.922799,0.020365,-0.123025,0.983561,0.991434,0
41.754973,0.032218,1.922881,0.019396,-0.121819,0.981367,0.989089,0
41.788925,0.033952,1.923101,0.021335,-0.122543,0.981855,0.989702,0
41.833601,0.044676,1.9231,0.019638,-0.123025,0.982342,0.99021,0
41.870587,0.036986,1.923051,0.021093,-0.123266,0.982342,0.99027,0
41.905158,0.034571,1.922627,0.018668,-0.123266,0.981124,0.989013,0
41.938923,0.033765,1.922137,0.020365,-0.061754,0.980636,0.98279,0
41.977582,0.038659,1.921748,0.02085,-0.124473,0.981124,0.989208,0
42.009966,0.032384,1.921651,0.019881,-0.12399,0.982829,0.990819,0
42.050371,0.040405,1.921636,0.020365,-0.122784,0.980636,0.988503,0
42.094949,0.044578,1.921579,0.020123,-0.124231,0.979905,0.987954,0
42.137138,0.04219,1.921318,0.02182,-0.12399,0.982342,0.990376,0
42.181189,0.04405,1.92092,0.019153,-0.122784,0.979661,0.987512,0
42.22745,0.046262,1.920768,0.021093,-0.184779,0.980636,0.998116,0
42.268658,0.041208,1.92063,0.020608,-0.124231,0.98088,0.98893,0
42.310095,0.041437,1.920362,0.019881,-0.123266,0.983317,0.991212,0
42.353298,0.043203,1.920061,0.020123,-0.122784,0.98088,0.98874,0
42.384494,0.031195,1.919732,0.020123,-0.12399,0.978199,0.986231,0
42.415416,0.030922,1.919658,0.020123,-0.122784,0.982098,0.989948,0
42.457801,0.042385,1.919821,0.021093,-0.122784,0.981367,0.989243,0
42.485415,0.027614,1.920138,0.019153,-0.122302,0.980149,0.987935,0
42.561179,0.075763,1.92029,0.020608,-0.123025,0.982586,0.990472,0
42.625161,0.063982,1.920262,0.019638,-0.123266,0.982098,0.989999,0
42.6582,0.033039,1.920218,0.019881,-0.124714,0.981855,0.989943,0
42.702306,0.044106,1.920394,0.020608,-0.061754,0.982098,0.984254,0
42.750766,0.04846,1.920605,0.020608,-0.123508,0.982342,0.99029,0
42.801369,0.050603,1.920622,0.020123,-0.12399,0.982342,0.99034,0
42.844695,0.043326,1.920706,0.019396,-0.123266,0.983561,0.991444,0
42.884622,0.039927,1.920889,0.020123,-0.12206,0.983561,0.99131,0
42.923809,0.039187,1.921023,0.019638,-0.124231,0.983317,0.991328,0
42.9542,0.030391,1.921052,0.019881,-0.123266,0.983073,0.99097,0
43.011335,0.057135,1.920918,0.019881,-0.123025,0.982586,0.990457,0
43.051346,0.040011,1.920874,0.020123,-0.123025,0.982829,0.990704,0
43.094714,0.043368,1.920989,0.019153,-0.123508,0.983561,0.99147,0
43.138469,0.043755,1.920964,0.021093,-0.124473,0.980392,0.988488,0
43.184522,0.046053,1.921236,0.019881,-0.12399,0.983317,0.991303,0
43.219524,0.035002,1.921448,0.019153,-0.183332,0.983317,1.000445,0
43.249071,0.029546,1.921441,0.021335,-0.123266,0.982342,0.990276,0
43.289156,0.040085,1.921494,0.021578,-0.12399,0.983561,0.99158,0
43.32945,0.040294,1.921564,0.019881,-0.123025,0.982829,0.990699,0
43.378509,0.049059,1.921662,0.021093,-0.123749,0.983317,0.991297,0
43.41971,0.041201,1.92167,0.020123,-0.123749,0.985023,0.992969,0
43.454196,0.034486,1.921955,0.020365,-0.123266,0.984048,0.991947,0
43.49852,0.044324,1.922312,0.021578,-0.122784,0.984048,0.991913,0
43.535276,0.036756,1.922442,0.021578,-0.123749,0.984535,0.992517,0
43.587695,0.052418,1.922366,0.018183,-0.122302,0.983561,0.991302,0
43.629179,0.041485,1.922257,0.020123,-0.122543,0.983073,0.990886,0
43.685628,0.056449,1.922068,0.019638,-0.123749,0.984048,0.991993,0
43.736053,0.050425,1.922117,0.019881,-0.123025,0.983073,0.99094,0
43.767632,0.031579,1.922386,0.020608,-0.123749,0.982098,0.990079,0
43.798983,0.031351,1.922749,0.019881,-0.123025,0.983561,0.991424,0
43.840187,0.041204,1.922733,0.019638,-0.123266,0.982098,0.989999,0
43.890411,0.050225,1.922628,0.020608,-0.124231,0.984292,0.992314,0
43.929372,0.03896,1.922723,0.019881,-0.123025,0.983561,0.991424,0
43.972891,0.043519,1.922521,0.019881,-0.123266,0.983561,0.991454,0
44.018683,0.045792,1.922184,0.020608,-0.122543,0.983804,0.991621,0
44.05984,0.041157,1.922439,0.020365,-0.123508,0.983073,0.99101,0
44.101921,0.042081,1.922516,0.020123,-0.123266,0.981855,0.989767,0
44.147731,0.04581,1.922981,0.021093,-0.184538,0.983804,1.001184,0
44.202507,0.054777,1.92311,0.020123,-0.123266,0.982829,0.990734,0
44.23672,0.034213,1.923054,0.021578,-0.123266,0.981611,0.989556,0
44.2797,0.04298,1.92357,0.02085,-0.184297,0.982098,0.999458,0
44.316352,0.036651,1.923674,0.020608,-0.123508,0.982342,0.99029,0
44.353302,0.03695,1.923673,0.021335,-0.123266,0.981124,0.989067,0
44.38857,0.035268,1.923813,0.020123,-0.123025,0.982098,0.989978,0
44.424936,0.036366,1.924175,0.020365,-0.123508,0.982586,0.990527,0
44.461833,0.036897,1.924122,0.021335,-0.12399,0.982586,0.990608,0
44.510345,0.048512,1.923581,0.019396,-0.062478,0.983317,0.98549,0
44.560259,0.049914,1.923442,0.020123,-0.061995,0.981855,0.984016,0
44.600538,0.040279,1.923898,0.018911,-0.184055,0.983317,1.000573,0
44.635857,0.035318,1.924085,0.019153,-0.124473,0.983561,0.99159,0
44.685308,0.049452,1.92468,0.020365,-0.184779,0.981855,0.999298,0
44.729673,0.044365,1.924584,0.020608,-0.12399,0.982829,0.990834,0
44.761808,0.032134,1.924232,0.021093,-0.122784,0.982586,0.990452,0
44.815928,0.054121,1.923751,0.019881,-0.123025,0.982586,0.990457,0
44.849388,0.033459,1.923475,0.02085,-0.123749,0.981367,0.989358,0
44.877288,0.0279,1.923295,0.020123,-0.124473,0.981124,0.989192,0
44.913295,0.036007,1.923041,0.02085,-0.123266,0.982586,0.990507,0
44.951519,0.038224,1.922973,0.019881,-0.122543,0.982098,0.989914,0
44.981788,0.030269,1.922872,0.021093,-0.123266,0.982342,0.99027,0
45.020632,0.038844,1.922766,0.020123,-0.123025,0.981855,0.989737,0
45.050091,0.029459,1.923084,0.019638,-0.184055,0.983804,1.001066,0
45.107627,0.057537,1.923033,0.019881,-0.122543,0.983561,0.991364,0
45.14552,0.037893,1.922958,0.020365,-0.12206,0.983317,0.991073,0
45.177048,0.031528,1.922906,0.020608,-0.12399,0.982586,0.990592,0
45.219028,0.04198,1.922355,0.02085,-0.062236,0.983804,0.985991,0
45.262072,0.043043,1.922158,0.019638,-0.123508,0.983804,0.991721,0
45.301431,0.039359,1.921895,0.020365,-0.123266,0.981367,0.989288,0
45.342929,0.041498,1.921891,0.019881,-0.123266,0.983317,0.991212,0
45.384742,0.041812,1.921814,0.021093,-0.12399,0.983317,0.991328,0
45.41773,0.032989,1.921575,0.02085,-0.06296,0.983317,0.985551,0
45.455147,0.037417,1.921564,0.019881,-0.123749,0.984048,0.991998,0
45.489522,0.034375,1.921803,0.020365,-0.123266,0.983317,0.991222,0
45.52566,0.036138,1.921498,0.02085,-0.123266,0.984292,0.992199,0
45.61062,0.084961,1.921331,0.019881,-0.122784,0.982829,0.990669,0
45.644741,0.03412,1.92141,0.019153,-0.122302,0.982829,0.990595,0
45.683229,0.038489,1.92144,0.02085,-0.061995,0.984535,0.986706,0
45.714118,0.030889,1.921403,0.020123,-0.123749,0.984535,0.992486,0
45.751299,0.037181,1.921546,0.019881,-0.123025,0.985023,0.992875,0
45.784449,0.03315,1.921631,0.021093,-0.123749,0.98551,0.993473,0
45.832842,0.048393,1.921732,0.018911,-0.123025,0.984048,0.991889,0
45.861255,0.028413,1.92198,0.020608,-0.124231,0.983073,0.991106,0
45.924778,0.063523,1.921965,0.020123,-0.124714,0.984048,0.992123,0
45.957691,0.032913,1.92221,0.020123,-0.123508,0.983804,0.991731,0
45.994317,0.036626,1.922556,0.021093,-0.124473,0.985023,0.99308,0
46.040359,0.046042,1.923,0.020608,-0.123266,0.983804,0.991711,0
46.078128,0.037769,1.923509,0.020608,-0.12399,0.984535,0.992526,0
46.133936,0.055809,1.923751,0.020608,-0.122543,0.984535,0.992346,0
46.18071,0.046773,1.923803,0.020123,-0.123025,0.98551,0.993363,0
46.22088,0.04017,1.923694,0.02085,-0.123749,0.984292,0.992259,0
46.259894,0.039015,1.923737,0.022547,-0.124231,0.985997,0.994049,0
46.298579,0.038684,1.923718,0.020123,-0.123508,0.984535,0.992456,0
46.340427,0.041848,1.924088,0.019638,-0.184538,0.985997,1.00331,0
46.375593,0.035166,1.924207,0.020365,-0.123749,0.985266,0.993216,0
46.432129,0.056536,1.924283,0.022305,-0.062236,0.984048,0.986266,0
46.468349,0.03622,1.924522,0.019881,-0.124231,0.985023,0.993025,0
46.506956,0.038607,1.924591,0.019153,-0.122302,0.985023,0.992771,0
46.552186,0.04523,1.924709,0.02085,-0.123749,0.984292,0.992259,0
46.593312,0.041125,1.92492,0.020123,-0.12206,0.984779,0.992519,0
46.635914,0.042602,1.925436,0.020123,-0.123266,0.984292,0.992184,0
46.680919,0.045005,1.925382,0.020365,-0.061754,0.984535,0.98668,0
46.719622,0.038704,1.925578,0.019396,-0.124231,0.985023,0.993015,0
46.764509,0.044887,1.925672,0.019638,-0.123025,0.985997,0.993837,0
46.806688,0.042179,1.925794,0.020123,-0.122543,0.983561,0.991369,0
46.849441,0.042753,1.926019,0.020365,-0.122543,0.984048,0.991858,0
46.892519,0.043078,1.9261,0.020123,-0.123508,0.984292,0.992214,0
46.930428,0.037908,1.925913,0.021335,-0.122784,0.985023,0.992875,0
46.97824,0.047813,1.925748,0.019153,-0.122784,0.984535,0.992347,0
47.015786,0.037545,1.925781,0.021578,-0.122784,0.984779,0.992638,0
47.056464,0.040679,1.925806,0.019396,-0.124473,0.98551,0.993529,0
47.102499,0.046034,1.925608,0.020608,-0.062478,0.984292,0.986488,0
47.153044,0.050545,1.925642,0.02085,-0.123508,0.984535,0.992471,0
47.200252,0.047208,1.925645,0.02085,-0.122543,0.985266,0.993077,0
47.246135,0.045882,1.925653,0.021335,-0.184538,0.985754,1.003105,0
47.278579,0.032444,1.925462,0.020608,-0.123025,0.983561,0.991439,0
47.319132,0.040554,1.92543,0.021578,-0.123266,0.985266,0.993182,0
47.35422,0.035088,1.925449,0.019396,-0.123749,0.984535,0.992472,0
47.389774,0.035554,1.925453,0.019153,-0.123025,0.985023,0.99286,0
47.429202,0.039428,1.925674,0.020123,-0.122784,0.984292,0.992124,0
47.461147,0.031945,1.925399,0.019638,-0.124231,0.984535,0.992537,0
47.498787,0.03764,1.925461,0.020365,-0.183332,0.985754,1.002864,0
47.54352,0.044733,1.925297,0.020123,-0.123266,0.985997,0.993877,0
47.577732,0.034212,1.92496,0.021578,-0.124473,0.985023,0.99309,0
47.611933,0.0342,1.924832,0.017699,-0.122784,0.98551,0.993287,0
47.649916,0.037984,1.924836,0.018183,-0.123749,0.984535,0.992449,0
47.687607,0.037691,1.924955,0.019881,-0.121819,0.984779,0.992484,0
47.731043,0.043436,1.92478,0.020123,-0.122302,0.984535,0.992307,0
47.772461,0.041418,1.924958,0.019638,-0.123508,0.984292,0.992204,0
47.815773,0.043312,1.924918,0.019153,-0.124955,0.983317,0.991409,0
47.848629,0.032856,1.924669,0.021093,-0.123508,0.984048,0.991993,0
47.884974,0.036345,1.924545,0.02085,-0.183573,0.985023,1.002199,0
47.915997,0.031023,1.924394,0.021578,-0.123508,0.984779,0.992728,0
47.964228,0.048231,1.923959,0.019881,-0.122543,0.983561,0.991364,0
48.009211,0.044983,1.923785,0.018426,-0.123508,0.984292,0.992181,0
48.049444,0.040233,1.923599,0.022305,-0.119648,0.979905,0.987435,0
48.086822,0.037378,1.923432,0.018911,-0.122784,0.985023,0.992826,0
48.131203,0.044381,1.92312,0.019153,-0.122784,0.983804,0.991622,0
48.170668,0.039465,1.923184,0.018911,-0.122784,0.984048,0.991859,0
48.220074,0.049405,1.92334,0.023517,-0.123266,0.982829,0.990808,0
48.258507,0.038433,1.923488,0.020123,-0.122302,0.984048,0.991823,0
48.298903,0.040397,1.923235,0.017214,-0.123025,0.982829,0.990649,0
48.325142,0.026239,1.922825,0.021093,-0.062719,0.983317,0.985541,0
48.361824,0.036682,1.922535,0.019881,-0.121819,0.984779,0.992484,0
48.391356,0.029531,1.922329,0.018426,-0.124473,0.985997,0.993994,0
48.428966,0.03761,1.922418,0.02182,-0.123266,0.98551,0.993429,0
48.465642,0.036676,1.922268,0.021335,-0.124955,0.984779,0.992904,0
48.510538,0.044896,1.922252,0.020365,-0.124955,0.986485,0.994576,0
48.548795,0.038257,1.922195,0.020608,-0.124473,0.984292,0.992345,0
48.581156,0.032361,1.922116,0.020365,-0.124231,0.984292,0.992309,0
48.620187,0.039031,1.922069,0.02085,-0.123266,0.982829,0.990749,0
48.667074,0.046887,1.922471,0.019153,-0.18502,0.982586,1.000037,0
48.709325,0.042251,1.922372,0.020123,-0.124473,0.984535,0.992576,0
48.74314,0.033815,1.922413,0.021335,-0.121095,0.984535,0.992184,0
48.780837,0.037698,1.922318,0.020365,-0.124231,0.981611,0.989651,0
48.827123,0.046285,1.922196,0.019881,-0.12399,0.984535,0.992511,0
48.866734,0.039611,1.922117,0.021335,-0.124473,0.98551,0.993569,0
48.902319,0.035586,1.922285,0.020365,-0.12399,0.983804,0.991796,0
48.957198,0.054879,1.922,0.019638,-0.123025,0.984779,0.992628,0
48.995335,0.038136,1.921403,0.020123,-0.062719,0.983804,0.986007,0
49.037318,0.041983,1.920923,0.021093,-0.12206,0.984535,0.992297,0
49.085845,0.048528,1.920206,0.020123,-0.062236,0.981611,0.983788,0
49.125676,0.03983,1.919626,0.020608,-0.061754,0.984535,0.986685,0
49.173995,0.048319,1.919231,0.02085,-0.124473,0.984535,0.992591,0
49.281414,0.107419,1.918922,0.019638,-0.122302,0.983073,0.990846,0
49.329934,0.04852,1.918728,0.020365,-0.12399,0.982829,0.990829,0
49.367471,0.037537,1.918635,0.019396,-0.124231,0.980392,0.988422,0
49.411807,0.044335,1.918481,0.019638,-0.123508,0.980636,0.988578,0
49.457855,0.046048,1.918197,0.019638,-0.123266,0.979174,0.987098,0
49.49393,0.036075,1.917847,0.019881,-0.12399,0.979661,0.987677,0
49.533967,0.040036,1.917612,0.02182,-0.123025,0.979418,0.987355,0
49.579117,0.04515,1.917482,0.02085,-0.124955,0.981855,0.989993,0
49.637168,0.058052,1.917343,0.019638,-0.124231,0.981611,0.989636,0
49.667284,0.030115,1.917243,0.02182,-0.123266,0.982098,0.990044,0
49.701682,0.034399,1.917444,0.019638,-0.123749,0.982342,0.990301,0
49.734224,0.032542,1.917439,0.019638,-0.061995,0.982342,0.984492,0
49.770131,0.035907,1.91763,0.02085,-0.124955,0.982098,0.990235,0
49.802165,0.032034,1.917616,0.019638,-0.124714,0.981367,0.989455,0
49.839855,0.03769,1.917882,0.019881,-0.123025,0.98088,0.988765,0
49.87787,0.038014,1.918237,0.019638,-0.123749,0.981855,0.989817,0
49.910447,0.032578,1.918533,0.019153,-0.123266,0.982586,0.990473,0
49.962643,0.052196,1.918704,0.020365,-0.123266,0.982829,0.990739,0
50.00411,0.041467,1.918418,0.020608,-0.062236,0.981611,0.983798,0
50.046059,0.041949,1.918069,0.019638,-0.061754,0.982098,0.984234,0
50.098861,0.052803,1.918169,0.020608,-0.123266,0.98088,0.98881,0
50.142443,0.043582,1.918706,0.020365,-0.123266,0.983561,0.991464,0
50.192113,0.049669,1.919039,0.018911,-0.123025,0.982342,0.990196,0
50.223223,0.03111,1.918981,0.018668,-0.123266,0.98088,0.988771,0
50.263515,0.040292,1.918965,0.019881,-0.123508,0.982586,0.990517,0
50.29759,0.034076,1.919083,0.019881,-0.123508,0.983317,0.991242,0
50.345358,0.047767,1.91925,0.019638,-0.121819,0.980392,0.988127,0
50.375864,0.030506,1.919198,0.020123,-0.123266,0.982342,0.99025,0
50.417297,0.041433,1.91946,0.02085,-0.12399,0.983073,0.991081,0
50.45575,0.038453,1.919561,0.019881,-0.124231,0.981124,0.989157,0
50.493555,0.037804,1.919613,0.019153,-0.061995,0.98088,0.983024,0
50.530915,0.03736,1.919806,0.020365,-0.12399,0.981367,0.989379,0
50.565168,0.034254,1.920022,0.02085,-0.123749,0.981611,0.9896,0
50.597847,0.032679,1.920013,0.020608,-0.122784,0.981124,0.988991,0
50.635433,0.037586,1.920368,0.020365,-0.12399,0.982098,0.990104,0
