timestamp,dt,heading_rad,accel_x,accel_y,accel_z,accel_norm,step_event
0.000743,0.000743,1.718486,0.011395,0.002185,0.995502,0.995569,0
0.131712,0.130968,1.71852,0.014304,0.003156,0.995502,0.995609,0
0.158597,0.026885,1.718622,0.013092,0.002428,0.997207,0.997296,0
0.185613,0.027016,1.718655,0.01285,0.001942,0.999157,0.999242,0
0.214661,0.029048,1.718482,0.011153,0.001942,0.995014,0.995079,0
0.245647,0.030986,1.71807,0.009698,0.000728,0.996233,0.99628,0
0.270576,0.024929,1.717308,0.00897,0.000728,0.99672,0.996761,0
0.297379,0.026803,1.716394,0.00994,0.001214,0.99672,0.99677,0
0.324102,0.026723,1.715462,0.013819,0.005099,0.998182,0.998291,0
0.359044,0.034942,1.714251,0.012607,0.001942,0.998913,0.998995,0
0.392791,0.033747,1.713313,0.007273,0.001214,0.996233,0.99626,0
0.419499,0.026708,1.712591,0.008486,0.000971,0.992577,0.992614,0
0.446233,0.026734,1.711807,0.016001,0.002185,0.997695,0.997826,0
0.480155,0.033922,1.71105,0.015032,0.005827,0.999888,1.000018,0
0.506818,0.026663,1.709992,0.016244,0.007284,0.997939,0.998097,0
0.540955,0.034137,1.708803,0.023032,0.000728,0.99672,0.996986,0
0.567806,0.026851,1.707608,0.008728,0.007284,0.987216,0.987281,0
0.601505,0.033699,1.706762,0.010668,-0.002171,1.000132,1.000191,0
0.628072,0.026567,1.705911,0.008243,0.061427,0.993308,0.99524,0
0.655009,0.026937,1.705099,0.006788,0.001942,0.999157,0.999182,0
0.688669,0.03366,1.704273,0.010668,0.060941,0.998426,1.000341,0
0.715473,0.026804,1.703568,0.008486,0.002914,0.991602,0.991643,0
0.742201,0.026728,1.703027,0.014547,0.002185,0.999157,0.999265,0
0.777502,0.035301,1.702675,0.013819,0.003885,0.994283,0.994387,0
0.812634,0.035132,1.702083,0.014547,0.005099,0.998182,0.998301,0
0.839379,0.026746,1.701305,0.015274,0.003642,0.999644,0.999768,0
0.873531,0.034152,1.700581,0.008243,0.001214,0.997207,0.997242,0
0.90026,0.026729,1.699828,0.005334,-0.001689,0.936283,0.9363,0
0.92693,0.02667,1.699073,0.008243,0.001457,0.992577,0.992613,0
0.96064,0.03371,1.699005,0.014789,0.001457,0.995258,0.995369,0
0.987351,0.026711,1.699057,0.015274,0.002428,0.999157,0.999277,0
1.014323,0.026972,1.698955,0.013819,0.00437,0.999157,0.999262,0
1.046063,0.03174,1.698763,0.013819,0.002428,0.997451,0.99755,0
1.076811,0.030748,1.698827,0.01188,0.002914,0.99672,0.996795,0
1.106877,0.030067,1.699173,0.01285,0.00437,0.998913,0.999006,0
1.134831,0.027954,1.6995,0.012607,0.005584,0.998426,0.998521,0
1.161531,0.0267,1.699749,0.01091,0.001214,0.936771,0.936835,0
1.195263,0.033732,1.700033,0.009455,-0.000482,0.995258,0.995303,0
1.221945,0.026683,1.700078,0.008243,0.000971,0.936283,0.93632,0
1.248668,0.026723,1.700025,0.01188,0.00437,0.998182,0.998263,0
1.282574,0.033905,1.699839,0.014789,0.004127,0.998182,0.9983,0
1.309641,0.027068,1.699517,0.014547,0.004127,0.997939,0.998053,0
1.343406,0.033765,1.699217,0.00994,0.001942,0.998913,0.998965,0
1.370199,0.026793,1.699024,0.008243,0.001214,0.991115,0.99115,0
1.403984,0.033785,1.698965,0.008486,0.001214,0.996476,0.996513,0
1.430748,0.026765,1.69891,0.010668,0.004613,0.995258,0.995326,0
1.457536,0.026787,1.69882,0.01188,0.0017,0.994527,0.994599,0
1.491314,0.033778,1.698817,0.012122,0.0017,0.995502,0.995577,0
1.518041,0.026728,1.698807,0.01091,0.005099,0.935796,0.935873,0
1.544818,0.026777,1.69887,0.011395,0.002428,0.936771,0.936843,0
1.578666,0.033848,1.698893,0.012607,0.002428,0.994527,0.99461,0
1.605384,0.026718,1.698745,0.012607,0.002185,0.998426,0.998508,0
1.639183,0.033799,1.698319,0.01091,0.001942,0.996476,0.996538,0
1.666164,0.026981,1.697853,0.010183,0.000971,0.995502,0.995554,0
1.700016,0.033852,1.69754,0.008728,0.0017,0.995745,0.995785,0
1.726781,0.026765,1.697217,0.01091,0.002185,1.057888,1.057947,0
1.753772,0.026991,1.696852,0.011395,0.001942,0.995014,0.995081,0
1.78408,0.030308,1.696417,0.012122,0.002185,0.996233,0.996309,0
1.810889,0.02681,1.69625,0.012365,0.003156,0.995745,0.995827,0
1.83776,0.026871,1.696227,0.011637,0.003156,0.995014,0.995087,0
1.864563,0.026803,1.696149,0.010183,0.002185,0.993796,0.99385,0
1.891385,0.026822,1.696161,0.00994,0.001214,0.993065,0.993115,0
1.918219,0.026834,1.696224,0.00897,0.001214,0.992577,0.992619,0
1.945014,0.026795,1.696443,0.00994,0.0017,0.995258,0.995309,0
1.978856,0.033842,1.696746,0.010183,0.002428,0.993796,0.993851,0
2.005788,0.026932,1.697037,0.01091,0.002185,0.994039,0.994102,0
2.039708,0.03392,1.697322,0.011395,0.003885,0.994283,0.994356,0
2.066657,0.026949,1.697523,0.01285,0.002914,0.994771,0.994858,0
2.100473,0.033816,1.697392,0.01091,0.004127,0.993796,0.993864,0
2.127254,0.026781,1.697276,0.011395,0.002185,0.994039,0.994107,0
2.161048,0.033795,1.697262,0.00994,0.001457,0.994039,0.99409,0
2.187787,0.026738,1.697189,0.010425,0.0017,0.994527,0.994583,0
2.214652,0.026866,1.697149,0.00994,0.001942,0.995014,0.995066,0
2.248356,0.033704,1.697238,0.00994,0.002671,0.994771,0.994824,0
2.275328,0.026972,1.69739,0.01188,0.003156,0.993308,0.993384,0
2.310039,0.03471,1.697664,0.011637,0.003399,0.992821,0.992895,0
2.341654,0.031615,1.697792,0.010668,0.001942,0.993552,0.993611,0
2.368421,0.026767,1.697793,0.01091,0.003156,0.992334,0.992399,0
2.395313,0.026892,1.697881,0.010425,0.002428,0.994771,0.994828,0
2.422001,0.026688,1.697937,0.01091,0.003885,0.993552,0.99362,0
2.448825,0.026824,1.697981,0.011637,0.002185,0.99209,0.992161,0
2.475586,0.026761,1.698083,0.010183,0.001942,0.994527,0.994581,0
2.509309,0.033723,1.698169,0.010668,0.002671,0.993065,0.993126,0
2.536114,0.026805,1.698424,0.012122,0.002185,0.993552,0.993628,0
2.569993,0.033879,1.698733,0.011153,0.002671,0.994039,0.994106,0
2.596849,0.026857,1.69884,0.011153,0.002428,0.994527,0.994592,0
2.62354,0.02669,1.698819,0.010183,0.002185,0.993552,0.993607,0
2.658447,0.034907,1.698935,0.010183,0.002185,0.994771,0.994825,0
2.692188,0.033741,1.698893,0.010183,0.0017,0.993796,0.993849,0
2.719132,0.026945,1.698652,0.010425,0.002914,0.993308,0.993367,0
2.752939,0.033807,1.698268,0.01188,0.002671,0.994039,0.994114,0
2.779769,0.026829,1.697806,0.010425,0.003399,0.995014,0.995075,0
2.81355,0.033781,1.697638,0.011395,0.0017,0.994039,0.994106,0
2.840478,0.026928,1.697736,0.01091,0.002428,0.995014,0.995077,0
2.867338,0.02686,1.697703,0.010425,0.0017,0.997207,0.997263,0
2.901247,0.033908,1.697211,0.011395,0.003156,0.995258,0.995328,0
2.927979,0.026732,1.696577,0.011153,0.002428,0.994771,0.994836,0
2.961846,0.033867,1.695894,0.008243,0.002671,0.995989,0.996027,0
2.988591,0.026745,1.695291,0.010668,0.002671,0.996233,0.996293,0
3.022623,0.034032,1.694827,0.00897,0.0017,0.995502,0.995544,0
3.049554,0.026931,1.694542,0.008728,0.0017,1.058132,1.058169,0
3.083374,0.03382,1.694434,0.009455,0.0017,0.99672,0.996766,0
3.11007,0.026695,1.694365,0.010425,0.001457,0.996964,0.997019,0
3.136819,0.026749,1.69436,0.012365,0.002914,0.995258,0.995339,0
3.170582,0.033764,1.694418,0.011153,0.002428,0.994527,0.994592,0
3.197302,0.02672,1.696473,0.059157,0.024036,0.991846,0.993899,0
3.223943,0.026641,1.697102,-0.010861,0.02525,0.951392,0.951789,0
3.257674,0.033731,1.699754,0.012122,-0.004825,0.997207,0.997293,0
3.284694,0.02702,1.714379,-0.017772,0.047102,1.00135,1.002615,0
3.316006,0.031312,1.714361,0.001697,0.009712,0.967476,0.967527,0
3.343245,0.027239,1.708747,-0.00543,0.048801,0.974787,0.976023,0
3.370153,0.026908,1.708211,0.016729,0.064826,0.950661,0.953016,0
3.396836,0.026683,1.709523,0.004364,-0.028465,0.991846,0.992264,0
3.423562,0.026726,1.704131,-0.013329,-0.065855,0.939939,0.942337,0
3.457268,0.033706,1.703561,0.006061,-0.014474,0.979661,0.979787,0
3.483968,0.0267,1.701652,-0.013823,-0.006513,0.993065,0.993182,0
3.510627,0.026659,1.702302,0.042186,0.03132,0.992821,0.99421,0
3.544316,0.03369,1.703698,-0.031348,-0.028947,1.00135,1.002259,0
3.571064,0.026748,1.705243,-0.150817,-0.065131,0.966502,0.980364,0
3.597723,0.026659,1.719333,0.097463,-0.030394,0.945544,0.951039,0
3.631418,0.033695,1.723806,0.159529,0.065797,0.937989,0.953731,0
3.658271,0.026852,1.726163,-0.001481,0.063369,0.987703,0.989735,0
3.685013,0.026742,1.72673,0.001212,0.019423,0.993308,0.993499,0
3.719647,0.034634,1.72864,0.001455,0.02258,0.989409,0.989668,0
3.753366,0.033719,1.732288,0.009455,-0.029671,0.984292,0.984784,0
3.78016,0.026795,1.73845,0.083159,0.036419,0.970888,0.975123,0
3.806848,0.026687,1.736581,-0.076519,0.11824,1.044485,1.053937,0
3.840675,0.033827,1.73373,0.068127,-0.003618,0.993065,0.995405,0
3.867354,0.026679,1.733233,0.036367,0.030835,1.059838,1.06091,0
3.901042,0.033687,1.734593,0.015517,-0.053552,0.988922,0.990492,0
3.927702,0.026661,1.736245,-0.001481,0.004613,0.991115,0.991127,0
3.954369,0.026666,1.737542,-0.01407,-0.013026,1.013535,1.013717,0
3.988055,0.033686,1.741536,0.050186,-0.001689,1.160241,1.161327,0
4.01477,0.026715,1.756626,-0.03826,0.018695,0.991846,0.99276,0
4.041453,0.026684,1.766279,-0.090095,0.100759,0.789578,0.801063,0
4.07516,0.033706,1.760573,-0.061215,0.04783,0.979905,0.98298,0
4.101876,0.026717,1.75062,0.022547,0.093961,0.971376,0.97617,0
4.128762,0.026886,1.729303,0.02182,0.07915,0.968208,0.971682,0
4.162486,0.033723,1.716237,-0.22931,-0.160656,1.178762,1.211558,1
4.189135,0.026649,1.707922,-0.147114,-0.008684,0.99672,1.007556,0
4.215795,0.02666,1.70126,-0.054304,0.101002,1.030107,1.03647,0
4.249449,0.033654,1.698361,-0.023449,0.040061,0.973569,0.974675,0
4.276132,0.026684,1.695448,-0.002468,0.099788,0.99867,1.003646,0
4.302817,0.026684,1.695019,0.001455,0.03909,0.997451,0.998218,0
4.335657,0.03284,1.699191,-0.15057,0.055842,0.951392,0.964851,0
4.363819,0.028162,1.720077,-0.031348,0.000728,1.055938,1.056404,0
4.397703,0.033884,1.730143,0.08922,0.117269,0.810048,0.823341,0
4.424451,0.026748,1.737021,0.390338,-0.0275,0.694536,0.797183,0
4.458144,0.033693,1.738403,0.00994,0.033263,1.015485,1.016078,0
4.484753,0.026609,1.736032,0.071279,0.058027,1.0033,1.007501,0
4.511412,0.026659,1.726812,0.014789,0.047102,0.938233,0.939531,0
4.545035,0.033623,1.71806,0.047035,0.007284,1.031569,1.032666,0
4.572535,0.0275,1.709206,-0.075779,0.016024,0.973325,0.976402,0
4.603762,0.031227,1.707153,-0.061709,-0.099626,0.997695,1.004554,0
4.631978,0.028216,1.706986,0.010668,0.001457,0.988434,0.988493,0
4.660139,0.028161,1.70473,0.000242,0.005099,0.998426,0.998439,0
4.692015,0.031876,1.699861,-0.011108,-0.021228,0.998426,0.998713,0
4.727278,0.035263,1.695382,0.06643,0.080122,1.001838,1.00723,0
4.755295,0.028017,1.686664,0.010183,0.027436,0.988434,0.988867,0
4.792978,0.037683,1.681919,0.019153,-0.006513,0.994283,0.994489,0
4.823132,0.030153,1.679308,0.018426,-0.014715,1.060081,1.060343,0
4.861198,0.038066,1.677321,0.009698,-0.013509,0.997207,0.997346,0
4.893777,0.03258,1.674294,0.02182,0.04176,0.997451,0.998563,0
4.927588,0.033811,1.670091,0.01285,-0.024123,0.936771,0.937169,0
4.962176,0.034588,1.664755,-0.008392,-0.042215,1.010611,1.011527,0
5.002011,0.039834,1.664793,0.034427,0.007527,0.999644,1.000265,0
5.050996,0.048985,1.663682,0.000727,0.046859,0.998426,0.999525,0
5.077082,0.026086,1.666351,0.011153,0.022094,1.000132,1.000438,0
5.109191,0.032109,1.673037,0.051883,0.040546,1.000132,1.002297,0
5.136847,0.027656,1.676032,-0.022462,0.032049,0.967476,0.968268,0
5.169805,0.032958,1.680622,0.00897,0.018209,0.978199,0.97841,0
5.196929,0.027124,1.682369,0.025457,0.019423,0.964065,0.964596,0
5.223729,0.0268,1.6811,0.00897,0.025736,0.972594,0.972976,0
5.250526,0.026797,1.679145,0.123163,0.089105,1.059106,1.06996,0
5.277431,0.026905,1.67494,-0.004937,-0.002653,0.984292,0.984308,0
5.311243,0.033812,1.67196,0.005091,-0.013026,1.007686,1.007784,0
5.34597,0.034727,1.668602,-0.000247,-0.005066,0.997939,0.997951,0
5.372926,0.026956,1.664755,0.010425,-0.007478,0.997451,0.997534,0
5.406823,0.033897,1.66299,0.032003,0.01651,1.004762,1.005407,0
5.433727,0.026904,1.659304,-0.007158,-0.019298,0.99209,0.992303,0
5.467819,0.034092,1.657199,0.000727,-0.00193,0.997939,0.997941,0
5.494638,0.026819,1.655341,0.012365,-0.014715,0.989653,0.98984,0
5.528678,0.034039,1.656102,0.050429,0.022337,1.006955,1.008465,0
5.555449,0.026772,1.657788,0.008243,-0.01182,1.001107,1.00121,0
5.587737,0.032288,1.657463,0.013577,-0.016645,0.991846,0.992079,0
5.614578,0.026841,1.658969,0.029094,-0.000482,0.995502,0.995927,0
5.641423,0.026845,1.657013,0.01091,-0.030153,1.058863,1.059348,0
5.676475,0.035052,1.654658,-0.0,0.025493,0.999157,0.999482,0
5.703438,0.026963,1.654611,0.01091,-0.004583,0.995745,0.995816,0
5.738566,0.035129,1.673777,0.204382,-0.226994,1.009392,1.054595,0
5.770951,0.032385,1.679338,0.058187,0.035933,0.98551,0.98788,0
5.805689,0.034738,1.68105,0.039761,-0.035943,1.049846,1.051213,0
5.841127,0.035438,1.682316,0.025942,0.024765,1.001594,1.002236,0
5.8691,0.027973,1.682274,-0.002715,0.029135,1.000376,1.000803,0
5.900611,0.031511,1.681115,-0.00938,0.005341,0.992334,0.992392,0
5.929139,0.028528,1.680389,0.018668,-0.002653,0.99867,0.998848,0
5.964139,0.035,1.681852,0.014547,0.006313,0.995502,0.995628,0
6.004724,0.040585,1.683527,0.007516,-0.01182,0.993308,0.993407,0
6.034915,0.030191,1.686232,0.024245,0.024279,0.991846,0.992439,0
6.075907,0.040992,1.689133,-0.071089,-0.00386,1.008905,1.011414,0
6.111579,0.035672,1.689664,-0.035051,0.035691,0.941645,0.942972,0
6.145865,0.034286,1.69161,0.009455,-0.056929,0.998426,1.000092,0
6.193541,0.047677,1.692308,0.016971,0.012625,1.000376,1.000599,0
6.230959,0.037418,1.691479,0.024002,0.016024,1.003544,1.003958,0
6.267501,0.036542,1.690624,0.014789,0.006555,0.937014,0.937154,0
6.309647,0.042145,1.689999,0.006061,0.040304,0.999157,0.999988,0
6.340141,0.030495,1.691194,-0.000247,0.032534,1.003056,1.003584,0
6.364936,0.024795,1.688676,0.000727,0.024765,0.995258,0.995566,0
6.39801,0.033074,1.686976,-0.009873,0.029621,0.976981,0.977479,0
6.429311,0.031301,1.690376,0.040246,0.005827,1.022552,1.02336,0
6.462506,0.033195,1.694541,0.015032,-0.022916,1.029375,1.02974,0
6.502629,0.040123,1.690168,0.047035,0.049772,1.012804,1.015117,0
6.530723,0.028095,1.688613,0.032973,-0.018333,1.005981,1.006688,0
6.563749,0.033025,1.689551,0.007516,0.00437,1.016216,1.016253,0
6.599911,0.036163,1.68751,0.010183,-0.002171,0.988191,0.988246,0
6.635137,0.035225,1.688549,-0.00543,0.03909,1.006224,1.006998,0
6.666815,0.031678,1.688074,0.003394,0.016024,1.010123,1.010256,0
6.700712,0.033897,1.689187,0.00097,0.021609,1.031325,1.031552,0
6.728542,0.02783,1.689677,0.019881,0.008741,1.037905,1.038132,0
6.753284,0.024743,1.69029,0.017214,-0.004825,0.989897,0.990058,0
6.780405,0.02712,1.691089,0.006304,0.008498,0.985266,0.985323,0
6.808767,0.028362,1.691121,0.021093,0.013111,0.990384,0.990695,0
6.840496,0.031729,1.691866,0.005576,0.001457,1.000619,1.000636,0
6.868904,0.028408,1.692579,0.007031,0.02088,0.942863,0.94312,0
6.901866,0.032963,1.693095,-0.007405,-0.008684,0.997939,0.998004,0
6.929363,0.027496,1.693641,0.009213,0.013354,0.997695,0.997827,0
6.956839,0.027476,1.694183,0.010183,0.026222,0.997451,0.997848,0
6.988715,0.031876,1.69467,0.006061,0.021609,0.997451,0.997704,0
7.0172,0.028485,1.694799,0.008001,0.01214,0.994039,0.994146,0
7.057488,0.040288,1.696488,0.050429,0.004127,1.028644,1.029888,0
7.098102,0.040615,1.698951,-0.013082,0.047587,1.024014,1.025203,0
7.122014,0.023911,1.701,0.016001,0.038847,1.05667,1.057504,0
7.153301,0.031287,1.692917,-0.046158,0.015539,1.040829,1.041968,0
7.181721,0.028421,1.691811,0.04558,-0.02364,1.052039,1.053292,0
7.215284,0.033563,1.690472,0.003879,0.052686,1.099316,1.100585,0
7.242809,0.027524,1.689563,0.00897,-0.022434,0.978443,0.978741,0
7.269654,0.026845,1.689796,-0.007652,0.008741,0.995502,0.995569,0
7.303403,0.033749,1.689834,0.00194,0.01044,1.004762,1.004818,0
7.330167,0.026764,1.689797,0.01091,0.020152,0.936283,0.936564,0
7.368468,0.038301,1.689404,0.005576,0.01044,0.999401,0.999471,0
7.396372,0.027905,1.688919,0.007758,0.013111,1.000863,1.000979,0
7.423195,0.026823,1.690938,-0.003703,-0.015197,1.00525,1.005371,0
7.449863,0.026668,1.688869,-0.113051,0.01651,0.997207,1.003731,0
7.483608,0.033745,1.686439,0.073461,-0.059342,1.021577,1.025933,0
7.510224,0.026616,1.679605,-0.001481,0.045159,1.024014,1.02501,0
7.53696,0.026736,1.668619,-0.002715,0.01044,1.023527,1.023584,0
7.570661,0.0337,1.668665,-0.019006,0.149317,0.990384,1.001757,0
7.597448,0.026787,1.674754,-0.017525,0.003885,1.033762,1.033918,0
7.624075,0.026627,1.68223,-0.123418,0.022094,1.026939,1.034564,0
7.657894,0.033819,1.686323,-0.066399,0.011654,0.991602,0.993891,0
7.684754,0.02686,1.687256,-0.081209,0.026222,0.985266,0.988955,0
7.7114,0.026646,1.687333,-0.071336,0.076965,1.062275,1.067445,0
7.745059,0.033659,1.69022,-0.114779,0.112656,1.09493,1.106678,0
7.771739,0.026681,1.695371,-0.064671,0.091776,1.095417,1.101156,0
7.805439,0.0337,1.698561,-0.098734,0.06264,1.090543,1.096794,0
7.832167,0.026727,1.697814,-0.078741,0.075266,1.071048,1.076572,0
7.858871,0.026704,1.704443,-0.079234,0.091776,1.130266,1.136751,0
7.892528,0.033657,1.700864,-0.093304,0.013839,1.112476,1.116468,0
7.919254,0.026726,1.7014,-0.092317,0.184765,1.096392,1.115677,0
7.94594,0.026686,1.701138,-0.059734,0.088376,1.096879,1.102054,0
7.979625,0.033686,1.694674,-0.059981,0.15733,1.055451,1.068797,0
8.006231,0.026606,1.699643,-0.010614,0.220456,1.046191,1.069218,0
8.032973,0.026742,1.706523,-0.023449,0.054871,1.005006,1.006776,0
8.06668,0.033708,1.708165,-0.025177,0.102944,0.971619,0.977382,0
8.093297,0.026617,1.712171,-0.046158,0.146647,0.975275,0.987318,0
8.119944,0.026647,1.726638,-0.018019,0.107314,0.999644,1.00555,0
8.153703,0.033759,1.73649,-0.045418,0.054628,0.936771,0.939461,0
8.180482,0.026779,1.738613,-0.037519,0.03132,0.895586,0.896918,0
8.207292,0.02681,1.74044,-0.008146,0.025736,0.952367,0.95275,0
8.240988,0.033696,1.7498,-0.015304,0.050744,0.913132,0.914669,0
8.267715,0.026728,1.753172,-0.051835,0.035933,0.821746,0.824163,0
8.301491,0.033776,1.752415,-0.041715,0.083035,0.897779,0.902575,0
8.328156,0.026665,1.759601,-0.037519,0.148589,0.925561,0.938163,0
8.3548,0.026644,1.766688,-0.066892,0.087405,0.888275,0.895068,0
8.388718,0.033918,1.76971,-0.060228,0.098817,0.881451,0.889016,0
8.416084,0.027366,1.764244,-0.144893,0.073809,1.054233,1.0667,0
8.450016,0.033932,1.766273,-0.0,0.106829,0.969913,0.975779,0
8.476773,0.026757,1.770631,-0.080962,0.053414,0.917275,0.922389,0
8.510542,0.033769,1.76579,0.004849,0.067254,0.921418,0.923882,0
8.538701,0.028159,1.757672,0.000727,0.085706,0.918981,0.922969,0
8.565429,0.026727,1.749701,-0.028633,0.035205,0.95846,0.959533,0
8.592157,0.026728,1.742776,-0.01481,0.075266,0.978687,0.981688,0
8.625913,0.033756,1.740057,-0.019006,0.104158,0.976006,0.981732,0
8.652801,0.026888,1.740069,0.004849,0.064583,0.982342,0.984475,0
8.686642,0.033841,1.739577,-0.000741,0.057785,1.023039,1.02467,0
8.713526,0.026884,1.735583,-0.057019,0.210258,0.975518,0.999548,0
8.740233,0.026707,1.736636,-0.052823,0.05997,1.05935,1.06236,0
8.774011,0.033778,1.742111,-0.022709,0.09736,1.001838,1.006814,0
8.80084,0.026828,1.751825,-0.091329,0.085949,0.999157,1.006997,0
8.83461,0.033771,1.758005,-0.09281,0.153445,0.995258,1.011285,0
8.861311,0.026701,1.760622,0.007758,0.149803,0.962846,0.974461,0
8.88807,0.026758,1.756986,-0.03431,0.176753,1.051308,1.066615,0
8.921767,0.033697,1.749692,-0.117741,0.094932,1.08372,1.094223,0
8.948496,0.026729,1.73965,-0.135513,0.061427,1.040586,1.051168,0
8.982213,0.033717,1.738607,0.004122,0.022094,0.91362,0.913896,0
9.008973,0.02676,1.741246,-0.075779,0.028164,0.946275,0.949722,0
9.035796,0.026824,1.745992,-0.054057,-0.004825,0.967964,0.969484,0
9.067255,0.031459,1.745642,-0.023449,0.013354,0.966258,0.966635,0
9.095429,0.028174,1.743501,-0.021475,-0.030394,0.962602,0.963322,0
9.122165,0.026735,1.744729,-0.039987,0.052443,1.015972,1.01811,0
9.148878,0.026713,1.742362,-0.051589,0.023065,0.938477,0.940176,0
9.182673,0.033795,1.738539,-0.078741,-0.093596,0.978443,0.986058,0
9.209509,0.026837,1.75692,0.006546,-0.061754,1.02572,1.027598,0
9.243421,0.033912,1.764629,-0.07726,0.031077,1.074703,1.077925,0
9.270194,0.026773,1.770455,-0.0585,-0.053552,1.019384,1.022464,0
9.296906,0.026712,1.781132,-0.068373,-0.097938,0.993796,1.000948,0
9.330721,0.033815,1.79645,-0.099722,-0.140635,0.958216,0.973602,0
9.357494,0.026773,1.819316,-0.057266,-0.060306,0.968451,0.972015,0
9.38858,0.031086,1.837786,-0.075532,-0.060789,0.966258,0.97111,0
9.420233,0.031653,1.85018,-0.124652,-0.070197,0.946519,0.957269,0
9.443523,0.02329,1.870931,-0.0975,-0.103003,0.952611,0.963111,0
9.470389,0.026866,1.894206,-0.061709,-0.067543,0.885107,0.889823,0
9.49899,0.028601,1.912463,-0.085899,-0.081052,0.954073,0.961355,0
9.522323,0.023333,1.934313,-0.125886,-0.06103,0.977468,0.987429,0
9.54916,0.026837,1.969229,-0.078494,-0.056206,1.051308,1.055732,0
9.583241,0.034081,1.992904,-0.120703,-0.028947,1.011829,1.019414,0
9.609932,0.026691,2.019953,-0.071089,-0.015921,1.000863,1.003511,0
9.643497,0.033565,2.038177,-0.043937,-0.048004,0.991602,0.993736,0
9.670336,0.026839,2.054354,-0.061709,-0.061754,1.00135,1.005149,0
9.69707,0.026734,2.071675,-0.077753,-0.003618,1.044972,1.047867,0
9.728201,0.031131,2.081632,-0.066399,-0.001447,0.986729,0.988961,0
9.75506,0.026859,2.087133,0.00097,-0.018574,0.960653,0.960833,0
9.781744,0.026684,2.094844,-0.030114,-0.04728,0.954561,0.956205,0
9.815442,0.033698,2.102598,-0.037272,-0.064649,0.961384,0.964276,0
9.841974,0.026532,2.108955,0.024972,0.056328,0.930922,0.932959,0
9.869056,0.027082,2.11901,0.072734,0.007769,0.921905,0.924803,0
9.903587,0.034531,2.130703,0.071522,-0.023399,0.945544,0.948534,0
9.938091,0.034504,2.136804,0.08825,0.023308,0.984048,0.988272,0
9.965756,0.027665,2.13939,0.103767,0.003642,0.971619,0.977151,0
9.993859,0.028103,2.139687,0.128496,-0.032324,0.986972,0.995827,0
10.025432,0.031573,2.13847,0.131163,-0.03739,1.013291,1.022429,0
10.053664,0.028232,2.131897,0.095281,-0.025087,1.003787,1.008611,0
10.088336,0.034672,2.120878,0.032003,-0.058377,1.112963,1.114953,0
10.123108,0.034772,2.101422,-0.001481,0.0017,1.065199,1.065201,0
10.15823,0.035122,2.078329,-0.0195,0.009954,0.998426,0.998666,0
10.190106,0.031877,2.060205,-0.06319,-0.006754,1.013291,1.015282,0
10.218347,0.028241,2.049478,-0.08343,-0.021228,0.999157,1.002859,0
10.253819,0.035472,2.042611,-0.213266,-0.015197,1.006955,1.029404,0
10.286155,0.032336,2.032105,-0.16069,0.045888,0.977955,0.992131,0
10.314677,0.028522,2.027086,-0.133291,0.038847,0.955779,0.96581,0
10.346474,0.031797,2.024713,-0.161677,0.033991,0.961872,0.975957,0
10.374969,0.028495,2.021992,-0.149089,0.036419,0.874141,0.887511,0
10.410347,0.035378,2.020418,-0.09676,-0.023399,0.90509,0.910548,0
10.446069,0.035723,2.025768,-0.029127,-0.017609,0.90509,0.90573,0
10.477807,0.031737,2.032957,-0.048627,-0.076469,0.930191,0.934595,0
10.505676,0.027869,2.036545,-0.093304,-0.063684,0.87609,0.883343,0
10.541002,0.035326,2.040272,-0.028386,-0.021228,0.951636,0.952296,0
10.572491,0.031489,2.040453,-0.031101,-0.076469,0.937014,0.940644,0
10.601185,0.028694,2.03947,-0.040481,-0.06103,1.047409,1.049966,0
10.636667,0.035482,2.03278,-0.070842,-0.051864,1.033518,1.037241,0
10.668883,0.032216,2.025975,-0.007158,-0.093113,0.991602,0.99599,0
10.697608,0.028725,2.019146,-0.039247,-0.079363,1.00135,1.005257,0
10.729363,0.031755,2.009568,-0.068127,-0.085876,0.995502,1.001519,0
10.757802,0.028439,1.999423,-0.043196,-0.087083,0.982586,0.987382,0
10.793125,0.035323,1.993205,-0.042456,-0.089736,1.002813,1.007714,0
10.825302,0.032177,1.987746,-0.074791,-0.087806,1.055695,1.061977,0
10.851361,0.026059,1.980462,-0.116753,-0.095043,1.067148,1.077715,0
10.879439,0.028077,1.971636,-0.109348,-0.043903,1.040342,1.046994,0
10.90743,0.027991,1.961748,-0.078,-0.075021,0.954561,0.960676,0
10.938892,0.031462,1.95581,-0.096019,-0.040285,0.985997,0.99148,0
10.967031,0.028139,1.946839,-0.183646,-0.042697,0.989165,1.006974,0
10.998908,0.031878,1.937337,-0.153532,-0.026776,0.955048,0.967681,0
11.027545,0.028637,1.929056,-0.126133,-0.063925,0.908258,0.9192,0
11.062769,0.035224,1.928578,-0.091576,-0.038114,0.888275,0.893796,0
11.098022,0.035253,1.928809,-0.088861,-0.000241,0.947493,0.951651,0
11.129948,0.031925,1.929702,-0.097994,-0.010373,0.984292,0.989212,0
11.158087,0.028139,1.927925,-0.123911,-0.026776,1.015972,1.023851,0
11.193821,0.035734,1.925034,-0.137241,-0.082499,0.999157,1.011907,0
11.225472,0.031651,1.923594,-0.13576,-0.074539,1.016703,1.028432,0
11.2538,0.028328,1.91698,-0.113051,-0.044386,1.022552,1.029739,0
11.289165,0.035365,1.909374,-0.078741,-0.072127,0.977224,0.983041,0
11.320749,0.031584,1.905607,-0.083677,-0.109758,0.977955,0.987646,0
11.349375,0.028627,1.897168,-0.104658,-0.04125,1.002325,1.008618,0
11.385059,0.035684,1.883998,-0.098734,-0.020263,0.986729,0.991863,0
11.416713,0.031654,1.875367,-0.058006,-0.09239,0.932628,0.938986,0
11.448944,0.032231,1.872046,-0.015797,-0.080569,0.973082,0.976539,0
11.480811,0.031867,1.866724,-0.052823,-0.111929,0.935796,0.943945,0
11.512408,0.031597,1.864186,-0.022709,-0.16331,0.951149,0.965334,0
11.540215,0.027806,1.862302,-0.039247,-0.217827,0.955535,0.980835,0
11.568494,0.028279,1.859243,-0.044184,-0.189121,0.984048,1.00303,0
11.60029,0.031796,1.850436,-0.023696,-0.123749,0.993065,1.001026,0
11.635492,0.035202,1.844566,-0.002962,-0.13967,1.005981,1.015634,0
11.66381,0.028318,1.837367,-0.03826,-0.14763,1.004275,1.015788,0
11.695539,0.031729,1.831624,-0.017772,-0.131951,0.959922,0.969111,0
11.72334,0.0278,1.827663,0.032003,-0.101556,0.96772,0.973561,0
11.75128,0.027941,1.820959,-0.03357,-0.109517,0.98551,0.992145,0
11.782684,0.031404,1.816944,-0.050601,-0.153661,0.965283,0.978746,0
11.810253,0.027569,1.815338,-0.021475,-0.108793,0.98746,0.993667,0
11.838154,0.0279,1.811571,-0.016044,-0.07864,0.989897,0.993145,0
11.869879,0.031725,1.807591,-0.002715,-0.007719,0.995745,0.995779,0
11.897861,0.027982,1.799704,-0.039247,-0.052828,1.006712,1.008861,0
11.933054,0.035193,1.794666,-0.027399,-0.054035,0.974544,0.976425,0
11.964624,0.03157,1.791754,0.016244,-0.042938,0.944813,0.945927,0
11.992756,0.028132,1.788299,0.008001,-0.059583,0.949199,0.951101,0
12.021029,0.028273,1.786714,0.024487,-0.077916,0.938477,0.942024,0
12.053077,0.032048,1.787677,0.030548,-0.078398,0.935796,0.939571,0
12.081196,0.028119,1.786477,0.015274,-0.074539,0.940426,0.943499,0
12.11279,0.031594,1.784511,0.061339,-0.059342,0.941888,0.945747,0
12.140932,0.028141,1.781908,0.091887,0.006555,1.054233,1.05825,0
12.169247,0.028315,1.785352,-0.071336,-0.074298,1.012073,1.017301,0
12.201201,0.031955,1.793855,0.002182,-0.07092,0.990628,0.993166,0
12.229263,0.028062,1.804518,0.018668,0.01481,1.090543,1.090804,0
12.260809,0.031546,1.81029,-0.080468,-0.013991,1.137577,1.140505,0
12.28902,0.028211,1.815315,-0.160937,-0.117959,1.184854,1.201538,1
12.317203,0.028183,1.825867,-0.042949,-0.077434,1.183879,1.187186,0
12.348746,0.031543,1.83508,-0.000987,-0.016886,1.195577,1.195696,0
12.384092,0.035346,1.845828,-0.037272,-0.019298,1.148056,1.148823,0
12.412206,0.028114,1.862807,0.018426,0.026222,1.060325,1.060809,0
12.444767,0.032561,1.877108,0.030063,0.008498,1.03035,1.030824,0
12.469736,0.024968,1.89215,-0.038506,-0.054758,1.016703,1.018905,0
12.498139,0.028403,1.905801,-0.129589,-0.005066,1.026695,1.034853,0
12.533451,0.035312,1.917038,-0.066892,0.002671,1.001107,1.003343,0
12.56509,0.031639,1.931773,0.01285,0.018695,1.006712,1.006967,0
12.593441,0.028351,1.942518,-0.016291,0.003885,0.896561,0.896717,0
12.621802,0.02836,1.949352,-0.025918,-0.063925,0.818821,0.821722,0
12.653717,0.031915,1.957763,-0.036532,-0.144736,0.855863,0.868784,0
12.681873,0.028157,1.971052,0.027881,-0.015438,0.86488,0.865467,0
12.713609,0.031735,1.973906,0.048732,0.003399,0.801763,0.803249,0
12.741636,0.028027,1.982657,-0.006665,-0.064166,0.775931,0.778608,0
12.776789,0.035153,1.994199,-0.027646,-0.032565,0.749855,0.751071,0
12.811846,0.035057,1.995893,0.061339,0.061427,0.829788,0.834316,0
12.845371,0.033525,1.99588,0.051399,-0.000482,0.842216,0.843783,0
12.873226,0.027855,1.995383,-0.001975,-0.119166,0.876821,0.884884,0
12.904614,0.031388,1.987137,0.001212,-0.103968,0.893149,0.899181,0
12.932561,0.027946,1.982136,0.119041,-0.085876,1.040098,1.050405,0
12.960458,0.027897,1.979465,0.069097,-0.087806,1.057644,1.06353,0
12.991936,0.031478,1.969352,0.041458,-0.003618,1.092737,1.093529,0
13.020162,0.028226,1.954429,0.115404,-0.077675,1.178518,1.1867,1
13.055202,0.035041,1.9449,0.107888,-0.009408,1.207031,1.211879,0
13.090372,0.035169,1.938493,0.046065,-0.066578,1.22019,1.222873,0
13.122147,0.031776,1.929252,-0.027152,-0.197323,1.173888,1.190666,0
13.150119,0.027972,1.915018,-0.173032,-0.189845,1.162434,1.190476,0
13.178354,0.028235,1.896512,-0.128601,-0.063684,1.096148,1.105502,0
13.210295,0.031941,1.875068,-0.001728,0.049772,1.034006,1.035204,0
13.238528,0.028233,1.846021,-0.017772,-0.049451,0.953829,0.955276,0
13.27151,0.032982,1.822728,-0.017525,-0.088771,0.915325,0.919787,0
13.299429,0.027919,1.801533,0.108858,0.000728,0.906552,0.913065,0
13.331165,0.031736,1.79563,0.211655,0.02865,0.93872,0.962712,0
13.358919,0.027754,1.787577,0.054308,-0.024605,0.931653,0.933559,0
13.386845,0.027926,1.772584,-0.008146,-0.06296,0.869267,0.871582,0
13.418354,0.031509,1.766817,0.144013,-0.042697,0.87341,0.886232,0
13.446993,0.028639,1.772131,0.272509,-0.025329,0.873897,0.91575,0
13.480127,0.033134,1.770994,0.142073,-0.030153,0.867073,0.879153,0
13.508061,0.027933,1.752944,0.163893,0.019909,0.836124,0.852268,0
13.542629,0.034568,1.756658,0.21505,-0.156073,0.910695,0.948668,0
13.577737,0.035109,1.77242,0.071764,-0.130262,0.952855,0.964391,0
13.60957,0.031833,1.767052,-0.021228,0.031806,0.986485,0.987226,0
13.63753,0.027959,1.76909,0.003879,-0.100109,0.971132,0.976286,0
13.665948,0.028418,1.78669,0.03467,-0.090942,1.05935,1.063812,0
13.69744,0.031493,1.798068,-0.117247,0.121396,1.085913,1.09895,0
13.732471,0.035031,1.80129,-0.05307,-0.107104,0.971132,0.97846,0
13.760409,0.027938,1.804527,-0.077753,-0.144977,1.002813,1.016217,0
13.792318,0.031909,1.803536,-0.002962,-0.180437,1.004762,1.020839,0
13.820279,0.027961,1.800943,-0.066399,-0.201424,1.033518,1.055055,0
13.855639,0.03536,1.803799,-0.126874,-0.209625,1.136846,1.162952,0
13.890587,0.034948,1.817892,0.034427,0.090804,1.198745,1.202672,1
13.925668,0.035081,1.830004,-0.145633,-0.08467,1.01914,1.032969,0
13.956957,0.031289,1.832829,-0.263867,-0.174889,0.951392,1.002676,0
13.985147,0.02819,1.835452,-0.082937,-0.085153,0.875359,0.883393,0
14.01386,0.028712,1.848249,0.030063,-0.044627,0.908258,0.909851,0
14.04574,0.03188,1.864053,-0.042703,-0.124473,0.83588,0.846175,0
14.07397,0.02823,1.872016,-0.039247,-0.096008,0.796645,0.803369,0
14.105333,0.031363,1.888096,-0.003949,-0.004101,0.890956,0.890974,0
14.133532,0.028199,1.901246,0.096009,0.114113,1.004518,1.015528,0
14.161312,0.02778,1.897776,0.138679,0.176996,0.872678,0.901181,0
14.193117,0.031805,1.894623,0.148377,0.00437,0.941645,0.953273,0
14.221326,0.028209,1.898345,0.165591,-0.051864,0.956266,0.971883,0
14.25335,0.032024,1.908393,0.133588,-0.130744,0.986241,1.003798,0
14.281883,0.028533,1.92439,0.172621,-0.137499,1.069829,1.092355,0
14.317341,0.035458,1.93803,0.068855,-0.106863,1.13319,1.140299,0
14.349002,0.031661,1.944635,0.017941,-0.003136,1.154392,1.154536,0
14.377048,0.028046,1.947861,-0.029867,-0.062478,1.138308,1.140413,0
14.405074,0.028025,1.945243,-0.042703,-0.045833,1.093224,1.095017,0
14.436806,0.031733,1.94434,0.027154,-0.097214,1.05935,1.064148,0
14.473088,0.036282,1.939652,-0.003456,-0.189121,1.04351,1.060515,0
14.508104,0.035016,1.924278,-0.091576,-0.038596,1.099804,1.104285,0
14.543231,0.035127,1.913012,-0.001481,-0.018333,1.048384,1.048545,0
14.574826,0.031594,1.900406,0.012122,0.036662,1.014023,1.014758,0
14.603011,0.028185,1.884856,0.031276,-0.056929,0.855863,0.858325,0
14.630961,0.02795,1.865782,-0.016538,-0.111929,0.778368,0.786548,0
14.662575,0.031614,1.850768,-0.042703,-0.219274,0.799569,0.83019,0
14.690578,0.028003,1.828883,-0.132551,-0.191775,0.817603,0.850189,0
14.72585,0.035272,1.817773,-0.077506,-0.015438,0.870485,0.874065,0
14.760924,0.035074,1.814988,0.062066,0.002671,0.932628,0.934695,0
14.792742,0.031818,1.819364,0.105706,0.022823,0.945056,0.951224,0
14.82094,0.028199,1.825964,0.01091,-0.007478,0.976493,0.976583,0
14.861279,0.040339,1.839099,0.068127,-0.060548,0.936283,0.940709,0
14.890564,0.029284,1.85325,0.153953,-0.02557,1.053258,1.064757,0
14.918148,0.027584,1.865312,0.116616,-0.025811,1.079333,1.085922,0
14.949427,0.031279,1.881424,0.101585,-0.019539,1.074947,1.079913,0
14.977065,0.027638,1.899726,0.000485,-0.041008,1.014997,1.015826,0
15.00525,0.028185,1.918539,0.101585,-0.013991,0.991602,0.996891,0
15.037054,0.031804,1.935053,0.132375,0.034962,1.089081,1.097654,0
15.072344,0.03529,1.946032,0.054308,0.104886,1.069342,1.075845,0
15.100467,0.028123,1.959492,0.000485,0.077451,1.070073,1.072872,0
15.131994,0.031527,1.969727,-0.010367,0.035933,1.053014,1.053678,0
15.160253,0.028259,1.979532,-0.062696,0.045159,1.085426,1.088173,0
15.195618,0.035365,1.990933,-0.007652,0.033263,0.895586,0.896236,0
15.230804,0.035186,2.004483,0.071764,0.096874,0.881208,0.889417,0
15.262971,0.032167,2.01377,0.053823,0.012382,0.831006,0.83284,0
15.291095,0.028123,2.025773,0.038064,-0.00193,0.857813,0.858659,0
15.323229,0.032135,2.032507,0.05455,-0.002653,0.829057,0.830854,0
15.351261,0.028032,2.035902,0.096251,-0.050899,0.790065,0.797532,0
15.379437,0.028175,2.038007,0.099888,-0.050175,0.811754,0.819414,0
15.41112,0.031683,2.036578,0.052611,-0.041732,0.848065,0.85072,0
15.439665,0.028544,2.034986,0.125829,0.020395,0.885107,0.894239,0
15.471486,0.031822,2.034078,0.150801,-0.021228,0.940182,0.952436,0
15.5,0.028514,2.027596,0.098191,0.004127,1.057401,1.061958,0
15.534193,0.034193,2.018135,0.096493,-0.048004,1.01914,1.024823,0
15.561417,0.027224,2.00962,0.11007,-0.090701,1.117594,1.126658,0
15.596082,0.034666,2.004765,0.108616,-0.018333,1.209224,1.21423,1
15.628047,0.031965,1.99058,0.053338,0.057056,1.23798,1.240441,0
15.657606,0.029559,1.977895,0.149832,-0.051622,1.154636,1.16546,0
15.689361,0.031755,1.972561,0.077825,-0.155108,1.138795,1.151942,0
15.717309,0.027948,1.963447,-0.036285,-0.084188,1.07056,1.074478,0
15.751013,0.033703,1.950943,0.000485,-0.000724,1.046678,1.046678,0
15.779021,0.028009,1.934339,0.048004,-0.052105,0.94725,0.949895,0
15.811018,0.031996,1.928979,0.018183,-0.124714,0.918981,0.927583,0
15.84009,0.029072,1.924307,-0.016785,-0.115788,0.957241,0.964365,0
15.872336,0.032246,1.916272,0.032488,0.045645,0.975031,0.976639,0
15.907561,0.035225,1.909773,0.009455,0.000728,0.965527,0.965573,0
15.935757,0.028197,1.90451,0.002424,-0.021952,0.9163,0.916566,0
15.967483,0.031725,1.903879,0.05746,-0.039561,0.883401,0.886151,0
15.995587,0.028104,1.90908,0.114192,-0.012785,0.888519,0.895918,0
16.031132,0.035545,1.918008,0.060127,-0.029188,0.894124,0.896618,0
16.062532,0.0314,1.926495,0.032973,-0.028465,0.894611,0.895671,0
16.090773,0.028241,1.938523,0.11007,-0.0275,0.941157,0.947971,0
16.118762,0.027989,1.954574,0.092614,0.001457,0.965527,0.96996,0
16.150517,0.031755,1.962205,0.072006,-0.030394,1.001594,1.004639,0
16.178512,0.027995,1.965232,0.051641,-0.065613,1.026207,1.029599,0
16.213974,0.035462,1.969884,0.066188,-0.037631,1.091518,1.09417,0
16.245479,0.031505,1.969929,0.072491,-0.024605,1.096879,1.099548,0
16.273842,0.028363,1.967241,0.087523,-0.018092,1.118081,1.121648,0
16.301897,0.028055,1.966733,0.064976,-0.041008,1.118569,1.121204,0
16.33358,0.031682,1.969934,-0.074791,-0.052587,1.064224,1.068144,0
16.368869,0.03529,1.970916,-0.05776,0.046616,1.047896,1.050522,0
16.39682,0.027951,1.967535,-0.032582,0.071138,0.986729,0.989826,0
16.428416,0.031595,1.962422,0.006061,0.008255,0.93214,0.932197,0
16.456731,0.028315,1.962726,0.005334,0.010197,0.914838,0.91491,0
16.493243,0.036512,1.967314,0.052126,0.048316,0.915082,0.917838,0
16.524873,0.03163,1.979747,0.02182,0.021609,0.950174,0.95067,0
16.559907,0.035034,1.989978,-0.01481,0.055114,0.977955,0.979619,0
16.594649,0.034742,1.993436,0.003394,0.05827,0.963821,0.965587,0
16.629108,0.034459,1.995625,0.064976,0.020395,0.906065,0.908621,0
16.663731,0.034622,1.99687,0.063521,-0.002895,0.893636,0.895896,0
16.691302,0.027571,1.995721,0.022547,0.005341,0.908989,0.909285,0
16.719224,0.027922,1.989808,0.062551,-0.010131,0.90972,0.911925,0
16.750601,0.031377,1.985352,0.120981,0.004127,0.949199,0.956887,0
16.778485,0.027884,1.978691,0.083644,-0.013026,0.957241,0.960977,0
16.806325,0.02784,1.968623,0.067885,-0.035219,0.968451,0.971466,0
16.83877,0.032445,1.959756,0.146195,-0.008925,0.998426,1.009112,0
16.866821,0.02805,1.948553,0.151286,0.013839,1.035224,1.046312,0
16.898407,0.031587,1.940639,0.15468,-0.061271,1.049115,1.062225,0
16.926336,0.027929,1.931449,0.117101,-0.034495,1.060569,1.067571,0
16.954359,0.028023,1.915653,0.056732,-0.05307,1.062518,1.065355,0
16.985933,0.031574,1.904174,0.017699,-0.110964,1.046434,1.05245,0
17.014192,0.028259,1.896615,0.007758,-0.068026,1.086888,1.089042,0
17.046066,0.031874,1.881261,0.00097,-0.01182,1.082989,1.083054,0
17.074117,0.028052,1.865255,-0.121937,-0.069473,1.087619,1.096636,0
17.102235,0.028118,1.857343,-0.148842,-0.066578,1.104434,1.116406,0
17.133776,0.031541,1.845998,-0.144399,-0.105416,1.093224,1.107747,0
17.16187,0.028094,1.829513,-0.115025,0.036419,1.048628,1.055546,0
17.193779,0.031909,1.822918,-0.125886,-0.106863,1.001594,1.015115,0
17.221964,0.028185,1.819839,-0.184386,-0.033772,1.026207,1.043188,0
17.249953,0.027989,1.814921,-0.184139,-0.014474,0.98088,0.998119,0
17.281734,0.031781,1.814868,-0.132798,-0.006272,0.944569,0.953879,0
17.309979,0.028245,1.816905,-0.078494,-0.027017,0.924586,0.928305,0
17.341792,0.031812,1.81792,-0.08343,-0.111929,0.887788,0.898697,0
17.369797,0.028006,1.821532,-0.071336,-0.070438,0.89193,0.897547,0
17.397835,0.028037,1.829886,-0.040234,-0.027017,0.945787,0.947028,0
17.429641,0.031807,1.831728,-0.049861,-0.036666,0.964552,0.966536,0
17.457763,0.028122,1.828331,-0.015304,-0.128332,0.904115,0.913306,0
17.494204,0.03644,1.846794,0.144013,-0.16331,0.927023,0.952251,0
17.526103,0.031899,1.870024,0.103282,-0.037149,1.044972,1.050721,0
17.554241,0.028138,1.878683,-0.051342,-0.086841,1.054233,1.059049,0
17.586084,0.031843,1.880899,-0.067633,-0.097938,0.99209,0.999204,0
17.613874,0.02779,1.885302,0.072734,-0.090942,0.897779,0.9053,0
17.64136,0.027485,1.887261,0.064976,-0.136534,0.913132,0.925567,0
17.673685,0.032325,1.893612,0.107161,-0.095043,0.977224,0.987666,0
17.701673,0.027988,1.905582,0.062793,-0.064166,1.031081,1.034983,0
17.733134,0.031461,1.911829,-0.020734,0.021851,1.138795,1.139194,0
17.76109,0.027956,1.914488,0.082917,0.038361,1.080552,1.084407,0
17.789128,0.028038,1.919161,0.126557,-0.014715,0.973325,0.981629,0
17.820726,0.031598,1.93009,0.125345,-0.004101,0.978687,0.986689,0
17.847514,0.026788,1.942383,0.084614,-0.059583,0.967476,0.972996,0
17.884196,0.036682,1.945559,0.140619,0.122367,0.971619,0.989339,0
17.916991,0.032795,1.969333,0.050186,-0.164516,0.956998,0.972331,0
17.952074,0.035083,1.984179,-0.000247,-0.065855,0.912645,0.915018,0
17.980219,0.028145,1.975157,0.205352,0.115569,1.116619,1.141211,0
18.011902,0.031684,1.963127,0.098433,-0.181643,0.86951,0.893718,0
18.040065,0.028162,1.959045,-0.023203,-0.179955,0.981124,0.99776,0
18.068123,0.028058,1.952528,0.019153,0.002428,1.013291,1.013475,0
18.099797,0.031675,1.947025,0.149104,0.018209,0.950661,0.962456,0
18.134996,0.035198,1.949489,0.224747,-0.004825,0.9453,0.971662,0
18.163079,0.028083,1.950139,0.184501,0.070653,1.093224,1.110933,0
18.19472,0.03164,1.945012,0.142073,0.11824,1.044972,1.061194,0
18.222801,0.028082,1.939941,0.063278,0.017481,1.047409,1.049464,0
18.250943,0.028142,1.936586,0.087281,-0.037149,0.990628,0.995159,0
18.282679,0.031735,1.936021,0.114677,0.040304,0.993065,1.000476,0
18.311029,0.028351,1.935412,0.110555,0.009712,0.998182,1.004333,0
18.342723,0.031694,1.932944,0.072006,-0.053793,1.036686,1.040576,0
18.371054,0.028331,1.927736,0.052126,-0.057894,1.004518,1.007535,0
18.406333,0.035279,1.916808,0.126557,-0.00989,0.965771,0.974078,0
18.438052,0.031718,1.911024,0.13577,0.016995,0.976981,0.986516,0
18.466655,0.028603,1.918374,0.153711,0.049044,1.056182,1.068435,0
18.502974,0.036319,1.931315,0.097221,0.096146,1.015241,1.024407,0
18.535023,0.032049,1.946236,0.006788,0.14082,0.986729,0.996749,0
18.563365,0.028343,1.977264,0.037579,0.021609,0.921661,0.92268,0
18.595104,0.031738,1.981325,0.06934,-0.004583,1.083232,1.085459,0
18.622959,0.027856,1.980187,0.094796,0.16,0.913132,0.931878,0
18.6509,0.027941,1.994357,0.265721,0.091533,1.105653,1.140813,0
18.682335,0.031435,2.005855,0.155893,0.04346,1.013535,1.026375,0
18.710365,0.028031,2.002571,0.152014,0.045645,1.018897,1.031185,0
18.745607,0.035242,1.999105,0.107404,0.00607,1.023283,1.028922,0
18.777252,0.031646,1.989838,0.184744,0.046373,0.998426,1.016433,0
18.805312,0.028059,1.976154,0.029094,0.10343,0.902653,0.909025,0
18.833418,0.028106,1.966284,-0.050601,0.084492,1.133434,1.137705,0
18.864944,0.031526,1.972808,0.128011,0.161457,1.018165,1.038805,0
18.893945,0.029001,1.990839,0.036609,0.114841,1.036686,1.04367,0
18.925264,0.031319,2.002709,0.004364,0.104886,1.022552,1.027926,0
18.953686,0.028421,2.012939,-0.015057,0.117754,0.947493,0.954901,0
18.981626,0.027941,2.035854,0.101827,0.014568,0.968695,0.974141,0
19.013246,0.03162,2.045592,0.082674,-0.07478,1.024258,1.030306,0
19.041535,0.02829,2.057292,0.13286,0.035448,0.883157,0.893798,0
19.073105,0.031569,2.065632,0.023517,0.115569,1.0033,1.010208,0
19.101106,0.028001,2.081017,0.104494,0.067496,0.946031,0.954175,0
19.129169,0.028063,2.088865,-0.063684,-0.063925,0.946275,0.950567,0
19.160603,0.031434,2.09516,0.174561,0.09129,0.931653,0.952251,0
19.188631,0.028028,2.107115,0.207534,0.060698,1.034737,1.057088,0
19.224034,0.035403,2.114458,0.168742,0.02088,1.087375,1.100588,0
19.259151,0.035117,2.123647,0.150801,0.019181,1.028644,1.039816,0
19.290697,0.031546,2.124659,0.134557,0.12431,1.163652,1.177984,0
19.319295,0.028598,2.12553,0.064976,0.127466,0.938477,0.94932,0
19.354951,0.035655,2.114372,0.101827,0.209773,0.91167,0.941018,0
19.386854,0.031903,2.101688,-0.006171,0.291351,0.990628,1.032602,0
19.41517,0.028317,2.093363,0.067885,0.148103,0.959678,0.973409,0
19.450186,0.035016,2.072473,0.081947,0.077936,0.949199,0.955912,0
19.485156,0.03497,2.049645,0.047035,0.167527,0.92946,0.945607,0
19.517957,0.032801,2.033393,0.070794,0.147132,0.939208,0.953295,0
19.543266,0.025309,2.00687,0.061824,0.081093,0.9163,0.921957,0
19.572208,0.028942,1.976666,0.041701,0.199333,0.996233,1.016834,0
19.604134,0.031926,1.943091,0.075401,0.072352,0.930922,0.936769,0
19.632061,0.027927,1.900647,0.046792,0.155387,0.94067,0.954565,0
19.660166,0.028105,1.852327,0.016244,0.217542,1.003056,1.026504,0
19.69144,0.031274,1.82357,-0.011601,0.19302,1.008417,1.02679,0
19.719981,0.028542,1.804653,-0.050354,0.190835,1.02767,1.04645,0
19.751789,0.031808,1.80161,0.027639,0.103187,1.034006,1.039509,0
19.780484,0.028694,1.803208,0.040731,0.018938,1.050821,1.05178,0
19.815759,0.035275,1.811406,0.022547,0.03909,1.000376,1.001393,0
19.847517,0.031758,1.824458,0.025214,0.024765,0.968451,0.969096,0
19.875583,0.028066,1.837262,0.022305,-0.004825,0.95846,0.958731,0
19.905382,0.029799,1.844314,-0.000987,-0.018816,0.962359,0.962543,0
19.930078,0.024696,1.856626,-0.003209,0.023065,0.9743,0.974578,0
19.961782,0.031704,1.874571,-0.007405,0.027436,0.952124,0.952548,0
19.996937,0.035155,1.88155,0.022305,-0.055482,0.975031,0.976863,0
20.025547,0.02861,1.884536,-0.022215,0.128194,1.018897,1.02717,0
20.057221,0.031675,1.894899,-0.027399,0.018209,0.993796,0.99434,0
20.085891,0.02867,1.922095,0.000727,-0.038837,0.973813,0.974587,0
20.117583,0.031692,1.961668,-0.023943,0.106829,0.950905,0.957187,0
20.146384,0.028801,2.020462,0.005576,-0.014715,1.011098,1.011221,0
20.178209,0.031824,2.060761,0.040973,-0.032324,0.97625,0.977644,0
20.206572,0.028364,2.09726,0.119283,-0.024605,0.981367,0.988896,0
20.241813,0.03524,2.117137,0.06837,-0.150766,1.002569,1.016144,0
20.277027,0.035214,2.118305,0.037822,-0.195152,1.032544,1.051504,0
20.309045,0.032018,2.109379,0.052853,-0.037631,0.969426,0.971595,0
20.337441,0.028396,2.09139,0.048489,-0.111688,0.986972,0.994454,0
20.373083,0.035642,2.066314,0.016729,-0.141358,0.975762,0.98609,0
20.405111,0.032029,2.054565,-0.0,-0.060065,0.939695,0.941613,0
20.434051,0.02894,2.058929,0.026669,-0.008684,0.981124,0.981524,0
20.466487,0.032436,2.056333,0.006304,-0.09649,1.001107,1.005766,0
20.501818,0.035331,2.051926,-0.026165,-0.031359,0.989409,0.990252,0
20.532049,0.030231,2.049103,-0.03431,-0.021469,0.999401,1.00022,0
20.561286,0.029237,2.047135,-0.020241,-0.025329,0.995989,0.996517,0
20.588884,0.027597,2.035683,0.018183,-0.073815,0.971376,0.974346,0
20.616348,0.027464,2.003243,0.041943,0.019181,0.952124,0.95324,0
20.651228,0.03488,1.970563,-0.061956,-0.0,0.999157,1.001076,0
20.685844,0.034616,1.939346,0.048974,0.026707,1.029375,1.030886,0
20.721021,0.035177,1.9101,-0.019747,-0.008684,1.034493,1.034718,0
20.75282,0.031799,1.904257,-0.131317,0.045888,1.007199,1.016759,0
20.780911,0.028091,1.89825,-0.033816,-0.042938,0.988434,0.989944,0
20.816191,0.03528,1.901954,-0.03826,0.045159,1.043266,1.044944,0
20.847843,0.031652,1.909645,-0.058253,0.045159,1.006955,1.009649,0
20.875777,0.027934,1.92736,-0.105399,0.034477,0.983561,0.989792,0
20.903658,0.027881,1.954542,-0.016538,0.067739,0.982586,0.985057,0
20.935931,0.032273,1.967504,-0.060228,0.041032,0.999401,1.002054,0
20.963645,0.027714,1.970261,-0.120703,-0.001206,0.978199,0.985619,0
20.998817,0.035172,1.962155,-0.105892,-0.01375,0.977712,0.983526,0
21.033934,0.035117,1.950063,-0.060475,0.025493,1.030594,1.032681,0
21.065338,0.031404,1.931612,0.000242,-0.04921,1.070317,1.071447,0
21.093421,0.028083,1.91614,-0.040728,0.049772,0.974056,0.976177,0
21.121696,0.028275,1.91084,-0.026411,0.083521,0.919712,0.923874,0
21.153661,0.031965,1.908862,-0.01012,0.094204,0.92751,0.932337,0
21.189229,0.035568,1.910577,-0.097747,0.055357,0.924342,0.931143,0
21.217491,0.028261,1.905523,-0.098487,0.001214,0.985754,0.990662,0
21.24885,0.031359,1.894058,-0.098487,0.055114,1.037661,1.043781,0
21.277106,0.028256,1.889291,-0.02962,-0.05114,1.05667,1.058321,0
21.312326,0.03522,1.890031,-0.057513,0.032291,1.054476,1.056537,0
21.344027,0.0317,1.893791,-0.082196,-0.057653,0.989653,0.994733,0
21.372252,0.028225,1.900892,-0.094785,-0.006272,0.977712,0.982316,0
21.40048,0.028228,1.909807,-0.136006,-0.050416,0.983561,0.994199,0
21.432072,0.031592,1.91671,-0.129095,-0.029188,0.999401,1.008127,0
21.466989,0.034917,1.922947,-0.124405,-0.01375,1.029863,1.037441,0
21.502171,0.035182,1.928314,-0.121443,-0.019298,0.997207,1.00476,0
21.531567,0.029397,1.933339,-0.086146,0.008983,0.96967,0.97353,0
21.556941,0.025373,1.939387,-0.071089,0.023065,0.975275,0.978134,0
21.588615,0.031674,1.949815,-0.096266,-0.037872,0.976006,0.981473,0
21.623949,0.035334,1.956903,-0.041715,0.020395,0.894855,0.896059,0
21.65377,0.029821,1.954187,-0.078494,0.04783,0.892174,0.896897,0
21.678174,0.024404,1.940954,-0.130329,-0.001689,0.961872,0.970662,0
21.709664,0.03149,1.938562,-0.088614,0.038361,0.992821,0.997506,0
21.738544,0.02888,1.943548,0.000242,0.036662,1.041317,1.041962,0
21.770219,0.031675,1.940722,-0.073063,0.085706,1.023039,1.02922,0
21.798641,0.028422,1.93988,-0.061709,0.02865,1.038636,1.040862,0
21.826914,0.028273,1.941648,-0.046405,0.038361,1.018409,1.020187,0
21.858587,0.031673,1.946728,-0.090836,-0.005307,1.000376,1.004505,0
21.893776,0.035189,1.950668,-0.116753,-0.032324,1.004031,1.011313,0
21.922397,0.028621,1.955879,-0.085652,0.000243,0.982586,0.986312,0
21.954095,0.031699,1.961877,-0.067633,0.018452,0.949443,0.952028,0
21.989314,0.035218,1.968642,-0.107374,0.046859,0.928972,0.93633,0
22.018031,0.028717,1.978139,-0.07726,0.066282,0.946519,0.951977,0
22.049963,0.031932,1.983099,-0.072323,0.096874,0.953586,0.961219,0
22.085369,0.035405,1.984853,-0.077506,0.099788,0.9743,0.982459,0
22.11355,0.028182,1.987636,-0.025424,0.108528,0.999157,1.005355,0
22.145258,0.031708,1.990575,-0.025918,0.091047,1.005737,1.010182,0
22.173173,0.027915,1.988951,-0.029127,0.121396,1.028401,1.035951,0
22.208301,0.035129,1.983135,-0.003949,0.143005,1.015728,1.025754,0
22.240087,0.031785,1.981667,-0.031842,0.11387,1.023283,1.030091,0
22.268194,0.028107,1.981056,-0.0195,0.073323,1.041317,1.044077,0
22.296286,0.028092,1.977043,0.002909,0.069924,1.025233,1.027619,0
22.328651,0.032365,1.972639,-0.033076,0.003885,0.999157,0.999712,0
22.357192,0.028541,1.971078,-0.046899,0.010683,0.957972,0.959179,0
22.389126,0.031934,1.967968,-0.075532,0.045402,0.945056,0.949156,0
22.424597,0.03547,1.965765,-0.101449,0.03132,0.962846,0.968683,0
22.452719,0.028123,1.965417,-0.100462,0.026707,0.973569,0.979103,0
22.48426,0.031541,1.964122,-0.095279,0.038361,0.970888,0.976306,0
22.512171,0.02791,1.963047,-0.111323,0.043703,0.977712,0.984999,0
22.548511,0.03634,1.966029,-0.138722,-0.004825,0.982586,0.992341,0
22.580321,0.031811,1.964977,-0.149582,0.112413,0.94335,0.961729,0
22.608961,0.02864,1.960546,-0.152544,0.06604,0.897535,0.912798,0
22.64046,0.031499,1.958957,-0.176241,0.018209,0.910939,0.92801,0
22.667047,0.026587,1.957454,-0.181177,0.021609,0.94335,0.960834,0
22.694746,0.027699,1.956688,-0.123418,0.065068,0.993552,1.0033,0
22.722765,0.028018,1.956891,-0.109842,0.076965,0.977224,0.986385,0
22.754632,0.031867,1.958648,-0.220671,0.068468,0.99867,1.025049,0
22.790227,0.035596,1.960406,-0.174266,0.084977,1.008174,1.026647,0
22.81833,0.028102,1.956307,-0.142424,0.145676,1.000132,1.020671,0
22.850536,0.032206,1.955861,-0.142424,0.036662,1.029132,1.039587,0
22.878564,0.028028,1.962641,-0.135266,0.042003,0.995502,1.005527,0
22.910573,0.032008,1.96462,-0.155506,0.097845,0.968939,0.986204,0
22.93958,0.029008,1.962177,-0.169823,0.077451,0.921905,0.94061,0
22.971728,0.032147,1.963029,-0.226348,0.067254,0.904359,0.934677,0
22.999856,0.028128,1.967042,-0.204874,0.1078,0.907283,0.936353,0
23.032042,0.032186,1.963209,-0.184633,0.063369,0.923855,0.944252,0
23.059934,0.027892,1.961947,-0.19969,0.122853,0.921661,0.951015,0
23.087923,0.027989,1.966968,-0.191051,0.110713,0.9453,0.970747,0
23.119475,0.031552,1.96944,-0.171551,0.120911,0.943838,0.966891,0
23.147868,0.028394,1.969153,-0.187842,0.1061,0.932628,0.957255,0
23.180114,0.032246,1.965843,-0.211785,0.09566,0.941645,0.969896,0
23.208458,0.028344,1.966509,-0.214007,0.076965,0.972107,0.998356,0
23.24358,0.035122,1.968405,-0.157975,0.134993,1.075678,1.095565,0
23.278933,0.035352,1.966231,-0.108114,0.073809,1.152442,1.159853,0
23.310678,0.031745,1.958271,-0.030608,0.093718,1.242367,1.246272,1
23.339056,0.028378,1.961307,-0.083677,0.020395,1.272341,1.275253,0
23.374411,0.035356,1.963661,-0.043443,0.095175,1.262837,1.267163,0
23.40597,0.031559,1.966408,0.060854,0.01214,1.188753,1.190372,0
23.434228,0.028259,1.966543,0.025699,-0.042215,1.109552,1.110652,0
23.462086,0.027857,1.968406,0.025214,-0.010131,0.944325,0.944716,0
23.493768,0.031682,1.971225,0.033458,0.064826,0.888762,0.891751,0
23.522038,0.02827,1.967843,0.013335,0.02865,0.867317,0.867893,0
23.557111,0.035073,1.961625,-0.09207,-0.0275,0.830275,0.835817,0
23.589354,0.032243,1.96292,-0.084171,0.009712,0.805418,0.809863,0
23.614934,0.025581,1.973823,-0.083924,0.035691,0.821258,0.826306,0
23.642535,0.027601,1.982348,-0.154766,-0.070197,0.803956,0.821721,0
23.675859,0.033324,1.987151,-0.172538,0.011411,0.794695,0.81329,0
23.703555,0.027696,1.991387,-0.144152,0.056328,0.802494,0.817281,0
23.73152,0.027965,1.994213,-0.149829,0.018938,0.853914,0.867166,0
23.763488,0.031968,1.996484,-0.15526,0.056571,0.844166,0.860187,0
23.791716,0.028229,1.991713,-0.208082,0.020152,0.916544,0.940084,0
23.826976,0.03526,1.981826,-0.208329,-0.016162,0.981611,1.003605,0
23.858975,0.031999,1.97564,-0.167601,0.002428,0.989653,1.003748,0
23.887271,0.028296,1.975216,-0.247823,-0.022434,1.091518,1.119523,0
23.919426,0.032155,1.975542,-0.293734,0.016995,1.082989,1.122245,0
23.947199,0.027773,1.97746,-0.181918,0.067982,1.161459,1.177584,0
23.975168,0.02797,1.98375,-0.140449,0.089833,1.158535,1.17047,0
24.006618,0.03145,1.988539,-0.162912,0.075023,1.146594,1.160537,0
24.035069,0.02845,1.994442,-0.109101,0.07041,1.24919,1.255921,1
24.070466,0.035397,1.996512,0.04461,0.104401,1.126611,1.132317,0
24.102362,0.031897,1.995201,0.040731,0.127466,0.998182,1.007112,0
24.130193,0.02783,1.992153,-0.070842,0.047102,0.883401,0.887488,0
24.158299,0.028106,1.990901,-0.033076,0.093718,0.913376,0.918767,0
24.190038,0.031739,1.983932,-0.012589,0.177967,0.913376,0.930637,0
24.225222,0.035184,1.975347,-0.039494,0.106586,0.926535,0.933482,0
24.253326,0.028104,1.970044,-0.058253,0.037147,0.961628,0.964107,0
24.284771,0.031445,1.972587,-0.020487,0.069924,0.930435,0.933283,0
24.312719,0.027949,1.971224,-0.085652,0.099545,0.829057,0.839393,0
24.341215,0.028495,1.968817,-0.098734,0.088619,0.888275,0.898128,0
24.372885,0.03167,1.965455,-0.087627,0.020637,0.881451,0.886037,0
24.408375,0.035491,1.966136,-0.114285,0.051715,0.867804,0.876824,0
24.436428,0.028053,1.968011,-0.157481,0.035691,0.882183,0.896839,0
24.468078,0.03165,1.968711,-0.154025,0.057299,0.895099,0.91006,0
24.495808,0.02773,1.967831,-0.168342,0.043945,0.916056,0.932432,0
24.523985,0.028177,1.967678,-0.208823,0.020637,0.942619,0.965694,0
24.562195,0.03821,1.972437,-0.234494,0.000728,1.009636,1.03651,0
24.590639,0.028444,1.97858,-0.16538,0.013839,1.093955,1.106472,0
24.618713,0.028074,1.977145,-0.12638,0.02525,1.114182,1.121611,0
24.649948,0.031235,1.974832,-0.126627,0.042246,1.12198,1.129893,0
24.677948,0.028,1.978007,-0.149336,0.04346,1.102485,1.113401,0
24.705739,0.027791,1.986832,-0.127614,0.001214,1.134409,1.141565,0
24.737163,0.031424,1.990014,-0.03431,0.012625,1.146837,1.14742,0
24.765307,0.028145,1.991584,0.002424,0.051958,1.078846,1.080099,0
24.793299,0.027992,1.994491,-0.053317,-0.020745,0.984292,0.985953,0
24.825089,0.03179,2.002807,-0.093304,0.001457,0.900947,0.905767,0
24.853155,0.028066,2.016858,-0.089601,0.023794,0.936283,0.940862,0
24.888646,0.035491,2.028292,-0.042456,-0.039079,0.955292,0.957033,0
24.921632,0.032985,2.045075,-0.074544,-0.037631,0.968695,0.972287,0
24.949712,0.02808,2.063379,-0.083677,0.002185,0.901922,0.905798,0
24.981341,0.03163,2.069516,-0.136747,0.037147,0.843922,0.855736,0
25.00951,0.028168,2.081861,-0.127861,0.017967,0.84709,0.856874,0
25.045007,0.035497,2.091387,-0.094044,0.037633,0.850989,0.856997,0
25.076649,0.031642,2.086668,-0.128108,0.084735,0.853426,0.867138,0
25.104678,0.028028,2.079743,-0.153532,0.026464,0.86683,0.880719,0
25.132732,0.028054,2.072627,-0.167848,0.028892,0.881695,0.897995,0
25.164334,0.031602,2.068118,-0.215488,-0.059583,0.907771,0.934897,0
25.192464,0.02813,2.069173,-0.232766,0.035205,1.002081,1.029362,0
25.227751,0.035287,2.061652,-0.159949,0.068953,1.016216,1.031035,0
25.25933,0.031579,2.055312,-0.198703,0.043217,1.077384,1.096406,0
25.287657,0.028326,2.048472,-0.173525,-0.0275,1.101997,1.115914,0
25.32297,0.035314,2.044129,-0.171057,0.04176,1.118325,1.132102,0
25.358241,0.035271,2.048756,-0.152791,0.10173,1.236761,1.250309,1
25.390214,0.031973,2.054916,-0.059487,0.083521,1.244072,1.248291,0
25.418223,0.028009,2.04544,0.015032,0.179181,1.083232,1.098055,0
25.453588,0.035365,2.033323,-0.075779,0.053657,1.058863,1.062926,0
25.488802,0.035214,2.029427,-0.065658,0.002914,0.963334,0.965573,0
25.52048,0.031677,2.023693,-0.091576,0.016995,0.932384,0.937025,0
25.548936,0.028456,2.018482,-0.112557,0.0017,0.918981,0.92585,0
25.581924,0.032988,2.01689,-0.084911,-0.038355,0.902897,0.907691,0
25.610205,0.028281,2.008374,-0.083184,0.032534,0.813704,0.818591,0
25.645062,0.034857,1.999878,-0.11231,0.059727,0.822477,0.832255,0
25.676697,0.031635,1.997111,-0.166367,-0.009167,0.834174,0.850652,0
25.704489,0.027792,1.994326,-0.1755,0.019181,0.84904,0.867201,0
25.732422,0.027933,1.991993,-0.167601,0.069439,0.843678,0.862963,0
25.764027,0.031606,1.992255,-0.183399,0.021851,0.888519,0.907512,0
25.792107,0.02808,1.993695,-0.212279,0.005099,0.923855,0.947943,0
25.820464,0.028357,1.993534,-0.194753,0.070653,0.940426,0.962976,0
25.852358,0.031894,1.986537,-0.249551,0.072838,0.948956,0.983919,0
25.880438,0.02808,1.985619,-0.248317,0.001214,1.192165,1.217752,1
25.912179,0.031742,1.986102,-0.12243,-0.001689,1.289887,1.295686,0
25.940225,0.028045,1.98237,-0.0975,0.107314,1.09298,1.102556,0
25.975304,0.03508,1.974639,-0.233013,0.126738,1.134165,1.16477,0
26.010175,0.034871,1.981655,-0.156987,0.011654,1.161459,1.172079,0
26.045468,0.035293,1.986975,0.006061,0.047587,1.13514,1.136153,0
26.077443,0.031975,1.989058,0.015759,0.084735,1.03693,1.040506,0
26.105526,0.028083,1.989537,-0.052576,0.098574,0.922393,0.929134,0
26.14081,0.035284,1.988851,-0.156494,0.097845,0.83783,0.857918,0
26.175972,0.035162,1.9906,-0.22388,0.042731,0.839048,0.869454,0
26.207398,0.031426,1.998676,-0.225608,0.030592,0.896804,0.925253,0
26.235654,0.028255,2.008212,-0.14662,0.067982,0.908014,0.922285,0
26.263843,0.028189,2.009959,-0.164639,0.096146,0.812973,0.83503,0
26.295624,0.031781,2.008981,-0.264114,0.090562,0.789334,0.837261,0
26.330837,0.035212,2.008078,-0.240418,0.074295,0.792015,0.831028,0
26.358896,0.028059,2.007368,-0.225114,0.09129,0.781536,0.818418,0
26.390259,0.031363,2.005065,-0.231532,0.056571,0.812729,0.846957,0
26.41826,0.028001,2.003534,-0.234494,0.091533,0.868779,0.904513,0
26.446668,0.028408,1.997453,-0.202158,0.108528,0.910208,0.938682,0
26.478373,0.031705,1.990499,-0.253007,0.061669,0.966989,1.001441,0
26.513605,0.035231,1.987605,-0.259918,0.070895,1.059838,1.093544,0
26.5418,0.028196,1.990281,-0.197222,0.04953,1.102728,1.12132,0
26.573711,0.03191,1.988002,-0.189817,0.152717,1.119543,1.145744,0
26.599111,0.0254,1.983397,-0.233753,0.102944,1.236761,1.262861,1
26.627386,0.028275,1.986511,-0.127861,0.081093,1.231888,1.241157,0
26.656777,0.029391,1.988013,-0.081703,0.197633,1.116375,1.136674,0
26.681347,0.02457,1.976975,-0.097747,0.200547,1.025476,1.049464,0
26.713153,0.031807,1.968554,-0.090095,0.167284,0.978443,0.99672,0
26.741194,0.028041,1.961135,-0.144646,0.090319,1.05009,1.063846,0
26.776171,0.034977,1.955628,-0.042209,0.153931,0.895342,0.909458,0
26.811104,0.034933,1.95304,-0.060228,0.141791,0.912645,0.925555,0
26.842983,0.031879,1.949314,-0.097994,0.136692,0.84441,0.860997,0
26.871149,0.028166,1.937459,-0.031595,0.231139,0.827838,0.860081,0
26.909613,0.038464,1.929051,-0.128848,0.068953,0.842947,0.855521,0
26.93399,0.024377,1.928646,-0.180437,0.055599,0.868779,0.889059,0
26.966694,0.032704,1.932796,-0.134525,0.035205,0.952124,0.962224,0
26.994879,0.028185,1.934788,-0.089848,0.057785,0.966745,0.97263,0
27.027094,0.032215,1.935472,-0.15131,0.100516,0.91362,0.931504,0
27.055272,0.028177,1.936832,-0.234988,0.127223,0.891443,0.930632,0
27.087087,0.031815,1.935754,-0.228817,0.127952,0.975275,1.009896,0
27.114999,0.027912,1.930355,-0.166367,0.125038,0.96309,0.98532,0
27.150326,0.035327,1.924456,-0.236222,0.088376,1.045703,1.075689,0
27.182318,0.031992,1.921827,-0.251032,0.046859,1.048628,1.079274,0
27.210456,0.028138,1.923534,-0.229063,0.036419,1.163652,1.186543,1
27.238261,0.027805,1.929613,-0.210798,0.070895,1.182417,1.203151,0
27.269449,0.031189,1.939779,-0.166614,-0.027259,1.147812,1.160162,0
27.297196,0.027746,1.956947,-0.134525,0.068225,1.101997,1.112272,0
27.324867,0.027671,1.962777,-0.132304,0.119211,1.144644,1.158415,0
27.356356,0.031489,1.958765,-0.090589,0.082792,1.096392,1.103239,0
27.384317,0.027961,1.959338,-0.083677,-0.039079,1.053989,1.058027,0
27.412245,0.027928,1.966998,-0.099475,-0.081776,0.989653,0.997996,0
27.443751,0.031507,1.971512,-0.082443,0.061912,0.957485,0.96302,0
27.471631,0.02788,1.968212,-0.0585,-0.004342,0.875115,0.877079,0
27.507025,0.035394,1.969911,-0.080962,-0.029912,0.919712,0.923753,0
27.538231,0.031206,1.973937,-0.079975,0.009469,0.904846,0.908423,0
27.565247,0.027016,1.978013,-0.085158,-0.00796,0.903384,0.907424,0
27.592305,0.027058,1.976468,-0.148595,0.02088,0.836611,0.849962,0
27.619695,0.02739,1.969931,-0.172291,0.065311,0.815166,0.83573,0
27.648193,0.028497,1.964911,-0.14193,0.001942,0.889006,0.900267,0
27.672569,0.024376,1.964278,-0.100215,-0.008684,0.924342,0.929799,0
27.703924,0.031355,1.960428,-0.148348,0.045159,0.831494,0.84583,0
27.73029,0.026366,1.950117,-0.267817,0.038847,0.83588,0.878596,0
27.758131,0.027841,1.951477,-0.255475,-0.016162,0.888519,0.924659,0
27.786356,0.028225,1.961079,-0.234988,0.005827,1.001838,1.029044,0
27.817816,0.03146,1.96502,-0.24807,0.063126,1.020115,1.051741,0
27.845664,0.027848,1.967575,-0.264608,0.149317,0.967233,1.013831,0
27.87359,0.027926,1.969731,-0.31126,0.140091,1.012804,1.068775,0
27.905008,0.031418,1.974603,-0.321627,-0.001447,1.050577,1.098707,0
27.932876,0.027868,1.983123,-0.202158,-0.020022,1.132459,1.150536,0
27.967844,0.034969,1.985873,-0.108361,0.124067,1.11077,1.122918,0
28.00275,0.034905,1.994647,-0.16612,0.049772,1.168039,1.180842,1
28.034878,0.032129,2.016957,-0.130082,-0.052587,1.228476,1.236463,0
28.062444,0.027565,2.037023,0.046307,0.112899,1.2024,1.208576,0
28.090229,0.027786,2.047233,0.127769,0.120911,1.098585,1.11258,0
28.121365,0.031136,2.038543,0.081704,0.034719,0.991602,0.995568,0
28.149827,0.028462,2.021312,-0.069361,0.015296,0.896073,0.898884,0
28.178144,0.028317,2.008198,-0.055291,0.025493,0.884132,0.886226,0
28.210184,0.03204,2.006594,-0.044924,-0.030636,0.901678,0.903316,0
28.238315,0.028131,2.010191,-0.059981,-0.04535,0.955535,0.95849,0
28.269853,0.031538,2.014016,0.012607,-0.001689,0.916788,0.916876,0
28.297908,0.028055,2.018067,-0.046158,0.000728,0.854157,0.855404,0
28.325861,0.027953,2.024865,-0.129342,-0.006272,0.880477,0.889948,0
28.357833,0.031971,2.039185,0.003152,0.098331,0.907527,0.912844,0
28.393623,0.03579,2.04105,-0.050354,0.110956,0.892905,0.901181,0
28.429239,0.035616,2.032109,-0.065658,-0.00386,0.90972,0.912095,0
28.464595,0.035356,2.031621,-0.104658,-0.026535,0.935309,0.94152,0
28.496239,0.031643,2.037118,-0.059734,0.042489,0.931409,0.934289,0
28.523962,0.027723,2.038321,-0.078,0.06434,0.953098,0.958447,0
28.552314,0.028353,2.038941,-0.09281,-0.005307,0.956266,0.960774,0
28.584205,0.03189,2.044003,-0.101449,-0.000965,0.958947,0.964299,0
28.61303,0.028826,2.053385,-0.104658,0.042246,0.977955,0.984447,0
28.645184,0.032153,2.062372,-0.056525,0.081821,1.037174,1.041931,0
28.673402,0.028218,2.070061,-0.052823,0.025008,1.016703,1.018382,0
28.704963,0.031562,2.071448,-0.105646,0.001214,1.040586,1.045935,0
28.733064,0.028101,2.071881,-0.046405,0.078908,1.058863,1.062812,0
28.760949,0.027884,2.072084,-0.036038,0.083035,1.065443,1.069281,0
28.79234,0.031391,2.078615,-0.091082,0.030349,1.078359,1.082624,0
28.820602,0.028262,2.092033,-0.020981,-0.091183,1.096879,1.100863,0
28.855667,0.035065,2.101058,0.012607,-0.10035,1.00135,1.006445,0
28.890669,0.035003,2.10568,0.002182,0.018209,0.993796,0.993965,0
28.922333,0.031663,2.108565,0.031276,0.032777,0.977955,0.979004,0
28.950567,0.028235,2.103415,0.032488,0.012382,0.9453,0.945939,0
28.98646,0.035893,2.088914,0.017214,-0.006996,0.905578,0.905768,0
29.019349,0.032889,2.08305,0.011395,-0.075262,0.979905,0.982857,0
29.04769,0.028341,2.08375,0.045095,-0.030153,0.955292,0.956831,0
29.079607,0.031917,2.074474,0.036367,-0.040767,0.932384,0.933983,0
29.10747,0.027863,2.062011,-0.026411,-0.045109,0.948468,0.949907,0
29.142517,0.035048,2.042346,0.030791,0.033748,0.986485,0.987542,0
29.17757,0.035053,2.019661,-0.005184,-0.10831,0.983073,0.989035,0
29.209271,0.031701,2.001506,-0.041962,-0.102521,0.96309,0.96944,0
29.23723,0.027959,1.987241,-0.008146,-0.094802,0.965527,0.970204,0
29.265395,0.028165,1.980582,-0.04912,-0.141841,0.976493,0.987963,0
29.29692,0.031525,1.979141,0.009698,-0.00193,0.981367,0.981417,0
29.325205,0.028285,1.972427,0.07928,-0.013026,0.996964,1.000196,0
29.36029,0.035085,1.965243,-0.014316,-0.086118,0.900704,0.904924,0
29.392019,0.031729,1.975376,-0.042949,-0.244844,1.019871,1.049729,0
29.420372,0.028354,1.981838,0.004122,-0.122784,1.097854,1.104707,0
29.448799,0.028427,1.979771,0.041216,0.01481,0.998182,0.999143,0
29.480285,0.031486,1.971624,0.085826,0.091533,0.975518,0.983555,0
29.515436,0.035151,1.959173,0.041943,0.084006,1.000863,1.005258,0
29.543552,0.028116,1.936981,0.063521,-0.002895,0.99672,0.998746,0
29.575306,0.031754,1.928684,0.025942,0.1078,1.019628,1.025638,0
29.605731,0.030425,1.921334,-0.01481,0.062398,0.961384,0.963521,0
29.631586,0.025855,1.906504,0.021093,-0.035219,0.997939,0.998783,0
29.663681,0.032095,1.894976,0.017456,-0.006031,1.015485,1.015653,0
29.691299,0.027618,1.87284,-0.002222,-0.008202,1.007686,1.007722,0
29.722476,0.031176,1.857706,0.00194,0.084492,1.002325,1.005882,0
29.750364,0.027888,1.840638,0.135042,-0.03932,1.075678,1.084834,0
29.778226,0.027862,1.825575,0.01188,0.008741,1.021577,1.021684,0
29.809767,0.031542,1.813419,0.034912,-0.020504,0.964796,0.965645,0
29.837845,0.028077,1.811778,-0.009627,-0.036666,0.999157,0.999876,0
29.87361,0.035766,1.814571,0.107161,-0.013991,0.993552,0.999412,0
29.905228,0.031617,1.806553,0.0337,0.213415,0.879502,0.905652,0
29.93367,0.028443,1.793576,0.14474,0.14519,0.880964,0.904504,0
29.961512,0.027842,1.83112,-0.206848,-0.52539,1.113938,1.248871,1
29.993487,0.031976,1.84722,0.273237,0.103187,1.079577,1.118388,0
30.021665,0.028178,1.851432,-0.185374,0.025493,0.960409,0.978468,0
30.053529,0.031864,1.858279,-0.005677,-0.050657,0.909964,0.911391,0
30.08164,0.028111,1.866646,-0.031842,0.001214,0.948224,0.94876,0
30.109551,0.027911,1.887531,-0.008639,0.040061,0.954561,0.95544,0
30.141171,0.03162,1.901829,-0.007652,-0.00796,1.03888,1.038938,0
30.176447,0.035276,1.911392,0.000242,-0.026776,1.05667,1.057009,0
30.204292,0.027845,1.919919,-0.056525,-0.072368,1.048871,1.052883,0
30.236362,0.032071,1.924867,-0.003209,-0.050416,0.936283,0.937645,0
30.264573,0.02821,1.928068,-0.016785,-0.060306,0.967233,0.969256,0
30.299902,0.035329,1.922373,-0.005184,-0.038114,0.878527,0.879369,0
30.332074,0.032172,1.929157,-0.008146,-0.165481,1.013779,1.027228,0
30.360144,0.02807,1.939071,-0.001728,-0.121095,1.004031,1.011309,0
30.388111,0.027968,1.946366,-0.012342,-0.107346,0.975031,0.981,0
30.419835,0.031724,1.955405,0.004606,-0.097696,0.990384,0.995202,0
30.454996,0.035161,1.963885,-0.004443,-0.033772,0.992821,0.993405,0
30.483335,0.028338,1.969681,-0.016044,-0.023158,0.982342,0.982746,0
30.515284,0.031949,1.97162,-0.015797,-0.020022,0.998426,0.998752,0
30.543317,0.028033,1.967581,-0.015304,-0.055241,1.059594,1.061143,0
30.578295,0.034978,1.963198,-0.007652,-0.068026,0.939451,0.941942,0
30.613351,0.035056,1.960596,-0.012835,-0.011096,0.987216,0.987362,0
30.648309,0.034958,1.949097,-0.018513,-0.027982,0.92093,0.921541,0
30.680653,0.032344,1.940147,-0.05307,-0.018092,0.936283,0.937961,0
30.708998,0.028345,1.934172,-0.084665,-0.008925,0.948468,0.952281,0
30.740825,0.031827,1.930805,-0.061215,-0.030153,0.985266,0.987627,0
30.768669,0.027844,1.927713,-0.049367,0.000486,0.937014,0.938314,0
30.796994,0.028325,1.92761,-0.002222,0.037876,0.990871,0.991598,0
30.82838,0.031386,1.927401,0.026427,0.052929,0.980392,0.982176,0
30.85651,0.02813,1.922033,0.007031,0.009954,0.925317,0.925397,0
30.891805,0.035295,1.915506,-0.048133,0.016995,0.921418,0.922831,0
30.923664,0.031858,1.921283,0.017214,0.000971,1.020359,1.020504,0
30.951816,0.028152,1.924087,0.053581,0.002914,0.891443,0.893057,0
30.987512,0.035696,1.913856,-0.040975,-0.051864,0.713788,0.716842,0
31.02011,0.032598,1.91662,-0.045665,0.050501,0.720612,0.723821,0
31.046285,0.026175,1.933049,0.020365,0.006555,0.856594,0.856862,0
31.081568,0.035283,1.935015,0.029336,-0.067061,0.880233,0.883271,0
31.109691,0.028123,1.933812,0.071037,0.014325,0.879258,0.882239,0
31.141326,0.031635,1.942876,-0.069114,0.012382,0.976006,0.978528,0
31.169454,0.028128,1.953312,0.020608,-0.035943,0.973325,0.974207,0
31.205104,0.03565,1.960224,0.076855,0.027678,1.031081,1.034312,0
31.236721,0.031617,1.967491,0.078068,0.047345,1.074703,1.078574,0
31.265292,0.028571,1.968927,0.039519,-0.011338,0.93872,0.93962,0
31.300447,0.035156,1.967254,-0.001234,0.056085,0.998426,1.000001,0
31.332653,0.032205,1.968809,0.064248,0.102216,0.999157,1.006425,0
31.360875,0.028222,1.966976,0.055035,0.121153,0.988434,0.997351,0
31.395879,0.035004,1.9744,0.146922,0.137906,1.007686,1.027636,0
31.430815,0.034936,1.974158,0.074431,0.034477,1.039854,1.043085,0
31.463006,0.032191,1.967441,0.062551,0.045888,1.026207,1.029136,0
31.49105,0.028044,1.963199,0.163893,0.066282,1.178762,1.191945,1
31.519026,0.027976,1.960729,0.091402,0.073323,1.087132,1.093428,0
31.55058,0.031553,1.949064,0.049217,0.007041,1.046191,1.047371,0
31.578516,0.027936,1.934248,0.059399,0.009712,1.102972,1.104613,0
31.613648,0.035132,1.924923,-0.00543,0.054143,1.098829,1.100176,0
31.652889,0.039241,1.917272,0.00994,0.064097,1.094199,1.09612,0
31.682184,0.029296,1.920261,0.196139,-0.040043,1.444635,1.458439,0
31.7113,0.029115,1.91348,-0.13576,-0.092148,1.197526,1.208715,0
31.736343,0.025043,1.889808,-0.09281,-0.075504,1.180224,1.186273,0
31.7677,0.031357,1.888546,-0.004196,0.092504,1.035955,1.040086,0
31.795421,0.027721,1.887057,0.014062,0.137421,0.980392,0.990076,0
31.823164,0.027744,1.887498,0.026184,-0.034737,0.963577,0.964559,0
31.854734,0.03157,1.885045,0.024972,-0.010131,0.971132,0.971506,0
31.88276,0.028025,1.888607,0.075643,0.002428,0.974544,0.977478,0
31.917976,0.035216,1.886045,0.063763,-0.065613,0.893149,0.897823,0
31.953172,0.035197,1.883079,0.069824,0.024765,0.932872,0.935809,0
31.984623,0.03145,1.872079,-0.111323,-0.006272,1.330829,1.335491,1
32.013006,0.028384,1.866372,0.001455,0.076237,1.043266,1.046049,0
32.042214,0.029208,1.864178,0.005576,0.065068,0.993796,0.995939,0
32.06713,0.024915,1.862416,0.017941,0.058027,0.983561,0.985434,0
32.099478,0.032348,1.859895,0.007273,0.07915,0.993552,0.996726,0
32.127608,0.028131,1.859621,-0.006171,0.10173,0.978687,0.983979,0
32.159457,0.031849,1.854846,-0.023943,0.089833,1.136115,1.139912,0
32.187428,0.027971,1.860188,0.063521,0.136449,0.940913,0.952875,0
32.222774,0.035347,1.863159,-0.000741,0.087891,0.995502,0.999374,0
32.254805,0.032031,1.857955,0.001212,0.076965,1.023283,1.026174,0
32.283027,0.028222,1.854515,0.009213,0.094689,0.938233,0.943044,0
32.318798,0.035771,1.851895,0.00897,0.083763,0.993796,0.99736,0
32.350864,0.032066,1.849245,0.011637,0.096146,0.991846,0.996563,0
32.379235,0.028371,1.846558,0.01091,0.092747,0.991115,0.995505,0
32.411086,0.031851,1.844005,0.010668,0.093232,0.992577,0.997003,0
32.439421,0.028335,1.841642,0.011395,0.092261,0.993308,0.997649,0
32.475241,0.03582,1.8372,0.030791,0.056328,0.943838,0.946018,0
32.506951,0.03171,1.828384,0.008001,0.182337,0.973569,0.990529,0
32.535568,0.028618,1.825692,-0.013329,0.181609,1.052527,1.068163,0
32.571008,0.03544,1.824001,0.013092,0.105372,0.988191,0.993879,0
32.602934,0.031926,1.821776,0.014789,0.1078,0.970888,0.976967,0
32.631033,0.028099,1.820571,0.022063,0.110956,1.051308,1.057377,0
32.667604,0.036572,1.817343,0.017214,0.089833,1.023283,1.027363,0
32.700088,0.032483,1.815297,0.008001,0.10173,0.93604,0.941585,0
32.728275,0.028188,1.813603,0.011637,0.096874,0.992334,0.997119,0
32.759596,0.031321,1.811955,0.008728,0.081578,0.994771,0.998148,0
32.787089,0.027493,1.80797,0.015759,0.093232,0.989897,0.994402,0
32.81479,0.0277,1.801642,0.031033,0.114841,0.98746,0.994599,0
32.846096,0.031306,1.798694,0.015517,0.109499,0.987703,0.993876,0
32.874932,0.028836,1.796541,0.008243,0.095175,1.119056,1.123126,0
32.910444,0.035512,1.794366,0.031033,0.097845,1.003787,1.009022,0
32.94273,0.032285,1.792118,-0.0,0.094932,0.988434,0.992983,0
32.970894,0.028164,1.790724,0.01091,0.101487,0.993796,0.999024,0
33.002724,0.03183,1.789229,0.004606,0.102701,1.003544,1.008796,0
33.030995,0.028272,1.786076,0.011395,0.047102,0.937502,0.938753,0
33.059467,0.028472,1.781715,0.022305,0.093475,0.995258,0.999887,0
33.091159,0.031692,1.778314,0.006061,0.122367,0.999401,1.006883,0
33.119262,0.028102,1.776732,0.007758,0.108771,0.995258,1.001214,0
33.151052,0.03179,1.774061,0.013577,0.095903,0.992821,0.997535,0
33.179286,0.028234,1.772657,0.01285,0.108043,0.995258,1.001188,0
33.214468,0.035181,1.771906,0.010425,0.098817,0.996964,1.001903,0
33.249763,0.035295,1.771114,0.010668,0.09736,0.995989,1.000793,0
33.281585,0.031822,1.770234,0.012365,0.098088,0.993308,0.998216,0
33.309631,0.028046,1.772806,0.019638,0.1061,0.995014,1.000848,0
33.337509,0.027878,1.771463,-0.037519,0.103187,0.999888,1.005898,0
33.369336,0.031827,1.770616,0.008486,0.105129,0.995745,1.001316,0
33.404831,0.035495,1.769617,0.012607,0.097117,0.994039,0.998852,0
33.432927,0.028096,1.769805,0.01091,0.106829,0.993552,0.999338,0
33.46526,0.032333,1.770287,-0.004196,0.087648,0.997451,1.001303,0
33.49308,0.027819,1.769662,0.018668,0.085463,0.988191,0.992055,0
33.528131,0.035052,1.768959,0.014304,0.096631,0.994771,0.999555,0
33.559813,0.031682,1.768271,0.014304,0.095175,0.994771,0.999415,0
33.588304,0.02849,1.768636,0.019638,0.090319,0.997695,1.001967,0
33.6237,0.035396,1.767986,0.008486,0.083035,0.995258,0.998752,0
33.655461,0.031761,1.769607,0.015032,0.100759,0.993308,0.998519,0
33.689653,0.034192,1.769048,0.004606,0.103672,0.994283,0.999684,0
33.718409,0.028756,1.76847,0.010668,0.090076,1.05935,1.063226,0
33.751207,0.032798,1.765212,0.003637,0.092018,0.993796,0.998053,0
33.778507,0.0273,1.763661,0.022063,0.090562,0.992334,0.996702,0
33.806162,0.027655,1.765616,0.016729,0.086191,0.989409,0.993297,0
33.840614,0.034452,1.770645,-0.012095,0.055357,0.96967,0.971324,0
33.875726,0.035112,1.773542,-0.004196,0.113627,0.994771,1.001248,0
33.907576,0.03185,1.772967,0.012607,0.094446,0.991602,0.99617,0
33.935696,0.02812,1.769396,0.012122,0.125038,0.980149,0.988167,0
33.963739,0.028042,1.768224,0.010668,0.089105,0.991602,0.995655,0
33.99549,0.031752,1.76663,0.00897,0.083035,0.999157,1.002642,0
34.023562,0.028072,1.767792,0.019638,0.066282,1.044728,1.047013,0
34.058784,0.035222,1.769288,0.007273,0.100759,0.995258,1.000372,0
34.091588,0.032804,1.768102,0.012122,0.073566,0.987703,0.990513,0
34.119435,0.027847,1.768348,0.026184,0.082064,0.994283,0.998008,0
34.151134,0.031699,1.771668,0.022063,0.1617,0.995745,1.00903,0
34.178991,0.027857,1.772121,-0.009133,0.103672,0.993796,0.99923,0
34.206949,0.027958,1.769015,0.00994,0.08959,1.092737,1.096448,0
34.23853,0.031581,1.774476,0.149589,0.025979,0.968695,0.980521,0
34.266531,0.028001,1.778117,0.006546,0.089348,1.039854,1.043706,0
34.294967,0.028437,1.781305,0.093827,0.219727,0.982098,1.010743,0
34.326813,0.031846,1.777679,-0.020487,0.077451,0.982342,0.985603,0
34.355207,0.028394,1.772529,-0.000494,0.061184,1.023283,1.025111,0
34.386616,0.031409,1.769225,0.024972,0.1061,0.995745,1.001693,0
34.414462,0.027846,1.765637,0.013577,0.092261,0.937014,0.941643,0
34.442223,0.027761,1.760105,0.015759,0.101002,0.999157,1.004373,0
34.474659,0.032436,1.752316,-0.001234,0.059484,0.995502,0.997278,0
34.5028,0.028141,1.745059,0.026427,0.070895,0.983804,0.986709,0
34.534887,0.032087,1.745547,0.036852,0.085949,1.001594,1.00595,0
34.562912,0.028024,1.740748,-0.00938,0.065554,1.008905,1.011076,0
34.598103,0.035191,1.73789,0.024729,0.069924,0.979905,0.982708,0
34.63001,0.031908,1.736663,0.002909,0.080122,0.999401,1.002612,0
34.658334,0.028323,1.741687,0.034427,0.059484,0.991359,0.993738,0
34.692985,0.034651,1.752193,0.017456,0.065797,1.028157,1.030408,0
34.728746,0.035762,1.760578,0.019881,0.080364,0.991602,0.995052,0
34.760617,0.03187,1.763323,-0.001481,0.093961,0.996476,1.000898,0
34.788408,0.027792,1.769253,0.016486,0.106343,0.98746,0.993306,0
34.81635,0.027942,1.774593,0.000485,0.110956,0.999157,1.005299,0
34.847702,0.031353,1.774115,-0.005677,0.08959,0.993796,0.997842,0
34.875855,0.028153,1.767856,-0.01481,0.110228,1.057888,1.063718,0
34.911271,0.035416,1.762034,0.029094,0.074537,0.96504,0.968351,0
34.942933,0.031662,1.757866,0.022063,0.073566,0.99014,0.993115,0
34.971031,0.028098,1.753075,0.002667,0.087891,0.948468,0.952535,0
34.999345,0.028314,1.750498,0.02376,0.061912,0.986729,0.988954,0
35.031046,0.031701,1.749101,0.021578,0.059727,0.998426,1.000444,0
35.066406,0.035361,1.737777,-0.015304,0.081093,0.991846,0.995273,0
35.101962,0.035555,1.728212,0.037337,0.086191,0.999157,1.003563,0
35.137382,0.03542,1.72541,0.027396,0.077451,0.936527,0.940123,0
35.169007,0.031625,1.72258,0.019881,0.122125,0.998182,1.005822,0
35.196923,0.027917,1.721047,0.017456,0.065797,1.008661,1.010956,0
35.224836,0.027913,1.717894,0.017699,0.060213,0.999157,1.001126,0
35.256628,0.031792,1.719132,0.036609,0.070895,0.962846,0.966147,0
35.285162,0.028533,1.724311,0.044125,0.067496,1.054476,1.057555,0
35.317465,0.032303,1.728558,0.021093,0.048316,0.999401,1.00079,0
35.345556,0.02809,1.729195,0.01285,0.061427,0.999888,1.001856,0
35.381143,0.035587,1.729924,0.032488,0.056085,0.939939,0.942171,0
35.412867,0.031724,1.731261,0.008486,0.050258,0.976981,0.978309,0
35.440951,0.028085,1.731442,0.014547,0.069681,1.017922,1.020408,0
35.469065,0.028114,1.732511,0.022547,0.046373,0.982829,0.984181,0
35.501062,0.031997,1.729959,0.04558,-0.029188,0.984292,0.985779,0
35.536268,0.035206,1.728482,0.032003,0.036662,0.988678,0.989875,0
35.564336,0.028068,1.728961,0.022305,0.023308,0.985997,0.986525,0
35.595693,0.031357,1.730561,0.022547,0.020395,1.010123,1.010581,0
35.623777,0.028084,1.727515,-0.021968,0.028407,1.002569,1.003212,0
35.6537,0.029922,1.731211,0.018668,0.011654,0.94725,0.947505,0
35.686286,0.032586,1.754055,0.432039,-0.012785,1.148056,1.226724,1
35.719007,0.032722,1.758922,0.183774,0.090804,1.059594,1.079239,0
35.747682,0.028675,1.759773,-0.054551,0.069681,0.999888,1.003797,0
35.779037,0.031355,1.757376,-0.003209,0.03739,0.992821,0.99353,0
35.806838,0.027802,1.754852,0.053096,-0.028706,1.08372,1.085399,0
35.841605,0.034767,1.750108,-0.002715,0.041032,0.940913,0.941812,0
35.876742,0.035137,1.747321,0.02279,0.021851,0.937258,0.93779,0
35.908787,0.032045,1.74628,0.027396,0.010683,1.000863,1.001295,0
35.936905,0.028117,1.746248,0.018426,0.017238,0.99867,0.998988,0
35.965169,0.028265,1.747494,0.019881,0.00607,0.94335,0.943579,0
35.996439,0.031269,1.750471,-0.00469,0.052686,1.053745,1.055072,0
36.024276,0.027837,1.744791,-0.023943,0.088619,0.88925,0.893975,0
36.059412,0.035137,1.744974,0.023517,0.036176,0.971619,0.972577,0
36.093976,0.034564,1.744689,0.021093,0.000728,1.049602,1.049814,0
36.127043,0.033067,1.74323,0.009213,0.004127,1.011342,1.011392,0
36.155455,0.028412,1.743134,0.035397,-0.013267,0.974056,0.97479,0
36.187187,0.031732,1.743218,0.013577,0.006313,0.993552,0.993665,0
36.214977,0.02779,1.743682,0.017456,-0.016162,0.956266,0.956562,0
36.24271,0.027733,1.745807,0.008243,0.028164,1.030107,1.030524,0
36.274356,0.031646,1.746207,0.021335,0.0017,0.999401,0.99963,0
36.302416,0.02806,1.746605,0.02376,0.006798,1.005981,1.006284,0
36.330553,0.028137,1.747358,0.02279,-0.010131,0.995014,0.995327,0
36.362194,0.031641,1.747163,-0.000247,-0.004342,1.02109,1.021099,0
36.397505,0.03531,1.73688,0.052853,0.100516,0.962359,0.969036,0
36.425581,0.028076,1.737194,0.053338,-0.013026,0.984292,0.985822,0
36.457459,0.031879,1.743049,0.039034,-0.004583,0.997939,0.998712,0
36.485431,0.027972,1.745183,0.000727,0.111199,0.932628,0.939234,0
36.520435,0.035004,1.744893,0.034912,0.008741,0.905578,0.906292,0
36.555423,0.034988,1.742815,0.018911,0.014082,0.946762,0.947056,0
36.590745,0.035322,1.741704,0.020608,-0.006272,0.989409,0.989644,0
36.622338,0.031593,1.736675,0.038549,-0.03932,1.021821,1.023303,0
36.650653,0.028315,1.737165,0.042428,-0.059824,0.991115,0.993825,0
36.678528,0.027875,1.740688,0.033942,-0.005548,0.987947,0.988546,0
36.709986,0.031458,1.74638,0.033458,-0.04125,0.962115,0.96358,0
36.738284,0.028297,1.746688,0.008486,0.003642,1.007443,1.007485,0
36.770154,0.03187,1.745652,0.018183,0.003156,1.004031,1.004201,0
36.799052,0.028898,1.744282,0.020608,0.001942,0.999157,0.999371,0
36.834116,0.035064,1.742349,0.021335,0.002428,1.004275,1.004504,0
36.865771,0.031655,1.740747,0.016729,-0.003377,0.984048,0.984196,0
36.894005,0.028233,1.738832,0.013092,-0.004342,1.010123,1.010218,0
36.92215,0.028145,1.737309,0.018668,-0.010131,0.979905,0.980135,0
36.954248,0.032098,1.736137,0.013335,-0.000482,1.001594,1.001683,0
36.982277,0.028029,1.733286,0.013092,-0.019057,1.00525,1.005515,0
37.013816,0.031539,1.729689,0.033215,-0.035701,0.986241,0.987446,0
37.041793,0.027977,1.729309,0.022305,-0.036666,1.042048,1.042931,0
37.069809,0.028015,1.729941,0.017941,-0.023881,1.011829,1.01227,0
37.101591,0.031782,1.731047,0.038306,-0.03546,0.999888,1.00125,0
37.13055,0.028959,1.731281,0.018668,-0.03546,0.989653,0.990464,0
37.162144,0.031595,1.730098,0.010183,-0.046557,1.000376,1.00151,0
37.190076,0.027931,1.72936,0.017214,-0.03546,0.998913,0.999691,0
37.218289,0.028214,1.728956,0.020123,-0.038355,0.998426,0.999365,0
37.249881,0.031591,1.73508,0.063521,-0.116753,0.951636,0.960873,0
37.285045,0.035164,1.739011,-0.048627,0.021123,1.057157,1.058486,0
37.313027,0.027982,1.739067,0.019396,-0.012785,1.009636,1.009903,0
37.344559,0.031532,1.741298,0.021335,-0.001689,0.959922,0.96016,0
37.37257,0.028011,1.745633,-0.008392,-0.150766,1.151224,1.161085,0
37.400983,0.028413,1.743915,0.039519,-0.039802,0.985997,0.987591,0
37.432813,0.03183,1.744166,0.029094,-0.016403,0.995989,0.996549,0
37.461231,0.028418,1.745383,0.011153,-0.021952,0.986485,0.986792,0
37.492593,0.031361,1.744559,0.019881,-0.046074,0.984779,0.986057,0
37.520914,0.028321,1.742763,0.020123,-0.016645,1.017434,1.017769,0
37.555958,0.035044,1.738202,0.008243,-0.064166,1.028888,1.03092,0
37.591124,0.035166,1.736239,0.031276,-0.036908,0.990384,0.991565,0
37.62299,0.031866,1.736593,0.015274,-0.032083,0.999644,1.000276,0
37.65107,0.02808,1.738241,0.016244,-0.028223,0.93872,0.939285,0
37.686544,0.035474,1.739487,0.023517,-0.044144,0.978443,0.97972,0
37.71841,0.031866,1.741219,0.021335,-0.036425,1.00135,1.00224,0
37.747155,0.028745,1.739383,0.006304,-0.028223,0.953098,0.953537,0
37.782402,0.035247,1.73702,0.04267,-0.042456,1.029132,1.030891,0
37.817441,0.035038,1.737107,0.024729,-0.040043,0.992577,0.993692,0
37.849138,0.031697,1.736689,0.017214,-0.03353,1.001107,1.001816,0
37.877126,0.027988,1.7369,0.002667,-0.037631,0.925561,0.926329,0
37.905692,0.028566,1.735628,-0.003949,-0.046074,0.996476,0.997549,0
37.937537,0.031845,1.735734,0.021578,-0.038596,0.997939,0.998918,0
37.965888,0.02835,1.737301,0.024729,-0.042456,0.994039,0.995253,0
37.997279,0.031391,1.739754,0.026184,-0.036425,0.996233,0.997242,0
38.025225,0.027946,1.740441,0.010183,-0.050416,0.989653,0.990989,0
38.053155,0.02793,1.740053,0.017699,-0.038114,0.997695,0.99858,0
38.085251,0.032096,1.7415,0.030548,-0.042938,0.99014,0.991542,0
38.113796,0.028545,1.744513,0.02376,-0.04125,0.995258,0.996396,0
38.146224,0.032427,1.746242,0.005334,-0.045833,0.994283,0.995353,0
38.174292,0.028069,1.746107,0.027881,-0.048969,0.999888,1.001475,0
38.205946,0.031654,1.74651,0.019881,-0.031359,0.994527,0.99522,0
38.233919,0.027973,1.747063,0.018668,-0.032324,0.994283,0.994984,0
38.261829,0.02791,1.747485,0.020365,-0.031359,0.995502,0.996204,0
38.293368,0.031539,1.748005,0.022547,-0.017609,1.003787,1.004195,0
38.321645,0.028278,1.748521,0.017456,-0.034737,0.991602,0.992364,0
38.353347,0.031701,1.75061,0.021093,-0.033289,0.997939,0.998716,0
38.381226,0.027879,1.75132,0.007516,-0.024123,0.996233,0.996553,0
38.409197,0.027971,1.751642,0.019638,-0.018333,0.939939,0.940323,0
38.440455,0.031258,1.751563,0.017456,-0.023158,0.998913,0.999334,0
38.468477,0.028023,1.750949,0.018911,-0.024846,0.987947,0.98844,0
38.496469,0.027992,1.750796,0.023275,-0.020987,1.023039,1.023519,0
38.52826,0.03179,1.749794,0.020365,-0.016403,0.981367,0.981716,0
38.556336,0.028077,1.749288,0.030791,-0.03932,0.967476,0.968765,0
38.59167,0.035334,1.748236,0.010425,-0.031601,0.939451,0.940041,0
38.623222,0.031552,1.748316,0.027396,-0.046557,0.985023,0.986503,0
38.651696,0.028475,1.748237,0.021093,-0.034495,0.991846,0.99267,0
38.679807,0.028111,1.749948,0.03176,-0.031842,1.012804,1.013802,0
38.711547,0.03174,1.748734,0.010668,-0.036425,0.980149,0.980883,0
38.747184,0.035636,1.74853,0.027639,-0.054517,0.969913,0.971838,0
38.775087,0.027903,1.749987,0.027881,-0.040526,1.001594,1.002801,0
38.806267,0.03118,1.750165,0.002424,-0.030636,1.001594,1.002065,0
38.833838,0.02757,1.749952,0.018668,-0.041732,0.995745,0.996794,0
38.861329,0.027491,1.747372,0.017941,-0.028706,0.976493,0.97708,0
38.892997,0.031668,1.745496,0.016244,-0.034495,0.989897,0.990631,0
38.921013,0.028017,1.744805,0.031276,-0.053552,0.990384,0.992324,0
38.949449,0.028435,1.744778,0.017699,-0.042215,0.992821,0.993876,0
38.980999,0.03155,1.744686,0.022063,-0.040285,0.998426,0.999482,0
39.015935,0.034936,1.744695,0.017456,-0.037631,0.999401,1.000261,0
39.051006,0.035071,1.743887,0.011395,-0.035219,0.99014,0.990832,0
39.079096,0.02809,1.743942,0.026911,-0.049451,0.985754,0.98736,0
39.110688,0.031593,1.743675,0.021578,-0.035701,1.002569,1.003436,0
39.13912,0.028432,1.745618,0.030063,-0.04125,0.990628,0.991942,0
39.174436,0.035316,1.746783,0.019638,-0.040285,1.046922,1.04788,0
39.209147,0.034712,1.746442,0.016244,-0.041973,0.991846,0.992867,0
39.244169,0.035022,1.746419,0.020365,-0.040767,1.055695,1.056678,0
39.279212,0.035043,1.747904,0.024245,-0.042697,0.99014,0.991357,0
39.311036,0.031823,1.749914,0.018426,-0.038114,1.000619,1.001514,0
39.339188,0.028152,1.751418,0.02182,-0.036425,0.993552,0.994459,0
39.374732,0.035544,1.752144,0.008243,-0.034254,1.002813,1.003431,0
39.406417,0.031685,1.752056,0.009213,-0.038596,1.002325,1.00311,0
39.435129,0.028713,1.750964,0.016729,-0.035701,1.002813,1.003587,0
39.470374,0.035244,1.749803,0.010668,-0.039561,1.049602,1.050402,0
39.502226,0.031852,1.747617,0.017941,-0.03932,0.979418,0.980371,0
39.530492,0.028266,1.745653,0.026911,-0.05114,0.991602,0.993285,0
39.55896,0.028469,1.743546,0.016001,-0.046798,0.991846,0.993078,0
39.590488,0.031528,1.741852,0.02182,-0.045833,0.992334,0.993631,0
39.618428,0.02794,1.740306,0.024245,-0.042215,0.997695,0.998882,0
39.649976,0.031549,1.739428,0.032973,-0.025811,0.999157,1.000034,0
39.678409,0.028432,1.737763,0.023032,-0.039802,0.995014,0.996076,0
39.713845,0.035436,1.737348,0.021093,-0.025087,0.993065,0.993605,0
39.750143,0.036299,1.736678,0.022305,-0.002412,0.99014,0.990394,0
39.781697,0.031554,1.738237,0.016971,-0.016403,0.993796,0.994076,0
39.816278,0.034581,1.744089,0.033458,-0.013026,1.00793,1.008569,0
39.850698,0.03442,1.75276,0.029821,0.052929,1.001838,1.003678,0
39.8786,0.027903,1.760246,0.003394,0.003642,0.997451,0.997464,0
39.913874,0.035274,1.763333,0.005334,-0.021469,1.000376,1.00062,0
39.94595,0.032076,1.762364,0.01091,-0.028223,0.988678,0.989141,0
39.974152,0.028202,1.76274,0.028851,-0.014232,0.97893,0.979459,0
40.002215,0.028064,1.762703,0.000242,0.010683,1.001594,1.001651,0
40.033758,0.031543,1.762187,0.013092,0.041275,1.017922,1.018842,0
40.068677,0.034918,1.763149,0.012122,0.007284,0.99867,0.99877,0
40.104702,0.036025,1.763215,0.00994,0.019423,0.992334,0.992573,0
40.14039,0.035689,1.765128,0.02085,0.029135,1.058863,1.059469,0
40.172121,0.031731,1.764985,0.005819,0.033748,0.997451,0.998039,0
40.200252,0.028131,1.765301,0.017941,0.021123,1.007686,1.008068,0
40.228052,0.0278,1.765462,-0.00543,0.055114,1.000132,1.001664,0
40.259695,0.031643,1.765232,0.007031,0.04176,0.998182,0.99908,0
40.287561,0.027866,1.765489,0.013092,0.045402,0.992577,0.993701,0
40.322834,0.035273,1.764412,0.009213,0.069439,0.999157,1.001609,0
40.357977,0.035143,1.764097,0.016001,0.042003,1.057888,1.058842,0
40.389767,0.03179,1.758294,0.039519,0.017724,0.98746,0.988409,0
40.418079,0.028312,1.766316,0.016486,0.163157,1.02109,1.034174,0
40.453977,0.035898,1.763479,0.00194,0.076722,1.004031,1.00696,0
40.485113,0.031136,1.762801,0.025457,0.030106,0.998426,0.999204,0
40.512733,0.02762,1.767222,0.032003,0.020152,0.996476,0.997194,0
40.540487,0.027754,1.770303,0.02182,0.04176,1.005493,1.006597,0
40.582199,0.041712,1.768075,-0.00469,0.061184,0.992577,0.994472,0
40.670953,0.088754,1.716945,-0.004196,0.031077,0.998182,0.998675,0
40.71019,0.039237,1.680694,-0.019253,-0.011096,0.998426,0.998673,0
40.753475,0.043286,1.648942,0.081219,-0.111929,0.992577,1.002165,0
40.789534,0.036059,1.640552,-0.012835,0.018695,1.003787,1.004043,0
40.817889,0.028355,1.640074,-0.008392,-0.050657,1.003056,1.00437,0
40.845891,0.028002,1.642843,-0.002222,0.080122,1.037174,1.040266,0
40.881508,0.035617,1.66091,-0.093798,0.222641,1.005981,1.034584,0
40.914973,0.033465,1.658102,0.104737,0.078179,0.977955,0.98665,0
40.948184,0.03321,1.660944,0.024002,0.110713,1.065686,1.071691,0
40.983617,0.035433,1.661275,0.03273,0.048801,0.937989,0.939828,0
41.010476,0.02686,1.664295,0.04461,0.038118,1.056182,1.057811,0
41.044411,0.033935,1.665852,-0.007899,0.076237,1.003787,1.006709,0
41.071148,0.026737,1.66608,0.027154,0.045159,0.994039,0.995435,0
41.104913,0.033766,1.667007,0.010183,0.043703,0.997939,0.998947,0
41.140887,0.035974,1.667976,0.015274,0.044674,0.996964,0.998081,0
41.176585,0.035698,1.669078,0.015274,0.046859,0.99867,0.999885,0
41.208845,0.032259,1.670316,0.016244,0.044674,0.997207,0.99834,0
41.236703,0.027858,1.671451,0.016729,0.049772,0.936527,0.937998,0
41.268777,0.032073,1.672679,0.018183,0.051229,0.993065,0.994551,0
41.297623,0.028847,1.673782,0.020365,0.050744,0.997207,0.998705,0
41.330621,0.032998,1.674854,0.018911,0.04953,0.996233,0.997642,0
41.358198,0.027576,1.675804,0.019153,0.050258,0.996233,0.997684,0
41.390132,0.031934,1.676985,0.016486,0.048559,0.995989,0.997308,0
41.419774,0.029643,1.678138,0.016971,0.048559,0.996476,0.997803,0
41.472743,0.052969,1.679276,0.017941,0.049287,0.994771,0.996152,0
41.505259,0.032516,1.68032,0.017941,0.048073,0.995258,0.99658,0
41.533205,0.027946,1.681404,0.018426,0.04783,0.998182,0.999497,0
41.568168,0.034964,1.682488,0.017699,0.049287,0.996476,0.997852,0
41.594433,0.026265,1.683293,0.018911,0.048073,0.995258,0.996598,0
41.625841,0.031408,1.683852,0.020608,0.048559,0.996964,0.998358,0
41.658068,0.032227,1.684218,0.019153,0.048559,0.995014,0.996383,0
41.685854,0.027787,1.684527,0.017214,0.048559,0.995502,0.996834,0
41.714085,0.028231,1.685044,0.02085,0.046859,0.995258,0.996579,0
41.742805,0.02872,1.68565,0.017214,0.04783,0.997451,0.998746,0
41.77502,0.032215,1.686102,0.018426,0.048559,0.998426,0.999776,0
41.800616,0.025596,1.686661,0.016244,0.050015,0.996476,0.997863,0
41.827805,0.027189,1.68716,0.018183,0.048801,0.997207,0.998566,0
41.864873,0.037068,1.687495,0.019396,0.050986,0.997695,0.999185,0
41.888067,0.023194,1.687621,0.018426,0.049287,0.997451,0.998838,0
41.914905,0.026839,1.687603,0.019396,0.048559,0.996964,0.998334,0
41.94184,0.026935,1.687724,0.018183,0.048559,0.995989,0.997338,0
41.975658,0.033818,1.687867,0.017941,0.048316,0.935796,0.937214,0
42.00242,0.026762,1.687751,0.018183,0.048316,1.059106,1.060364,0
42.036246,0.033826,1.687642,0.018183,0.049044,0.995502,0.996875,0
42.064228,0.027982,1.687536,0.018911,0.049287,0.997939,0.999334,0
42.094572,0.030344,1.687408,0.018911,0.048316,0.99672,0.99807,0
42.1214,0.026828,1.687254,0.020123,0.049287,0.996233,0.997654,0
42.14809,0.026691,1.687143,0.018183,0.049287,0.99867,1.00005,0
42.181903,0.033813,1.687092,0.017941,0.04783,0.99672,0.998028,0
42.208679,0.026776,1.687065,0.018183,0.049287,0.997695,0.999077,0
42.242466,0.033787,1.687032,0.019396,0.049772,0.99867,1.000097,0
42.269198,0.026732,1.686964,0.018426,0.048801,0.998426,0.999788,0
42.296012,0.026814,1.686738,0.017699,0.048316,0.998426,0.999751,0
42.330003,0.033991,1.686591,0.018668,0.048801,0.998182,0.999549,0
42.356991,0.026987,1.686439,0.019153,0.050015,0.997451,0.998888,0
42.390785,0.033795,1.68622,0.018668,0.048801,0.997207,0.998575,0
42.417679,0.026893,1.685819,0.018911,0.050258,0.996964,0.998409,0
42.451514,0.033835,1.685481,0.018426,0.048801,0.998426,0.999788,0
42.47843,0.026917,1.685148,0.018426,0.048559,0.99867,1.000019,0
42.51226,0.033829,1.685049,0.018183,0.049772,0.997451,0.998858,0
42.539169,0.026909,1.685058,0.017699,0.048316,0.997939,0.999264,0
42.566015,0.026846,1.685081,0.017456,0.048801,0.99867,1.000014,0
42.592855,0.02684,1.685154,0.019153,0.04953,0.998913,1.000324,0
42.619948,0.027093,1.685204,0.018668,0.049287,0.998182,0.999573,0
42.655241,0.035292,1.685102,0.017699,0.050258,0.998913,1.000333,0
42.689087,0.033847,1.684979,0.018668,0.049287,0.99867,1.000059,0
42.715888,0.026801,1.684929,0.018911,0.049287,0.99867,1.000064,0
42.749971,0.034082,1.684787,0.018668,0.048801,0.998913,1.000279,0
42.777449,0.027478,1.684594,0.017456,0.048801,0.997207,0.998553,0
42.808272,0.030823,1.684468,0.016971,0.048801,0.998426,0.999762,0
42.835547,0.027275,1.684373,0.018183,0.048073,0.997207,0.998531,0
42.869523,0.033976,1.68426,0.018183,0.048801,0.999157,1.000513,0
42.896378,0.026855,1.684076,0.018426,0.048559,0.999157,1.000506,0
42.930407,0.034029,1.683957,0.018183,0.049287,0.99867,1.00005,0
42.957224,0.026817,1.68382,0.018426,0.048559,0.99867,1.000019,0
42.9911,0.033876,1.683745,0.018668,0.048801,0.997695,0.999062,0
43.017912,0.026813,1.683613,0.018426,0.049287,0.998426,0.999812,0
43.051904,0.033992,1.683463,0.018183,0.048801,0.99867,1.000027,0
43.078824,0.026919,1.683329,0.019153,0.048801,0.99867,1.000045,0
43.112727,0.033904,1.683429,0.018911,0.049044,0.998426,0.999809,0
43.139618,0.026891,1.683543,0.016971,0.049287,0.99867,1.000029,0
43.178247,0.038629,1.683629,0.018426,0.048559,0.998426,0.999776,0
43.209395,0.031148,1.683783,0.018911,0.04953,0.997695,0.999103,0
43.243179,0.033784,1.684047,0.016729,0.048559,0.999157,1.000476,0
43.27005,0.026871,1.684301,0.017941,0.049772,0.998426,0.999827,0
43.296779,0.026729,1.684492,0.019153,0.04953,0.997939,0.999351,0
43.33085,0.03407,1.684648,0.019638,0.048801,0.997451,0.998837,0
43.357674,0.026824,1.684802,0.017941,0.04953,0.997939,0.999328,0
43.391523,0.033849,1.684971,0.019396,0.048801,0.998426,0.999806,0
43.418356,0.026833,1.684835,0.018668,0.048073,0.997451,0.998783,0
43.45216,0.033804,1.684654,0.020123,0.050015,0.997939,0.999394,0
43.478949,0.026788,1.684725,0.017941,0.048559,0.998426,0.999767,0
43.505775,0.026826,1.68507,0.019153,0.048073,0.998426,0.999766,0
43.532617,0.026843,1.685664,0.018183,0.04783,0.997939,0.99925,0
43.55941,0.026793,1.686155,0.018183,0.049772,0.998182,0.999588,0
43.59324,0.03383,1.686505,0.018426,0.048801,0.998182,0.999544,0
43.620371,0.027131,1.686647,0.017699,0.049287,0.935796,0.93726,0
43.655603,0.035233,1.686838,0.016971,0.049044,1.060325,1.061594,0
43.689531,0.033928,1.687135,0.019153,0.049772,0.998426,0.999849,0
43.717041,0.02751,1.687492,0.016971,0.049287,0.998913,1.000273,0
43.747685,0.030644,1.687809,0.017941,0.04953,0.99672,0.998111,0
43.774503,0.026818,1.688076,0.019396,0.048801,0.998426,0.999806,0
43.801679,0.027176,1.688313,0.018183,0.049044,0.998913,1.000282,0
43.828926,0.027247,1.688693,0.018668,0.048801,1.060325,1.061612,0
43.855669,0.026742,1.689002,0.018183,0.048316,0.936283,0.937705,0
43.88951,0.033841,1.689087,0.018668,0.048559,0.99867,1.000024,0
43.916167,0.026657,1.689121,0.018668,0.050501,0.998913,1.000363,0
43.950007,0.03384,1.68919,0.018668,0.04953,0.998426,0.999828,0
43.976745,0.026738,1.689016,0.019153,0.049044,0.998426,0.999813,0
44.003427,0.026683,1.688702,0.017699,0.050015,0.998182,0.999591,0
44.037249,0.033822,1.68854,0.017699,0.048559,0.997207,0.998546,0
44.063907,0.026659,1.688412,0.019881,0.049044,0.99867,1.000071,0
44.090558,0.026651,1.688281,0.018911,0.050501,0.998182,0.999638,0
44.124209,0.033651,1.688476,0.017214,0.048559,0.998913,1.000241,0
44.150892,0.026683,1.688802,0.018183,0.049044,0.998426,0.999795,0
44.181956,0.031063,1.689058,0.017456,0.049044,0.998426,0.999782,0
44.208781,0.026825,1.68922,0.017941,0.050744,0.998426,0.999876,0
44.235601,0.02682,1.689086,0.018911,0.049044,0.998426,0.999809,0
44.262314,0.026713,1.688838,0.017699,0.049772,0.998913,1.000309,0
44.296149,0.033834,1.688601,0.018668,0.04953,0.998182,0.999585,0
44.322963,0.026814,1.688481,0.018183,0.049772,0.998182,0.999588,0
44.356793,0.033829,1.688373,0.018183,0.049772,0.997695,0.999101,0
44.383758,0.026966,1.688259,0.018183,0.049772,0.998913,1.000318,0
44.410648,0.02689,1.688161,0.018911,0.050015,0.998913,1.000343,0
44.437515,0.026867,1.688138,0.018668,0.049044,0.998913,1.000291,0
44.464257,0.026742,1.688192,0.019396,0.048073,0.998913,1.000258,0
44.491005,0.026748,1.68833,0.018911,0.049772,0.936283,0.937796,0
44.524918,0.033912,1.688622,0.017214,0.048801,0.999157,1.000496,0
44.551858,0.02694,1.688838,0.017941,0.048559,0.998913,1.000254,0
44.585693,0.033835,1.688858,0.018668,0.049772,0.998426,0.99984,0
44.612541,0.026848,1.688739,0.017699,0.049287,0.998913,1.000285,0
44.647586,0.035045,1.688518,0.018668,0.050744,0.936771,0.93833,0
44.681694,0.034107,1.688254,0.018668,0.049044,0.998913,1.000291,0
44.708455,0.026762,1.687889,0.019153,0.048801,0.997939,0.999315,0
44.742265,0.033809,1.687472,0.018426,0.04953,0.997207,0.998607,0
44.768966,0.026701,1.687009,0.017699,0.047587,0.994771,0.996065,0
44.802947,0.033982,1.68657,0.018426,0.048559,0.999157,1.000506,0
44.832278,0.02933,1.686625,0.017941,0.050015,0.996233,0.997649,0
44.855657,0.023379,1.687079,0.018426,0.049044,0.998182,0.999556,0
44.88256,0.026902,1.687412,0.017456,0.04953,0.998913,1.000293,0
44.916436,0.033877,1.687619,0.018911,0.049287,0.998426,0.999821,0
44.943391,0.026955,1.687712,0.017214,0.049044,0.998426,0.999778,0
44.97722,0.033828,1.687907,0.019638,0.048559,1.060325,1.061618,0
45.009528,0.032309,1.688074,0.018668,0.049044,0.997939,0.999317,0
45.039644,0.030115,1.688148,0.020123,0.048801,0.998426,0.99982,0
45.069953,0.030309,1.688198,0.019153,0.049044,0.996476,0.997866,0
45.09706,0.027107,1.688339,0.017699,0.048316,0.999157,1.000481,0
45.123948,0.026888,1.688336,0.017699,0.049287,0.995502,0.996878,0
45.15801,0.034062,1.688206,0.018911,0.048073,0.998913,1.000248,0
45.185009,0.026999,1.688221,0.016971,0.049772,0.997695,0.99908,0
45.212103,0.027094,1.688314,0.018911,0.048801,0.99867,1.00004,0
45.23889,0.026787,1.688149,0.018668,0.048316,0.936527,0.937958,0
45.272753,0.033863,1.688513,0.018668,0.050015,0.997207,0.998635,0
45.29971,0.026957,1.688681,0.019153,0.04953,0.997207,0.99862,0
45.332158,0.032448,1.68896,0.019881,0.048801,0.998913,1.000302,0
45.360563,0.028405,1.689258,0.018668,0.049044,0.936283,0.937753,0
45.393849,0.033286,1.689396,0.018668,0.049044,0.999157,1.000534,0
45.431354,0.037505,1.689366,0.017214,0.04953,0.998913,1.000289,0
45.465109,0.033756,1.689284,0.018183,0.049772,0.998426,0.999831,0
45.496041,0.030931,1.689192,0.018668,0.048559,0.999401,1.000754,0
45.522842,0.026802,1.68907,0.019153,0.048801,0.997451,0.998828,0
45.549531,0.026689,1.688812,0.018911,0.048801,0.99867,1.00004,0
45.576165,0.026634,1.68846,0.019881,0.050015,0.99867,1.000119,0
45.609781,0.033616,1.688205,0.018911,0.04953,0.999157,1.000563,0
45.63641,0.026628,1.687739,0.018183,0.048559,0.998182,0.999528,0
45.663282,0.026872,1.687061,0.020608,0.049772,0.998426,0.999878,0
45.698243,0.034961,1.686295,0.019153,0.04953,0.997695,0.999107,0
45.727008,0.028766,1.685592,0.018668,0.049044,0.99867,1.000047,0
45.758325,0.031317,1.685137,0.017456,0.049772,0.999157,1.000548,0
45.786432,0.028107,1.684962,0.019638,0.050015,0.998913,1.000357,0
45.821364,0.034931,1.684917,0.018911,0.048801,0.93604,0.937502,0
45.861134,0.03977,1.68498,0.018668,0.049044,0.998182,0.999561,0
45.891243,0.030109,1.684874,0.018668,0.049287,0.93604,0.937522,0
45.929068,0.037825,1.684774,0.018668,0.049287,0.997207,0.998599,0
45.959418,0.03035,1.684749,0.019153,0.048559,0.99867,1.000033,0
45.993389,0.033971,1.684678,0.017941,0.049772,0.998182,0.999583,0
46.023005,0.029617,1.684567,0.018668,0.050015,0.999401,1.000826,0
