timestamp,dt,heading_rad,accel_x,accel_y,accel_z,accel_norm,gyro_x_rads,gyro_y_rads,gyro_z_rads,step_event,gyro_x_kf,gyro_y_kf,gyro_z_kf,yaw_change_raw,yaw_change_kf
0.00098,0.00098,1.962522,0.010668,0.090562,0.999157,1.00331,-0.022556,0.004896,-0.018864,0,-0.022499749436974525,0.004883790388703346,-0.018816957250237465,-1.848672e-05,-1.8440618105232714e-05
0.150684,0.149704,1.96197,0.029094,0.089833,0.999157,1.003609,-0.008925,-0.0138,-0.001308,0,-0.015707815065979958,-0.004464380443096161,-0.010056598111987114,-0.000214299552,-0.0015239535818621518
0.192443,0.041759,1.960956,0.02279,0.091047,0.999157,1.003556,-0.005867,-0.035807,-0.006647,0,-0.012409339658915997,-0.014969897456467152,-0.008913758210837841,-0.000491871625,-0.0018961832109885292
0.238479,0.046036,1.960334,0.032003,0.098331,0.940913,0.946579,0.021267,-0.02815,-0.026772,0,-0.003882971592247486,-0.0183069109916687,-0.013435209169983864,-0.001724347417,-0.0025146865003379064
0.281529,0.04305,1.95909,0.015032,0.083035,0.989897,0.993487,0.025684,0.01937,-0.034627,0,0.0021625864319503307,-0.010603114031255245,-0.017768293619155884,-0.003215039767,-0.003279611540642567
0.323459,0.04193,1.957805,0.02279,0.08522,0.991602,0.995519,0.013046,0.037297,-0.025348,0,0.0040388465858995914,-0.0023453114554286003,-0.019075006246566772,-0.0042778814069999995,-0.004079426552561112
0.368593,0.045135,1.956951,0.025942,0.094204,1.002813,1.007562,-0.00708,-0.002404,-0.015008,0,0.002372919348999858,-0.002354104770347476,-0.018465649336576462,-0.0049552674869999995,-0.00491287363536749
0.410121,0.041528,1.956431,0.027154,0.095417,0.984292,0.989278,-0.017042,-0.016057,0.019108,0,-0.0002131229266524315,-0.004179312847554684,-0.013460887596011162,-0.004161750463,-0.005471877375454642
0.455144,0.045023,1.955996,0.032488,0.08692,0.97625,0.98065,-0.040668,0.052003,0.026167,0,-0.005088777747005224,0.002591825556010008,-0.00868490245193243,-0.002983633622,-0.005862897738547996
0.496655,0.041511,1.955579,0.020365,0.085463,0.997451,1.001313,-0.044846,0.050425,0.027701,0,-0.009486088529229164,0.007882369682192802,-0.004660473205149174,-0.001833737411,-0.006056358641766943
0.534643,0.037988,1.955758,0.015032,0.084006,1.002325,1.005952,-0.010787,-0.026484,0.035832,0,-0.009619679301977158,0.004353290889412165,-0.0005023055709898472,-0.00047255139500000003,-0.006075440225797705
0.584981,0.050338,1.955707,0.024002,0.088619,0.983804,0.988079,0.00435,0.022982,0.028164,0,-0.008274788968265057,0.006146715953946114,0.0022574595641344786,0.000945168037,-0.005961804226258303
0.630411,0.045429,1.955818,0.026911,0.092747,0.999157,1.003813,-0.035316,0.002295,-0.04553,0,-0.010735537856817245,0.005796209909021854,-0.002091196132823825,-0.001123214333,-0.006056805175376357
0.681369,0.050958,1.953799,0.016244,0.080364,1.001594,1.004944,0.006192,-0.067127,0.025231,0,-0.009269229136407375,-0.0005205930210649967,0.00027552549727261066,0.00016250696500000003,-0.006042764947086339
0.722951,0.041582,1.95366,0.024002,0.084977,0.989897,0.993827,0.006045,-0.045072,0.023029,0,-0.007998817600309849,-0.004216411150991917,0.002163068624213338,0.001120098843,-0.0059528202275543
0.7688,0.045849,1.953838,0.035882,0.087405,0.991846,0.996336,0.001607,-0.028575,0.025661,0,-0.007231672760099173,-0.006161749362945557,0.004039672203361988,0.002296630032,-0.0057676052967023566
0.810527,0.041726,1.953113,0.021578,0.088862,0.999401,1.003576,-0.035351,-0.07103,0.003365,0,-0.009403488598763943,-0.011171894147992134,0.00398756330832839,0.002437038022,-0.005601220230099046
0.855648,0.045121,1.951259,0.028609,0.084006,0.997207,1.001148,-0.014399,-0.041348,0.017571,0,-0.009778119623661041,-0.013434907421469688,0.0050062332302331924,0.003229859113,-0.005375333980517694
0.897152,0.041505,1.950003,0.030548,0.085706,1.000132,1.004262,-0.092189,-0.016897,0.019578,0,-0.015799973160028458,-0.01368788629770279,0.006071008276194334,0.004042444003,-0.005123356782014248
0.935157,0.038005,1.949873,0.033942,0.078908,0.999401,1.003085,0.017167,-0.026408,0.018768,0,-0.013445591554045677,-0.014596310444176197,0.0069777811877429485,0.004755721843,-0.004858166207974078
0.983687,0.04853,1.949208,0.037822,0.079636,0.985266,0.989203,0.006161,0.002896,0.017157,0,-0.012073378078639507,-0.013372069224715233,0.007690197788178921,0.0055883510529999994,-0.004484960909313755
1.021696,0.038009,1.947644,0.033942,0.082549,1.057401,1.061161,-0.085163,0.012365,0.00219,0,-0.01709827221930027,-0.011602652259171009,0.007312060333788395,0.005671590763,-0.004207036808086792
1.063226,0.04153,1.945374,0.032245,0.067739,0.993552,0.996381,0.009184,0.002419,-0.001491,0,-0.015319613739848137,-0.01065373420715332,0.006716311443597078,0.0056096695329999995,-0.003928108393834205
1.108556,0.04533,1.942511,0.029094,0.070895,0.93604,0.939171,0.021041,0.001177,-0.004169,0,-0.012892897240817547,-0.009864147752523422,0.0059898230247199535,0.005420688763,-0.00365658971612365
1.150257,0.041701,1.940049,0.032245,0.088376,0.997939,1.002363,-0.03257,0.010504,0.005737,0,-0.01419011503458023,-0.008521373383700848,0.005973155610263348,0.0056599274,-0.003407503154020058
1.195349,0.045091,1.938367,0.03273,0.08085,0.990384,0.994218,0.023365,0.041072,0.018597,0,-0.011741012334823608,-0.005287212785333395,0.006796401459723711,0.006498484727,-0.003101046615799656
1.237035,0.041687,1.937217,0.025214,0.084492,0.999157,1.00304,-0.019396,0.025801,0.042726,0,-0.012235458008944988,-0.003279185388237238,0.00911714043468237,0.008279603489,-0.002720980382499052
1.280997,0.043962,1.937132,0.032003,0.082549,0.985997,0.989964,-0.001221,0.061391,0.049135,0,-0.011530021205544472,0.0008627120405435562,0.01168014295399189,0.010439676359,-0.0022074979379556603
1.326651,0.045654,1.93658,0.029336,0.079393,1.043023,1.046451,0.012843,0.00797,0.004967,0,-0.00998065248131752,0.0013145151315256953,0.01125339511781931,0.010666439777,-0.0016937354372467375
1.375256,0.048605,1.933132,0.009213,0.067011,0.998426,1.000715,-0.000641,-0.01917,-0.03662,0,-0.00939085241407156,2.0916457287967205e-05,0.008230186998844147,0.008886524677000001,-0.0012937071981679177
1.413377,0.038121,1.929118,0.031033,0.075994,0.989897,0.993294,-0.025667,0.01863,-0.004825,0,-0.010412706062197685,0.001189237111248076,0.007410552818328142,0.008702590852000001,-0.0010112095141804305
1.461829,0.048452,1.926564,0.037579,0.082064,1.002569,1.006624,-0.021839,-0.003613,0.018736,0,-0.011126382276415825,0.0008892937330529094,0.00811793003231287,0.009610387524000001,-0.0006178795682548074
1.499876,0.038047,1.924754,0.03564,0.090319,0.936771,0.941789,-0.012162,-0.041991,0.00701,0,-0.01119077205657959,-0.0017767847748473287,0.008049044758081436,0.009877096994,-0.000311637562344083
1.54144,0.041563,1.922698,0.022547,0.077694,0.985754,0.989068,0.025389,-0.013269,0.00912,0,-0.008925572037696838,-0.0024884394370019436,0.00811536330729723,0.010256151554,2.5661282797111802e-05
1.58648,0.04504,1.920772,0.022547,0.077208,0.985754,0.98903,-0.009057,0.024986,-0.009894,0,-0.00893368199467659,-0.000793132116086781,0.007004097569733858,0.009810525794,0.00034112583733792476
1.628274,0.041795,1.918588,0.034912,0.07648,0.993552,0.997103,-0.026252,0.02908,0.008724,0,-0.009998951107263565,0.0010443979408591986,0.007109890691936016,0.010175145374,0.0006382837188073905
1.673484,0.045209,1.916373,0.026911,0.075508,1.000132,1.003339,0.023386,-0.016584,-0.017742,0,-0.007951103150844574,-3.693578764796257e-05,0.005585464648902416,0.009373047296,0.0008907969901196199
1.71531,0.041826,1.912682,0.032488,0.075508,0.991602,0.995004,0.012372,0.011444,-0.024984,0,-0.006707531865686178,0.00066558294929564,0.0037149181589484215,0.008328066512,0.0010461771570357966
1.760764,0.045455,1.908923,0.0337,0.083035,0.993552,0.997585,0.015804,-0.00043,-0.014075,0,-0.0053330352529883385,0.0005986894830130041,0.0026287115179002285,0.007688287387,0.0011656652390819515
1.803061,0.042296,1.906832,0.031033,0.081821,0.988678,0.992543,0.065236,0.010623,-0.020106,0,-0.0010325214825570583,0.0012095761485397816,0.0012432463699951768,0.006837884011,0.0012182495875472674
1.848224,0.045164,1.90492,0.026184,0.082792,1.046191,1.049788,-0.050133,0.029755,-0.003361,0,-0.004019667860120535,0.0029462059028446674,0.0009631359134800732,0.006686087807,0.0012617486579436813
1.891109,0.042885,1.902571,0.045095,0.09299,1.000132,1.005457,0.011582,-0.071497,-0.031427,0,-0.0030719214119017124,-0.0015759565867483616,-0.0010044507216662169,0.005338340912,0.0012186727887450255
1.932761,0.041652,1.898201,0.039519,0.08522,0.968939,0.973482,0.066793,0.043808,-0.01475,0,0.001166519708931446,0.001177316764369607,-0.0018383413553237915,0.004723973912,0.001142102194613079
1.97792,0.045158,1.894441,0.02376,0.114598,1.011586,1.018333,-0.018749,-0.078914,-0.0217,0,-4.02695732191205e-05,-0.003675849875435233,-0.0030418667010962963,0.003744045312,0.0010047375781249725
2.019565,0.041645,1.889228,0.019638,0.093961,0.97893,0.983625,0.004368,-0.009776,-0.035789,0,0.00022657588124275208,-0.0040451097302138805,-0.0050241462886333466,0.002253612407,0.0007955070059348368
2.064666,0.045101,1.880857,0.045822,0.105372,0.976981,0.983714,-0.012705,0.065815,-0.0818,0,-0.0005554970121011138,0.0001798737794160843,-0.009667377918958664,-0.001435649393,0.0003594985944118821
2.106718,0.042052,1.869037,-0.016538,0.168012,0.947737,0.962656,0.051472,-0.068323,-0.070215,0,0.0025884765200316906,-0.003959691617637873,-0.013326214626431465,-0.004388330573,-0.00020089538305881382
2.152182,0.045465,1.858635,0.069582,0.125767,0.967233,0.977854,-0.053516,0.01823,-0.010585,0,-0.0007994531188160181,-0.0026197428815066814,-0.01316068321466446,-0.004869577598,-0.0007992458454135334
2.193861,0.041679,1.849157,0.056005,0.10173,0.989653,0.996443,-0.04343,0.019663,-0.074992,0,-0.0033721274230629206,-0.0012750206515192986,-0.0168920885771513,-0.007995169166,-0.0015032912052206225
2.23958,0.045719,1.834199,0.042913,0.109985,0.999401,1.00635,-0.070716,0.017358,-0.131594,0,-0.00743394810706377,-0.00015117705333977938,-0.023810291662812233,-0.014011515252,-0.002591873929752735
2.294997,0.055417,1.822367,0.010668,0.093475,0.977712,0.982228,-0.540622,-0.095128,1.400438,0,-0.03957720845937729,-0.005876857787370682,0.06205056607723236,0.063596557394,0.0008467822905492508
2.335307,0.04031,1.854855,-0.265595,0.368802,1.153174,1.239502,-0.060482,0.012079,0.328064,1,-0.04083690792322159,-0.00479485746473074,0.07808024436235428,0.076820817234,0.003994196940795752
2.385218,0.049912,1.859377,-0.070101,0.042003,1.034737,1.037959,-0.594907,0.25941,-0.218202,0,-0.07421177625656128,0.011119739152491093,0.06023344025015831,0.06592991901,0.007000568410561654
2.428618,0.043399,1.858984,0.032245,0.053172,0.942376,0.944425,-0.008476,-0.210651,-0.064875,0,-0.07025346904993057,-0.0022342829033732414,0.0526999793946743,0.063114408885,0.009287694816311124
2.471756,0.043138,1.863778,0.127527,0.130622,0.952855,0.970184,0.019294,0.016012,0.139819,0,-0.0648629367351532,-0.001135903294198215,0.057944320142269135,0.069145920907,0.01178729689860833
2.517454,0.045699,1.873239,0.06643,0.160486,0.988434,1.003579,-0.153887,0.201104,0.119049,0,-0.07022054493427277,0.011035207659006119,0.06162169575691223,0.074586341158,0.014603346773003461
2.561807,0.044353,1.884127,0.025942,0.115084,0.968939,0.976094,0.008128,0.032749,0.299802,0,-0.06550651043653488,0.01234167255461216,0.07595241069793701,0.087883459264,0.01797206404468906
2.616683,0.054876,1.905808,0.030063,0.122853,0.961384,0.969668,-0.091443,0.241054,0.187403,0,-0.0670667216181755,0.026099886745214462,0.08265673369169235,0.098167386292,0.02250793496275437
2.681638,0.064955,1.916904,-0.011354,0.048559,0.982098,0.983364,0.102416,0.059601,0.106965,0,-0.05687332898378372,0.02811478264629841,0.08411873131990433,0.105115297867,0.027971867155638756
2.727663,0.046026,1.926121,0.040488,0.050501,0.999644,1.001738,0.123505,0.008181,0.087633,0,-0.04602637514472008,0.026916075497865677,0.08433005958795547,0.10914869432499999,0.031853242478234
2.778637,0.050974,1.938083,0.089463,0.053657,0.994527,0.999983,-0.038345,0.199858,0.194289,0,-0.045564524829387665,0.037314366549253464,0.09094144403934479,0.11905238181099999,0.03648889164669556
2.831051,0.052414,1.954063,0.08025,0.002428,1.000619,1.003835,-0.030098,0.189473,0.18818,0,-0.044634703546762466,0.04646189510822296,0.09678726643323898,0.128915648331,0.04156189942952735
2.885523,0.054472,1.969673,0.092129,-0.007719,0.962359,0.96679,-0.117147,0.237426,0.231246,0,-0.048993539065122604,0.057941071689128876,0.10486980527639389,0.141512080443,0.04727436746254308
2.934249,0.048726,1.990154,0.07637,0.011654,0.995745,0.998738,0.010047,0.075178,0.176609,0,-0.04544486105442047,0.05897711217403412,0.10918174684047699,0.150117530577,0.05259435725909216
3.002051,0.067802,2.001892,0.047277,0.056328,0.972838,0.975613,-0.014377,0.11266,0.108564,0,-0.043577663600444794,0.062203485518693924,0.10914462059736252,0.157478386905,0.05999458082483453
3.065938,0.063887,2.012053,0.075886,0.066282,0.96309,0.968346,0.036559,0.022295,0.05589,0,-0.038761772215366364,0.05980514734983444,0.10594423115253448,0.16104903133499998,0.0667630399204765
3.112593,0.046655,2.020359,0.11201,0.069196,0.959435,0.968426,0.000157,0.031258,0.215033,0,-0.03642306849360466,0.058089692145586014,0.11249958723783493,0.17108139595,0.07201170816305769
3.165088,0.052495,2.036119,0.117586,0.04346,0.97235,0.980398,0.077432,0.066077,0.306968,0,-0.0295817069709301,0.058569636195898056,0.12418486922979355,0.18719568110999998,0.0785307928732757
3.215769,0.050681,2.049831,0.060854,0.041275,1.05009,1.052661,0.06679,-0.11037,0.188681,0,-0.023791195824742317,0.04841886833310127,0.12806013226509094,0.19675822287099998,0.08502100843660278
3.263461,0.047691,2.056483,0.068612,0.046859,1.077627,1.080826,0.031428,-0.10816,0.045148,0,-0.02047349512577057,0.039011236280202866,0.12307857722043991,0.19891137613899998,0.09089074886282278
3.309189,0.045728,2.056414,0.075401,0.018938,1.076896,1.079699,0.172201,-0.086112,0.081116,0,-0.0088976314291358,0.03149384632706642,0.12055747210979462,0.202620648587,0.09640360094745946
3.361427,0.052238,2.059821,0.039276,0.059484,1.187778,1.189915,0.036894,0.244672,0.075312,1,-0.006146574392914772,0.0443011038005352,0.11783922463655472,0.206554796843,0.10255928636402381
3.425385,0.063957,2.067874,-0.04838,0.060941,1.151955,1.15458,0.068659,0.000631,0.206343,0,-0.001652571838349104,0.04167758673429489,0.12315616011619568,0.219751876094,0.11043598489657534
3.479115,0.05373,2.075709,-0.094291,0.068468,1.058863,1.065255,0.067438,-0.060455,0.309885,0,0.0024979799054563046,0.035542067140340805,0.1343737244606018,0.23640199714399998,0.11765588511184348
3.518802,0.039687,2.084535,-0.14119,0.102701,0.99014,1.005415,-0.148198,-0.180185,0.173051,0,-0.006554713007062674,0.02258278988301754,0.1366971731185913,0.243269872181,0.123080985821401
3.562958,0.044156,2.092843,-0.041715,0.086434,0.873897,0.879151,-0.163469,-0.193318,0.465044,0,-0.01598074659705162,0.009613364934921265,0.15642136335372925,0.263804355045,0.12998792754164828
3.606767,0.043809,2.112985,-0.045665,0.083521,0.876578,0.881731,-0.008004,-0.161553,0.593326,0,-0.015501582995057106,-0.0006686076521873474,0.18266624212265015,0.289797373779,0.13799035294279946
3.649924,0.043157,2.141482,-0.062943,0.086677,0.936527,0.942633,0.085764,-0.08825,0.637003,0,-0.009418659843504429,-0.005929534789174795,0.2099578082561493,0.31728851225,0.1470515020737101
3.702446,0.052522,2.164073,-0.067633,0.102944,0.975031,0.98278,0.074768,-0.09222,0.549955,0,-0.004361728206276894,-0.011112838052213192,0.23038078844547272,0.34617324876,0.1591515618444432
3.751292,0.048847,2.179388,0.007273,0.131108,0.923855,0.93314,-0.166218,0.150904,0.502307,0,-0.01408399362117052,-0.001380927860736847,0.24671465158462524,0.370709438789,0.17120283243039738
3.796998,0.045706,2.198514,0.038064,0.098574,0.813216,0.820053,-0.262124,0.13716,0.294308,0,-0.02898290380835533,0.006940749473869801,0.24957342445850372,0.38416108023699996,0.18260983536869776
3.850619,0.053621,2.203505,0.068855,0.083763,0.856107,0.862946,-0.102078,-0.090999,0.199623,0,-0.033373426645994186,0.0010579079389572144,0.24657310545444489,0.39486506511999997,0.19583133185627055
3.904519,0.0539,2.206226,0.093342,0.06434,0.89193,0.899106,-0.007644,-0.064729,0.005452,0,-0.031827978789806366,-0.0028936066664755344,0.2320900857448578,0.39515892791999996,0.20834098747791838
3.952848,0.04833,2.199686,0.094796,0.086191,0.979905,0.988245,-0.084232,-0.025536,-0.074755,0,-0.03497561812400818,-0.004253619350492954,0.21365948021411896,0.39154601876999995,0.21866715015666674
3.99525,0.042402,2.187349,0.071037,0.048559,1.012317,1.015967,0.081313,-0.300731,-0.257404,0,-0.027990806847810745,-0.022061366587877274,0.18536531925201416,0.38063157436199996,0.22652701042359064
4.040302,0.045051,2.165657,0.105464,0.054871,1.066174,1.072781,0.14637,-0.327303,-0.461433,0,-0.017517991364002228,-0.04039541259407997,0.14651599526405334,0.35984355627899994,0.2331277025262315
4.091244,0.050942,2.137476,0.075158,0.074537,1.149031,1.153896,-0.002376,-0.259803,-0.571389,0,-0.016608506441116333,-0.0535738468170166,0.10339595377445221,0.33073585784099996,0.23839489920340964
4.144204,0.05296,2.108184,0.059884,0.032534,1.122955,1.125021,-0.110805,-0.028285,-0.546343,0,-0.022266268730163574,-0.052054911851882935,0.06437042355537415,0.30180153256099995,0.24180395683490225
4.188141,0.043937,2.079348,0.018668,-0.022675,1.094686,1.09508,0.197682,-0.123885,-0.605597,0,-0.00905548594892025,-0.05636925250291824,0.02413007616996765,0.27519341717199997,0.24286415999158212
4.234026,0.045885,2.052403,-0.020981,0.016267,1.1444,1.144708,0.362311,-0.196884,-0.618731,0,0.013249866664409637,-0.06480897963047028,-0.014482032507658005,0.24680294523699997,0.24219965192996823
4.275954,0.041928,2.022615,-0.021228,0.034234,1.086888,1.087634,0.065125,-0.198716,-0.730519,0,0.01636562868952751,-0.07285179942846298,-0.05748915299773216,0.21617374460499997,0.2397892467230793
4.325018,0.049064,1.991112,0.029578,0.020152,0.921174,0.921869,0.018699,-0.14496,-0.639805,0,0.016505775973200798,-0.07718279957771301,-0.09246450662612915,0.18478235208499996,0.2352525681699749
4.370262,0.045244,1.967887,0.059884,-0.016403,0.866342,0.868564,0.186076,-0.221318,-0.510913,0,0.026690561324357986,-0.0858398973941803,-0.11759750545024872,0.16166660431299995,0.22993198663338385
4.41268,0.042418,1.949191,0.041943,0.02695,0.947981,0.949291,-0.056438,-0.128467,-0.412564,0,0.021697675809264183,-0.08840017765760422,-0.13531383872032166,0.14416646456099996,0.22419224422254524
4.456765,0.044086,1.935963,0.081462,0.037876,0.92751,0.931851,-0.326135,0.152837,-0.222585,0,0.0008061230182647705,-0.07391097396612167,-0.14055553078651428,0.13435358225099997,0.217995713092291
4.498571,0.041806,1.930758,0.064248,0.013354,0.889981,0.892397,-0.253136,0.089612,-0.108658,0,-0.014446142129600048,-0.06408946216106415,-0.13863970339298248,0.12981102590299998,0.21219974165224395
4.536701,0.03813,1.921132,0.011153,0.005341,0.908258,0.908342,-0.070182,-0.059439,-0.249157,0,-0.017793741077184677,-0.06381014734506607,-0.14527757465839386,0.12031066949299998,0.20666030773051938
4.585424,0.048723,1.909643,0.073219,0.020637,0.932384,0.935482,-0.103474,-0.044473,-0.21617,0,-0.02293984964489937,-0.0626487210392952,-0.14953550696372986,0.10977821858299998,0.19937448922472556
4.62398,0.038556,1.899595,0.111525,0.032777,0.926292,0.933557,-0.142875,-0.005072,-0.188071,0,-0.030143359676003456,-0.05919056385755539,-0.15185001492500305,0.10252695310699998,0.19351976004927715
4.672623,0.048643,1.891191,0.142073,0.035205,0.914351,0.925992,-0.101224,-0.049905,-0.138314,0,-0.034412577748298645,-0.05863285809755325,-0.15103702247142792,0.09579894520499999,0.18617286616519949
4.710606,0.037983,1.883055,0.161711,0.031806,0.916788,0.931484,-0.020659,-0.029829,-0.19117,0,-0.033586516976356506,-0.05690285190939903,-0.1534474790096283,0.08853773509499999,0.18034447056997677
4.752144,0.041538,1.870062,0.145952,0.031077,0.979661,0.990961,0.038289,-0.089694,-0.316092,0,-0.029269564896821976,-0.05887233838438988,-0.16321615874767303,0.07540790559899999,0.17356479776791592
4.797078,0.044934,1.854407,0.098675,0.03302,1.0613,1.066388,0.110066,-0.285476,-0.408944,0,-0.020900864154100418,-0.07248248904943466,-0.17797493934631348,0.05703241590299998,0.16556767184332866
4.838496,0.041418,1.831935,0.080492,0.065554,1.148787,1.153468,-0.171849,-0.146199,-0.605031,0,-0.02996702678501606,-0.07691001147031784,-0.20362454652786255,0.03197324194499998,0.15713395037523764
4.883373,0.044877,1.80168,0.046792,0.073809,1.120031,1.123435,-0.162686,-0.069535,-0.628855,0,-0.03793831542134285,-0.07646705955266953,-0.2291644811630249,0.0037521161099999777,0.14684973595408457
4.924946,0.041574,1.779021,0.098191,0.075994,1.053989,1.061277,0.059669,0.224596,-0.142912,0,-0.03207588568329811,-0.05838479846715927,-0.223984032869339,-0.0021893073780000225,0.13753782377157467
4.963043,0.038097,1.775364,-0.003456,0.078908,1.089569,1.092428,0.222465,0.162594,-0.054336,0,-0.0167878195643425,-0.04511251673102379,-0.2137947380542755,-0.0042593459700000225,0.12939288563592094
5.011462,0.048419,1.768678,-0.034063,0.124067,0.994283,1.002573,-0.026463,0.197413,-0.114201,0,-0.017368923872709274,-0.030546113848686218,-0.20781300961971283,-0.009788844189000022,0.11933078752314406
5.049378,0.037916,1.76422,0.013819,0.085949,0.905821,0.909995,-0.15902,0.290264,-0.03204,0,-0.025876671075820923,-0.011277841404080391,-0.19725584983825684,-0.011003672829000022,0.11185163472067672
5.090773,0.041395,1.758925,-0.02962,0.077451,0.891199,0.895049,-0.002595,0.130432,-0.11048,0,-0.02447834424674511,-0.0027665672823786736,-0.1920439749956131,-0.01557699242900002,0.10390197437573331
5.136133,0.04536,1.756297,0.062551,0.055599,0.93872,0.942443,0.120767,0.069519,0.251543,0,-0.01575472578406334,0.001574994996190071,-0.16540157794952393,-0.004167001949000021,0.09639935879994291
5.177914,0.041781,1.771027,0.061581,0.093232,0.990628,0.996909,-0.116249,0.360291,0.472066,0,-0.021790537983179092,0.02311992645263672,-0.12711447477340698,0.015556387596999979,0.09108838892943519
5.223038,0.045124,1.78765,-0.045418,0.031563,0.991115,0.992657,0.043187,0.060662,0.225887,0,-0.017887907102704048,0.025374749675393105,-0.10591277480125427,0.02574931258499998,0.0863091808793034
5.264592,0.041554,1.790853,-0.006665,0.064583,0.966745,0.968923,0.015457,-0.106322,0.068481,0,-0.01588517054915428,0.017464881762862206,-0.09543847292661667,0.028594972058999978,0.08234333057531076
5.302669,0.038078,1.792073,0.077825,0.09566,0.927998,0.936156,-0.111565,-0.039213,0.088652,0,-0.021631818264722824,0.014060739427804947,-0.08438177406787872,0.031970662914999975,0.07913024138235408
5.351387,0.048718,1.794705,0.088978,0.109257,0.898023,0.90901,-0.13523,-0.035683,0.135802,0,-0.02845466136932373,0.011073070578277111,-0.07115726917982101,0.03858666475099998,0.07566360154245157
5.391007,0.03962,1.799521,0.104979,0.109985,0.889006,0.901914,-0.139206,-0.019915,0.094276,0,-0.03510651737451553,0.009211890399456024,-0.06122114881873131,0.04232187987099998,0.07323801962625343
5.433472,0.042465,1.803384,0.14765,0.100031,0.904359,0.921776,-0.158143,0.03323,0.1181,0,-0.04249623417854309,0.010654446668922901,-0.05045090988278389,0.04733699637099998,0.07109562173808101
5.482104,0.048631,1.806874,0.126314,0.050744,1.022552,1.031573,-0.012458,-0.132492,-0.011193,0,-0.040692102164030075,0.0020569022744894028,-0.048093032091856,0.04679266958799998,0.06875680949442196
5.520108,0.038005,1.805263,0.110555,0.068953,1.183636,1.190786,-0.183195,-0.150207,-0.027075,1,-0.04925099387764931,-0.007088245823979378,-0.046830665320158005,0.04576368421299998,0.06697701005892936
5.56864,0.048532,1.805573,0.104252,0.060941,1.139283,1.145665,-0.380504,0.107578,0.005912,0,-0.06914643943309784,-0.00020125648006796837,-0.04366287961602211,0.046050605396999976,0.06485796318540459
5.606706,0.038066,1.806248,0.011395,-0.026294,1.096392,1.096767,-0.103539,0.127992,-0.080674,0,-0.07121209800243378,0.007498181425035,-0.04588581249117851,0.04297966891299997,0.06311127384711539
5.648284,0.041578,1.80732,0.02279,-0.02557,1.111501,1.112029,0.256527,-0.011342,0.093115,0,-0.05152770131826401,0.006366617977619171,-0.037537261843681335,0.04685120438299997,0.061550549574178805
5.693554,0.04527,1.814347,-0.01012,0.020637,1.137821,1.138053,0.12122,-0.01348,0.099224,0,-0.04115227237343788,0.005174607038497925,-0.029323220252990723,0.05134307486299997,0.060223087393325915
5.735082,0.041528,1.8166,-0.030361,0.001942,0.982829,0.9833,0.046307,-0.055258,-0.091311,0,-0.035899367183446884,0.001544953789561987,-0.03304627910256386,0.04755111165499997,0.05885074151475464
5.780127,0.045045,1.817728,0.023275,-0.019057,0.921418,0.921909,0.226817,-0.133754,-0.005484,0,-0.02012031339108944,-0.006581260357052088,-0.03139085695147514,0.04730408487499997,0.05743674036337544
5.82165,0.041523,1.82179,0.020365,0.02088,0.977468,0.977903,0.003862,0.011265,0.035779,0,-0.01867990754544735,-0.005509392824023962,-0.027356555685400963,0.04878973629199997,0.05630081410165054
5.866726,0.045077,1.826737,0.012607,0.01651,0.929703,0.929936,-0.104324,0.037304,0.035041,0,-0.02382379211485386,-0.0029379702173173428,-0.02360888570547104,0.05036927944899997,0.05523659636070502
5.908206,0.041479,1.833056,0.027639,-0.002895,0.86951,0.869954,-0.044177,0.064962,0.059549,0,-0.025046229362487793,0.0011401819065213203,-0.018614325672388077,0.05283931241999997,0.054464492746140035
5.946436,0.03823,1.838703,0.015274,0.010683,0.885107,0.885303,-0.007638,-0.169617,-0.069589,0,-0.02400067076086998,-0.009115695022046566,-0.021675923839211464,0.050178924949999974,0.05363582217776698
5.995221,0.048785,1.838191,0.052853,0.019909,0.891199,0.892987,0.0027,-0.149349,-0.066918,0,-0.0223969966173172,-0.017538271844387054,-0.024393215775489807,0.046914330319999975,0.05244579914615971
6.033278,0.038057,1.843709,0.13286,0.034477,0.879258,0.889908,-0.082569,-0.019369,0.129834,0,-0.026010997593402863,-0.017648227512836456,-0.015130148269236088,0.051855422857999975,0.05186999109347739
6.081792,0.048514,1.850584,0.099645,0.003399,0.901922,0.907416,-0.004214,-0.059133,-0.021511,0,-0.02470184490084648,-0.020139852538704872,-0.015513389371335506,0.050811838203999975,0.05111737452151642
6.119848,0.038056,1.852158,0.132618,0.001214,0.986729,0.995601,0.132886,-0.138535,0.008231,0,-0.015236932784318924,-0.027250804007053375,-0.014087273739278316,0.051125077139999975,0.050581269232094446
6.161553,0.041705,1.855243,0.126072,0.023065,1.035224,1.043128,0.156763,-0.090989,0.027057,0,-0.00490641500800848,-0.031078994274139404,-0.011616100557148457,0.05225348932499997,0.05009681975835857
6.206677,0.045124,1.857822,0.092614,0.031806,1.183148,1.187194,0.117311,-0.134598,-0.075435,1,0.002434106543660164,-0.037296466529369354,-0.01544913835823536,0.04884956038499997,0.049399692839081556
6.248294,0.041616,1.855154,0.084129,0.033263,1.140501,1.144084,0.028742,-0.001854,-0.119759,0,0.004014189355075359,-0.03516774997115135,-0.021714111790060997,0.04386566984099997,0.04849603836282638
6.293325,0.045032,1.852989,0.085826,0.060455,1.171694,1.176388,-0.280677,0.367499,-0.03759,0,-0.013084697537124157,-0.010983111336827278,-0.02266763709485531,0.042172916960999965,0.04747526932917085
6.334815,0.041489,1.857107,0.032245,0.012382,1.13514,1.135665,-0.146898,0.346119,0.096495,0,-0.021121680736541748,0.010464860126376152,-0.015510588884353638,0.046176398015999966,0.046831750506947906
6.379905,0.04509,1.862501,-0.082443,0.028164,1.043754,1.047383,0.06537,-0.073589,-0.090229,0,-0.015926888212561607,0.005416486412286758,-0.01999826356768608,0.04210797240599996,0.04593002880268094
6.421891,0.041986,1.863713,0.002909,0.090562,0.954073,0.958366,0.02237,0.075942,0.255171,0,-0.013626731932163239,0.009652331471443176,-0.0034712739288806915,0.05282158201199996,0.04578428389550296
6.467667,0.045777,1.882885,0.047035,0.10343,0.923124,0.93009,-0.081782,0.319066,0.584122,0,-0.017720216885209084,0.028236079961061478,0.03182026743888855,0.07956093480599996,0.04724092027805296
6.509324,0.041657,1.910283,-0.035297,0.088376,0.915813,0.920744,-0.150199,0.223771,0.380093,0,-0.025677047669887543,0.03998013585805893,0.05273793637752533,0.09539446890699996,0.04943782449373153
6.554518,0.045194,1.92552,-0.001975,0.031806,0.862687,0.863275,0.059633,-0.045926,0.345274,0,-0.0205532256513834,0.03482051193714142,0.07030799984931946,0.11099878206299996,0.05261532423892168
6.596175,0.041657,1.939165,0.046065,0.053172,0.852452,0.85535,-0.043909,0.072582,0.234096,0,-0.021956000477075577,0.037088509649038315,0.08014529943466187,0.12075051913499996,0.05595393697747139
6.641274,0.045099,1.949753,0.062309,0.056085,0.85367,0.857776,-0.003591,0.080218,0.216076,0,-0.02085297740995884,0.039678916335105896,0.08830945938825607,0.13049533065899996,0.05993660528642235
6.683409,0.042135,1.95915,0.074431,0.045645,0.884132,0.888433,0.016873,0.083577,0.215465,0,-0.018587110564112663,0.04231548681855202,0.09594657272100449,0.13957394843399995,0.06397931412802187
6.728674,0.045265,1.968486,0.073946,0.046131,0.992334,0.996154,-0.030754,0.060689,0.024099,0,-0.0193178690969944,0.04341902211308479,0.09163132309913635,0.14066478966899995,0.06812700596810427
6.770575,0.041901,1.96877,0.091887,0.028892,0.986972,0.991661,0.066886,-0.145105,-0.094344,0,-0.014140363782644272,0.03209604695439339,0.08046142756938934,0.13671168172499995,0.07149842024468925
6.815761,0.045186,1.964974,0.157105,0.049772,1.01451,1.027808,-0.05376,-0.071801,-0.19758,0,-0.01651996560394764,0.02585586905479431,0.06376193463802338,0.12778383184499995,0.07437956702324297
6.857343,0.041583,1.956625,0.140619,0.032534,1.095905,1.105368,0.076965,-0.165264,-0.213157,0,-0.010905148461461067,0.014376984909176826,0.047129854559898376,0.11892012431399994,0.07633936776540723
6.903281,0.045938,1.948274,0.086068,0.073323,1.200451,1.205764,-0.192121,-0.238873,-0.30662,1,-0.02178918570280075,-0.000833507627248764,0.025883221998810768,0.10483461475399994,0.0775283912175886
6.952194,0.048913,1.936334,0.080492,0.048316,1.116863,1.120801,-0.41356,0.072363,-0.37748,0,-0.04531940072774887,0.0035627600736916065,0.0016567520797252655,0.08637093551399994,0.0776094279320642
6.99035,0.038156,1.927948,0.069824,-0.069232,1.031812,1.036487,0.206774,0.088856,-0.164899,0,-0.03017837554216385,0.008685572072863579,-0.008346782997250557,0.08007904926999994,0.07729094808002111
7.039545,0.049195,1.924438,-0.029373,0.047587,1.147325,1.148687,0.300236,-0.035455,-0.199108,0,-0.01033330149948597,0.006034437566995621,-0.019804127514362335,0.07028393120999994,0.07631668402695206
7.084896,0.045351,1.918027,-0.010367,0.04176,1.07714,1.077999,-0.028104,0.117873,-0.230872,0,-0.011400630697607994,0.012751593254506588,-0.0324811115860939,0.05981365513799994,0.07484363313541112
7.126434,0.041537,1.912993,-0.007899,-0.002895,0.94725,0.947287,0.103592,0.004537,-0.158796,0,-0.0044940379448235035,0.012258214876055717,-0.04006773233413696,0.05321774568599994,0.07317933973744807
7.165301,0.038867,1.910466,0.015032,-0.000724,0.923367,0.92349,0.269747,0.002399,-0.064112,0,0.011977201327681541,0.01166605856269598,-0.041511859744787216,0.050725904581999944,0.07156589828474742
7.206805,0.041504,1.911846,0.016729,0.003156,0.954073,0.954225,0.170019,0.10446,0.023752,0,0.021469376981258392,0.017239371314644814,-0.03759203478693962,0.05171170758999994,0.07000567847295028
7.248302,0.041497,1.916767,0.010183,0.007769,0.947006,0.947093,-0.059982,0.196472,0.039422,0,0.016577310860157013,0.028004292398691177,-0.032966479659080505,0.05334760232399994,0.06863766846653742
7.286242,0.03794,1.918185,-0.009133,-0.008925,0.819552,0.819652,-0.121374,0.268248,-0.097106,0,0.008291793055832386,0.042433612048625946,-0.03681877627968788,0.049663400683999936,0.06724076409448607
7.334713,0.048471,1.916024,-0.004196,-0.0591,0.817847,0.81999,0.268664,-0.100409,-0.150252,0,0.023930054157972336,0.03385431692004204,-0.04363171011209488,0.04238053599199994,0.06512589147364271
7.37316,0.038446,1.912416,0.09116,0.007041,0.93214,0.936614,0.140725,0.061038,-0.065144,0,0.03094489499926567,0.03548699989914894,-0.04492376372218132,0.03987600976799994,0.06339875245357973
7.42224,0.049081,1.914814,0.114677,0.029378,0.912401,0.920049,0.075512,0.063675,0.032265,0,0.033621646463871,0.03718000277876854,-0.04028771445155144,0.04145960823299994,0.061421391140583134
7.465958,0.043718,1.921049,0.126799,0.012868,0.942863,0.951438,0.172272,-0.123014,0.076072,0,0.04194914922118187,0.02755856141448021,-0.03329901397228241,0.04478532392899994,0.05996562484774289
7.510916,0.044958,1.927165,0.179168,0.042246,0.98088,0.998004,0.113948,-0.050348,0.118208,0,0.04627348482608795,0.022879401221871376,-0.02419932559132576,0.05009971919299994,0.05887767156780807
7.552659,0.041742,1.936173,0.160742,0.046373,1.03888,1.052264,0.098066,-0.126095,0.168299,0,0.04938420280814171,0.013931823894381523,-0.012637649662792683,0.05712485605099994,0.058350150795583776
7.590676,0.038017,1.94438,0.120496,0.055599,1.095417,1.103426,-0.013618,-0.137016,-0.02583,0,0.04560021683573723,0.004865719936788082,-0.013429997488856316,0.05614287694099994,0.057839582581049924
7.639259,0.048583,1.94407,0.112495,0.029135,1.122955,1.128952,0.127282,-0.201423,-0.128078,0,0.050506118685007095,-0.007524223066866398,-0.02031589113175869,0.04992046346699994,0.05685257564219569
7.677457,0.038198,1.94254,0.111283,0.054628,1.171694,1.178234,0.110508,0.111202,-0.037522,0,0.05410990118980408,-0.00039338646456599236,-0.021349310874938965,0.048487198110999934,0.056037074665394766
7.725972,0.048515,1.947814,0.039276,0.070167,1.21361,1.216271,0.160293,0.126168,0.245614,1,0.06048738211393356,0.007208039052784443,-0.005315180867910385,0.06040316132099993,0.055779208665588095
7.764291,0.038319,1.959445,-0.08343,0.084735,1.17803,1.184017,0.173427,-0.182319,0.139935,0,0.0672706663608551,-0.004175177775323391,0.0034087160602211952,0.06576533058599993,0.05590982725629971
7.805769,0.041477,1.96423,-0.039,0.137421,0.993552,1.003768,-0.035565,-0.142177,0.059171,0,0.06109423562884331,-0.012463729828596115,0.006757864262908697,0.06821956615299993,0.056190123192332374
7.850859,0.04509,1.970455,0.032003,0.151017,0.890712,0.90399,-0.090358,-0.017116,0.267475,0,0.0519978366792202,-0.012743150815367699,0.022416843101382256,0.08028001390299992,0.0572008986477737
7.89235,0.041492,1.986638,0.055035,0.14349,0.843922,0.857801,-0.141976,0.138655,0.466617,0,0.04034753888845444,-0.003649999387562275,0.04909602552652359,0.09964088646699992,0.05923799093892022
7.937572,0.045222,2.009436,0.041943,0.090562,0.820771,0.826817,-0.18321,0.227535,0.548779,0,0.026920411735773087,0.010235242545604706,0.07910757511854172,0.12445777040499992,0.06281539370093091
7.979071,0.041499,2.03115,0.032488,0.072109,0.848796,0.852473,-0.210393,0.338408,0.387205,0,0.012667089700698853,0.029945682734251022,0.09761226922273636,0.14052639069999992,0.06686620526140524
8.017003,0.037931,2.040373,-0.000741,0.042003,0.86951,0.870525,-0.044696,0.158546,0.075593,0,0.00922179501503706,0.03766956925392151,0.09628976881504059,0.14339370878299992,0.07051857248232855
8.065462,0.04846,2.04047,0.058187,0.016995,0.887057,0.889125,0.04478,0.088754,-0.030819,0,0.011357462033629417,0.040737759321928024,0.08865546435117722,0.14190022004299993,0.0748148162847866
8.103335,0.037872,2.037008,0.097706,0.036662,0.9163,0.922224,-0.087041,0.222197,-0.227587,0,0.005447534844279289,0.05163641273975372,0.06966157257556915,0.13328104517899994,0.07745303936136856
8.145419,0.042084,2.023345,0.093099,0.019666,0.927023,0.931894,-0.052833,0.052682,-0.338765,0,0.0019471372943371534,0.051699213683605194,0.04513099044561386,0.11902445891899995,0.07935233196328177
8.190548,0.045129,2.009722,0.140619,0.036904,0.944082,0.95521,-0.101702,0.010532,-0.40596,0,-0.004278151318430901,0.04922666400671005,0.018037935718894005,0.10070389007899995,0.08016636596433974
8.232105,0.041558,1.99113,0.165348,0.054628,0.973569,0.98902,-0.162178,-0.037726,-0.375417,0,-0.013761801645159721,0.044004183262586594,-0.005593430250883102,0.08510231039299995,0.07993391418997353
8.277163,0.045058,1.979668,0.171894,0.060455,0.999157,1.015636,-0.090096,-0.104005,-0.302418,0,-0.018346522003412247,0.035114578902721405,-0.023421062156558037,0.07147596014899996,0.07887860797132334
8.318609,0.041446,1.968076,0.125345,0.047102,1.112476,1.120506,-0.091012,-0.158067,-0.358007,0,-0.022710897028446198,0.023511866107583046,-0.04351668804883957,0.05663800202699996,0.07707501531845114
8.363697,0.045088,1.95043,0.042186,0.09129,1.18656,1.190814,-0.29107,-0.155318,-0.60388,1,-0.038828860968351364,0.012771133333444595,-0.07717277109622955,0.029410260586999956,0.07359544941526434
8.405125,0.041429,1.925918,0.046307,0.077936,1.115644,1.119321,-0.315505,-0.001685,-0.698259,0,-0.055446356534957886,0.011902880854904652,-0.11447593569755554,0.00048208847599995677,0.06885282587525031
8.444766,0.039641,1.903233,0.053823,0.021123,1.091031,1.092562,-0.047946,0.148893,-0.470712,0,-0.05499587580561638,0.020130667835474014,-0.13587188720703125,-0.018177405916000044,0.06346672839447638
8.487118,0.042352,1.891672,-0.004196,0.027678,1.112232,1.112585,0.151501,0.152558,-0.324104,0,-0.04259343072772026,0.0280844084918499,-0.1471773236989975,-0.031903858524000045,0.05723347438117644
8.53028,0.043162,1.878493,-0.061709,0.033748,1.049602,1.051956,-0.004575,0.138814,-0.452691,0,-0.04030999913811684,0.03473495692014694,-0.1655268371105194,-0.05144290746600004,0.0500890050378122
8.580574,0.050294,1.860397,-0.012342,-0.016886,0.869754,0.870005,0.23183,-0.021538,-0.355564,0,-0.023964950814843178,0.03135513514280319,-0.1769406944513321,-0.06932564328200004,0.0411899497510769
8.634288,0.053714,1.849847,0.006788,0.001214,0.892905,0.892932,0.159443,0.084752,-0.274013,0,-0.012949253432452679,0.03456221520900726,-0.1827709674835205,-0.08404397756400003,0.03137259000366708
8.685226,0.050937,1.845263,-0.008146,0.000971,0.936771,0.936807,0.073922,0.031302,-0.20468,0,-0.0077316639944911,0.03436640277504921,-0.1840868443250656,-0.09446976272400004,0.02199575841428121
8.728676,0.04345,1.844863,0.003152,-0.000724,0.928729,0.928734,0.020078,0.112394,-0.011422,0,-0.006061382591724396,0.03905283287167549,-0.17371639609336853,-0.09496604862400004,0.014447781004024347
8.772267,0.043591,1.849779,-0.022709,0.000486,0.949443,0.949715,0.057108,0.063758,-0.029383,0,-0.0022673553321510553,0.040536653250455856,-0.1650475561618805,-0.09624688297700004,0.007253192983371815
8.815661,0.043395,1.853117,-0.033816,0.007769,0.987703,0.988313,0.06591,-0.024574,-0.221694,0,0.0018274562899023294,0.03662602975964546,-0.16844980418682098,-0.10586729410700005,-5.668626931528212e-05
8.859927,0.044266,1.851507,0.029336,0.013596,0.969426,0.969965,0.06172,-0.019023,-0.095774,0,0.0054246727377176285,0.03328368440270424,-0.1640848070383072,-0.11010682599100005,-0.007320064337672988
8.910442,0.050515,1.853201,0.056247,0.037876,0.97625,0.978602,-0.0147,0.001547,-0.079183,0,0.004215961322188377,0.03137754276394844,-0.15898551046848297,-0.11410675523600006,-0.015351217398988405
8.95361,0.043168,1.858057,0.12292,0.047345,0.963821,0.97278,-0.073927,0.052251,0.067043,0,-0.0004773968830704689,0.032631225883960724,-0.1454099714756012,-0.11121264301200005,-0.02162827504764716
8.997107,0.043497,1.866875,0.135042,0.049044,0.994527,1.004851,-0.181345,0.065086,0.084627,0,-0.011340517550706863,0.034580498933792114,-0.13159367442131042,-0.10753162239300006,-0.0273522051039509
9.041203,0.044096,1.872633,0.117829,0.02258,1.002081,1.009238,0.079798,-0.209175,0.011222,0,-0.0058666313998401165,0.01994025707244873,-0.12301599979400635,-0.10703677708100005,-0.0327767186308674
9.085022,0.04382,1.875431,0.081704,0.079393,1.107115,1.112961,0.043452,-0.479788,-0.016572,0,-0.0029044963885098696,-0.010074010118842125,-0.11662285029888153,-0.10776296212100005,-0.03788713193096439
9.139268,0.054245,1.876635,0.10207,0.125281,1.094199,1.106067,-0.126806,-0.10655,0.140293,0,-0.010346166789531708,-0.015868471935391426,-0.1011921837925911,-0.10015276833600005,-0.0433763019407935
9.189675,0.050407,1.887482,0.074431,0.121396,1.055938,1.065497,0.150832,0.108169,0.557514,0,-0.0006656162440776825,-0.00841863639652729,-0.0616295151412487,-0.07205016013800006,-0.04648286091051842
9.232963,0.043288,1.91768,-0.061215,0.183794,1.119056,1.1357,-0.126501,0.223012,0.441144,0,-0.008223436772823334,0.005481359548866749,-0.031432345509529114,-0.05295391866600006,-0.047843504282934914
9.287008,0.054046,1.932705,-0.110089,0.156601,0.873897,0.894617,-0.070912,-0.108383,0.232839,0,-0.011988585814833641,-0.001357467845082283,-0.01555989682674408,-0.040369902072000065,-0.04868445446683312
9.337474,0.050466,1.945892,0.037822,0.128437,0.833443,0.844129,0.053399,-0.153281,0.613408,0,-0.008061330765485764,-0.010482174344360828,0.02221665531396866,-0.00941365394400007,-0.04756326873975838
9.39149,0.054016,1.987083,0.094311,0.14956,0.876821,0.894471,-0.116727,0.296316,1.287193,0,-0.014587918296456337,0.007944484241306782,0.09819261729717255,0.06011536314399994,-0.04225929632383431
9.442184,0.050694,2.039369,-0.010367,0.116783,0.931166,0.938518,-0.060833,0.534859,1.317736,0,-0.017365451902151108,0.03959158807992935,0.17143982648849487,0.12691667192799994,-0.033568325759826545
9.485636,0.043453,2.087277,-0.083924,0.126495,1.015972,1.027251,-0.181173,0.459111,0.970765,0,-0.02720392495393753,0.06478841602802277,0.2194482386112213,0.16909932347299994,-0.024032641447453144
9.530224,0.044588,2.121965,-0.056279,0.093961,0.981124,0.987218,-0.151241,0.065714,0.604856,0,-0.034653738141059875,0.06484400480985641,0.24259628355503082,0.19606864280099995,-0.013215758356301429
9.581399,0.051175,2.13724,0.041216,0.070167,0.936283,0.939813,-0.014102,-0.119989,0.549573,0,-0.033419378101825714,0.05374271795153618,0.26103365421295166,0.22419304107599994,0.00014263889804637213
9.624757,0.043358,2.153546,0.098433,0.104886,0.945787,0.956663,-0.219658,0.073961,0.810107,0,-0.044605087488889694,0.05495705083012581,0.294011652469635,0.25931766038199994,0.012890396125824807
9.668031,0.043273,2.187568,0.072734,0.085706,0.928241,0.935023,-0.265167,0.213543,0.877913,0,-0.05785229429602623,0.06448190659284592,0.3290814459323883,0.29730758963099996,0.02713073753565705
9.718884,0.050854,2.214673,0.017456,0.058513,0.949199,0.951161,-0.180563,0.086178,0.90418,0,-0.06522244215011597,0.0657849982380867,0.3636225461959839,0.34328875935099995,0.04562239849990761
9.765703,0.046819,2.246224,0.025942,0.048073,0.982829,0.984346,-0.2951,0.218125,0.686407,0,-0.0790291577577591,0.07493472099304199,0.3830093741416931,0.37542564868399997,0.06355451438784754
9.815714,0.050011,2.261755,0.018911,-0.017851,0.99209,0.992431,-0.111535,-0.10991,0.403576,0,-0.08098149299621582,0.06383273005485535,0.3842446208000183,0.39560888802,0.08277097211867726
9.862139,0.046424,2.266832,0.048489,0.010683,1.114182,1.115288,-0.148798,-0.162444,0.356845,0,-0.08505463600158691,0.05024228245019913,0.38259896636009216,0.4121750603,0.10053274653297818
9.905298,0.043159,2.270422,0.048974,0.053657,1.190703,1.192917,-0.423382,0.010125,0.414266,1,-0.10537497699260712,0.04783279076218605,0.3845009207725525,0.430054366594,0.11712742177260077
9.94892,0.043622,2.281224,0.016486,0.013839,1.186804,1.186999,-0.249896,0.005849,0.754824,0,-0.1140550822019577,0.04531119391322136,0.40674296021461487,0.462981299122,0.1348703631830827
9.992302,0.043382,2.302792,-0.105892,0.019181,1.226526,1.231238,-0.080381,-0.400987,0.717866,0,-0.11203257739543915,0.018505999818444252,0.4254293739795685,0.494123761934,0.15332634028506434
10.03551,0.043208,2.319173,-0.072323,0.063126,1.115157,1.119281,-0.252339,-0.367084,0.736803,0,-0.12045954912900925,-0.004652988165616989,0.4441308379173279,0.525959545958,0.17251634552979625
10.07876,0.043251,2.343241,-0.030361,0.062883,0.984292,0.986765,-0.343969,-0.337457,0.870277,0,-0.1338837891817093,-0.02464158833026886,0.46972566843032837,0.563599896485,0.19283245041507638
10.129058,0.050298,2.374983,-0.086146,0.026707,0.821989,0.826923,-0.066331,-0.323713,1.117983,0,-0.12982648611068726,-0.042604170739650726,0.5086607933044434,0.619832205419,0.21841707099670327
10.180071,0.051013,2.407317,-0.159949,0.01481,0.943594,0.957169,0.062256,-0.398544,1.237407,0,-0.11828978359699249,-0.06398233771324158,0.5524301528930664,0.6829560487099999,0.24659819038623726
10.223395,0.043324,2.442427,-0.181918,0.061427,0.968451,0.987302,0.058897,-0.394878,1.593847,0,-0.10764773935079575,-0.08385632187128067,0.6149788498878479,0.7520078761379999,0.2732415340787784
10.270229,0.046834,2.512666,-0.1365,0.030349,0.960653,0.970777,0.07203,-0.315771,1.859574,0,-0.09685607999563217,-0.09778539091348648,0.689730703830719,0.8390991648539999,0.3055443818619863
10.320736,0.050507,2.566411,-0.128355,-0.020263,0.96967,0.978338,0.228717,-0.247354,1.975332,0,-0.07730177789926529,-0.1067686602473259,0.7669454216957092,0.938867258178,0.3442804942755715
10.364178,0.043442,2.626431,-0.093798,-0.045592,0.999644,1.00507,0.426027,-0.575389,2.117664,0,-0.04707125946879387,-0.1349145472049713,0.8480711579322815,1.030862817666,0.38112240151846566
10.407472,0.043294,2.710436,0.042913,-0.028706,0.978199,0.979561,0.248876,-0.038744,2.528471,0,-0.02929631993174553,-0.12913842499256134,0.948997974395752,1.14033044114,0.42220831982195534
10.458542,0.051069,2.787372,-0.010367,-0.048728,1.011098,1.012325,0.121205,-0.012782,2.532747,0,-0.02025703340768814,-0.12214992195367813,1.0441198348999023,1.269675297683,0.4755304756704585
10.501826,0.043284,2.85954,-0.046405,-0.074539,0.994527,0.998395,0.236964,-0.184435,2.47105,0,-0.004808035679161549,-0.1258908361196518,1.1298229694366455,1.376632225883,0.5244337330795542
10.547423,0.045597,2.936883,0.005819,-0.074539,0.994771,0.997576,0.223525,-0.095554,2.521141,0,0.008905915543437004,-0.12406876683235168,1.213387131690979,1.4915886920599999,0.5797605461232678
10.59123,0.043807,3.005366,-0.053317,-0.072127,0.972107,0.976236,0.221692,-0.050656,2.32994,0,0.021686097607016563,-0.11965951323509216,1.2804486751556396,1.5936563736399998,0.6358531612358109
10.634636,0.043406,3.063269,-0.012095,-0.080569,0.931409,0.934966,0.285833,0.007376,2.218457,0,0.037551067769527435,-0.11202961206436157,1.3367865085601807,1.6899507181819997,0.6938777164263741
10.679134,0.044498,3.127268,-0.042703,-0.102521,0.99014,0.996349,0.492916,-0.358532,1.881565,0,0.06490081548690796,-0.12683483958244324,1.369506597518921,1.7736765975519997,0.7548180210027711
10.723708,0.044574,-3.120251,0.031033,-0.079122,1.032544,1.036035,0.403425,-0.287672,1.743509,0,0.08523297309875488,-0.13649490475654602,1.3919696807861328,1.8513917677179996,0.8168636775541321
10.767102,0.043394,-3.086792,0.067885,-0.04728,1.048628,1.051886,0.080277,-0.169775,1.543451,0,0.08493531495332718,-0.13849374651908875,1.401067852973938,1.9183682804119997,0.8776616159660832
10.810483,0.043381,-3.065688,0.028851,-0.064166,1.008661,1.011112,0.125175,-0.454743,1.344614,0,0.08735215663909912,-0.15748804807662964,1.3976771831512451,1.9766989803459998,0.9382942498483673
10.853759,0.043276,-3.047674,0.07831,-0.02943,1.005006,1.008482,0.21314,-0.064706,1.59904,0,0.09490711987018585,-0.15191544592380524,1.4097713232040405,2.045899035386,0.9993035136313454
10.897023,0.043264,-3.011882,-0.008146,0.002428,1.120031,1.120063,0.089745,0.185749,1.825976,0,0.09459707885980606,-0.131634920835495,1.4347690343856812,2.1248980610499997,1.0613773611350075
10.940709,0.043685,-2.980957,-0.158468,0.044674,0.992577,1.00614,-0.022348,0.102977,1.464038,0,0.08757322281599045,-0.11754385381937027,1.4365270137786865,2.18885456108,1.1241320437319293
10.984142,0.043434,-2.962646,-0.105646,-0.008925,0.849527,0.856117,0.127924,0.018983,1.236796,0,0.08999674022197723,-0.10934389382600784,1.4245309829711914,2.242573558544,1.1860051224463
11.027349,0.043206,-2.952959,-0.02888,0.03302,0.884132,0.88522,0.159689,-0.038744,1.202893,0,0.09418253600597382,-0.10510358214378357,1.4112191200256348,2.294545753502,1.2469782557461275
11.070784,0.043435,-2.937043,0.039276,0.052686,0.940182,0.942476,0.276365,-0.188406,1.58163,0,0.10512463003396988,-0.11010682582855225,1.4214541912078857,2.3632438525520003,1.3087191185412421
11.114141,0.043358,-2.891197,0.053096,0.12868,1.004762,1.014359,0.168547,0.015929,2.150651,0,0.10893385112285614,-0.10253696888685226,1.4652506113052368,2.4564917786100002,1.3722494545462145
11.164756,0.050615,-2.836573,-0.013329,0.143976,1.035955,1.045997,-0.022348,0.295399,2.190357,0,0.10104890912771225,-0.07863646745681763,1.5088013410568237,2.5673566981650002,1.4486174344238056
11.209163,0.044407,-2.788977,-0.080962,0.085706,0.937014,0.944403,0.116929,0.010431,1.87851,0,0.10200268775224686,-0.07328697293996811,1.5310064554214478,2.6507756917350003,1.516604838089706
11.252388,0.043225,-2.754959,-0.021475,0.112656,1.014997,1.021456,0.045763,-0.120294,1.771609,0,0.09862486273050308,-0.07611027359962463,1.545457363128662,2.72735349076,1.5834072326109423
11.295648,0.04326,-2.726347,0.062793,0.101487,0.964552,0.971907,-0.176592,0.20438,1.624696,0,0.08209501206874847,-0.059263698756694794,1.550216555595398,2.79763783972,1.6504696008059991
11.338974,0.043326,-2.703142,0.032488,0.020152,0.934334,0.935115,0.109904,-0.042409,1.51138,0,0.08376525342464447,-0.058251384645700455,1.5478839874267578,2.8631198896,1.7175332224452509
11.382349,0.043374,-2.686192,0.040973,0.061427,1.013048,1.015735,-0.027235,0.07671,1.220608,0,0.07709844410419464,-0.05014544725418091,1.52822744846344,2.9160625409920002,1.7838185597949041
11.42592,0.043571,-2.680611,0.017214,0.038604,0.982586,0.983494,-0.051059,-0.000565,1.005584,0,0.06940115988254547,-0.0471675880253315,1.4968369007110596,2.9598768414560004,1.8490372403957858
11.469768,0.043849,-2.683007,0.081219,0.022337,0.931897,0.935696,-0.017156,-0.035079,0.809496,0,0.0642024353146553,-0.04644153267145157,1.4555543661117554,2.9953724315600003,1.9128618437954201
11.513037,0.043269,-2.692078,0.094796,0.046131,0.938964,0.944864,-0.140245,-0.072647,0.735582,0,0.051923081278800964,-0.04801546409726143,1.4123120307922363,3.0272003291180005,1.9739711730557694
11.557059,0.044022,-2.704813,0.118798,0.027921,0.906796,0.914971,-0.103899,-0.073258,0.579811,0,0.04256422445178032,-0.04953156039118767,1.3623110055923462,3.0527247689600006,2.0339428281439558
11.60061,0.043551,-2.718111,0.186198,-0.043421,0.916056,0.935796,-0.336333,0.532721,0.807053,0,0.01980721205472946,-0.014560788869857788,1.3289616107940674,3.0878727341630006,2.091820435255648
11.643882,0.043272,-2.728681,0.003879,-0.108552,1.073241,1.078724,-0.235235,0.6384,0.157703,0,0.0044890763238072395,0.02465680241584778,1.258614420890808,3.0946968583790007,2.1462831984764352
11.688066,0.044184,-2.776156,-0.163899,-0.119166,1.213123,1.229931,0.149305,-0.547289,-0.677044,1,0.013186890631914139,-0.009694933891296387,1.142356514930725,3.0647823462830006,2.1967570787321344
11.738538,0.050472,-2.850526,-0.037025,-0.024123,1.129048,1.129912,0.401592,-0.943741,-0.682848,0,0.03651495650410652,-0.06579484045505524,1.032732605934143,3.0303176420270006,2.2488811588188424
11.792574,0.054036,-2.905533,0.098675,0.026464,1.021577,1.026673,0.564998,-0.43489,0.129603,0,0.06825627386569977,-0.08796312659978867,0.9784895777702332,3.0373208697350007,2.3017548216432346
11.843042,0.050468,-2.92362,0.003394,0.0539,1.039854,1.041256,0.312711,0.066325,0.231618,0,0.08293851464986801,-0.07869639992713928,0.9336315989494324,3.049010166959001,2.3488733411790146
11.897247,0.054205,-2.939241,-0.058994,0.046131,0.915569,0.918627,0.372881,0.098701,0.375782,0,0.10035280138254166,-0.06804170459508896,0.9001265168190002,3.069379430269001,2.3976646990231885
11.947954,0.050707,-2.945703,0.03467,0.014325,0.896317,0.897102,0.300188,0.418489,0.502536,0,0.11235514283180237,-0.03882009536027908,0.8762467503547668,3.094861523221001,2.442096542993428
11.991185,0.043231,-2.949572,-0.007652,-0.031601,0.917031,0.917608,0.111431,0.19369,0.166866,0,0.11229963600635529,-0.024855267256498337,0.8336405158042908,3.102075307267001,2.4781356561321632
12.034603,0.043418,-2.962273,0.037822,-0.04728,0.916788,0.918785,0.007939,0.051277,0.099977,0,0.10603161156177521,-0.020282674580812454,0.7895758152008057,3.1064161086530007,2.512417458876552
12.077974,0.04337,-2.976352,0.10207,-0.040767,0.866586,0.873528,-0.121616,0.102409,0.162046,0,0.09235882759094238,-0.012913668528199196,0.7518856525421143,3.1134440436730006,2.5450267396273034
12.131842,0.053869,-2.980219,0.140376,-0.094802,0.84246,0.859321,0.123646,0.147613,0.408835,0,0.09423796832561493,-0.00327224750071764,0.7312816381454468,3.1354675762880007,2.5844201501925603
12.182403,0.050561,-2.976291,0.084371,-0.039561,0.99014,0.994516,0.175264,0.168077,0.389899,0,0.09910448640584946,0.007019190117716789,0.7107778191566467,3.1551812596270006,2.6203577875069395
12.233337,0.050934,-2.979275,0.071522,0.011897,1.015728,1.018313,-0.118256,0.227942,0.204806,0,0.08604955673217773,0.020288072526454926,0.6803885698318481,3.1656128484310004,2.655012698922755
12.276597,0.04326,-2.991811,0.090432,-0.003618,0.885351,0.889965,0.043408,-0.063133,-0.032435,0,0.08348845690488815,0.01527770422399044,0.6375755667686462,3.1642097103310003,2.6825942179411664
12.323521,0.046924,-3.014397,0.141831,0.009226,0.884376,0.895724,0.012865,-0.172783,-0.202561,0,0.07924672961235046,0.003982557915151119,0.587116003036499,3.154704737967,2.710144049267651
12.374143,0.050622,-3.037838,0.172137,-0.014715,0.940913,0.956643,0.131372,-0.283655,-0.137504,0,0.08237743377685547,-0.013293289579451084,0.543594479560852,3.147744010479,2.7376618890119806
12.417085,0.042943,-3.057562,0.112252,0.015539,1.135871,1.14151,0.026915,-0.307785,-0.170491,0,0.07904629409313202,-0.030980806797742844,0.5007056593894958,3.140422615466,2.7591636921431437
12.467995,0.05091,-3.078095,0.051156,0.025736,1.243098,1.244416,-0.092456,0.065855,-0.138797,1,0.06874566525220871,-0.025164734572172165,0.46229636669158936,3.133356460196,2.7826992001714124
12.514702,0.046707,-3.089393,-0.024684,0.05997,1.2894,1.29103,-0.106506,0.331887,0.223752,0,0.05821984261274338,-0.003719788044691086,0.44796910881996155,3.14380724486,2.803622493337066
12.565088,0.050387,-3.091057,-0.14119,0.040789,1.147812,1.157182,0.124095,-0.287225,0.058513,0,0.062176384031772614,-0.02074744552373886,0.424577921628952,3.146755539391,2.825015701074184
12.61855,0.053462,-3.100591,-0.056032,0.08692,0.933603,0.939313,0.330568,-0.52363,0.144645,0,0.07829630374908447,-0.050951167941093445,0.40776482224464417,3.154488550381,2.846815624001027
12.661675,0.043125,-3.096555,0.040488,0.162914,0.881208,0.897055,0.358973,-0.270121,0.599434,0,0.09515407681465149,-0.0641147643327713,0.41927671432495117,3.1803391416310003,2.8648969323062907
12.712832,0.051157,-3.073757,0.067885,0.225312,0.957485,0.985977,-0.20119,0.265608,0.733519,0,0.07735530287027359,-0.04431122541427612,0.43815046548843384,3.2178637731140003,2.8873113956692826
12.759211,0.046379,-3.052156,0.016971,0.13038,0.840267,0.850491,-0.347187,0.187112,0.553313,0,0.05185679346323013,-0.030411675572395325,0.44506725668907166,3.2435258767410002,2.907953169967265
12.80212,0.042909,-3.040569,0.038064,0.060213,0.776418,0.779679,-0.07352,-0.014779,0.382577,0,0.04432651400566101,-0.02947275899350643,0.4413140118122101,3.259941873234,2.9268895129001153
12.845508,0.043388,-3.035027,0.081704,0.055114,0.787872,0.794012,0.047126,-0.132981,0.234442,0,0.04449465498328209,-0.0356895849108696,0.42888903617858887,3.2701138427300003,2.945498150401832
12.895939,0.050431,-3.037714,0.126799,0.084492,0.829544,0.843422,-0.104965,-0.040511,0.128581,0,0.03551793098449707,-0.03597916662693024,0.41085219383239746,3.2765983111410004,2.9662178373889936
12.939717,0.043777,-3.042414,0.163651,0.071867,0.840998,0.859781,-0.272037,0.085328,0.126443,0,0.017045820131897926,-0.028693314641714096,0.3937702476978302,3.2821336063520006,2.9834559175224613
12.983071,0.043354,-3.049587,0.152498,0.059727,0.893393,0.908281,-0.401846,0.239266,-0.082167,0,-0.00811331532895565,-0.012599363923072815,0.3651849031448364,3.2785713382340007,2.9992881438134025
13.026414,0.043343,-3.065535,0.107161,0.015053,1.005981,1.011784,-0.095191,-0.200557,-0.302384,0,-0.013343303464353085,-0.023888319730758667,0.3250899314880371,3.2654651085220006,3.0133785167138885
13.080389,0.053975,-3.093273,0.125345,0.038604,1.180468,1.187731,0.016292,-0.275999,-0.34209,1,-0.011563371866941452,-0.03903038427233696,0.28501832485198975,3.2470008007720006,3.0287623807977746
13.13084,0.050451,-3.119998,0.136255,0.088376,1.206543,1.217424,-0.300442,0.011107,-0.456933,0,-0.02891376242041588,-0.03601907566189766,0.24045585095882416,3.2239480739890007,3.0408936189344984
13.174593,0.043753,3.13484,0.145952,0.00437,1.149518,1.158755,-0.271731,0.106097,-0.236716,0,-0.04349765181541443,-0.027483418583869934,0.2117963433265686,3.2135910388410007,3.0501603443440657
13.218086,0.043493,3.120094,0.084129,-0.042938,1.131972,1.135906,-0.037464,0.207195,0.019236,0,-0.04313526302576065,-0.013388357125222683,0.2002309411764145,3.214427670189001,3.0588689886686513
13.261416,0.04333,3.104783,-0.128108,0.02258,1.122224,1.129738,-0.015168,-0.016992,-0.57147,0,-0.04145551472902298,-0.01360479649156332,0.15388166904449463,3.189665875089001,3.065536681388349
13.305108,0.043692,3.070034,-0.026411,0.016267,0.93604,0.936553,0.156791,-0.051812,-0.487476,0,-0.02954859659075737,-0.01589956507086754,0.11536097526550293,3.168367073697001,3.0705770331196494
13.348522,0.043414,3.044928,0.049701,0.023794,0.907283,0.908955,0.270412,0.071583,-0.304217,0,-0.011532612144947052,-0.01064525917172432,0.09016063064336777,3.155159796859001,3.0744912667384003
13.392022,0.0435,3.029396,0.047035,0.058027,0.979661,0.982505,0.108227,0.379765,-0.153639,0,-0.00433970894664526,0.012803241610527039,0.07551773637533188,3.148476500359001,3.0777762882707274
13.436115,0.044093,3.018918,0.021335,0.061669,1.0033,1.00542,-0.095497,0.221551,-0.124317,0,-0.009814722463488579,0.02534087747335434,0.06351542472839355,3.142994990878001,3.0805768738932766
13.479759,0.043644,3.008136,0.045095,0.034477,0.92483,0.92657,-0.256765,0.219107,-0.221139,0,-0.02464684657752514,0.03697869926691055,0.04641874507069588,3.133343600362001,3.082602773603142
13.52282,0.043061,2.995767,0.092614,-0.008443,0.761065,0.766726,-0.063121,0.215747,-0.174713,0,-0.026957649737596512,0.04771573469042778,0.03313731402158737,3.125820283869001,3.0840296994822256
13.565744,0.042923,2.981323,0.077825,-0.00796,0.746687,0.750774,0.325084,-0.281497,-0.182044,0,-0.005813613533973694,0.027942830696702003,0.02021327055990696,3.118006409257001,3.0848973136944684
13.621969,0.056226,2.970554,0.150801,0.016995,0.831981,0.845708,0.369983,-0.28333,-0.099577,0,0.016757173463702202,0.009247418493032455,0.013018526136875153,3.112407592855001,3.08562929334504
13.662151,0.040182,2.963643,0.166075,0.044431,0.988922,1.003754,0.201078,-0.184675,-0.005198,0,0.02782769873738289,-0.0023997901007533073,0.011924420483410358,3.112198726819001,3.0861084404089048
13.707117,0.044966,2.962492,0.131891,0.051958,1.11077,1.119779,0.084098,-0.232628,0.11331,0,0.031207358464598656,-0.016227567568421364,0.018013756722211838,3.1172938242790007,3.0869184469936757
13.750785,0.043667,2.964774,0.092372,0.080607,1.149518,1.156037,-0.389017,0.019965,0.023207,0,0.0059681907296180725,-0.014053799211978912,0.018325669690966606,3.118307204348001,3.0877186740120712
13.794705,0.043921,2.961904,0.023517,-0.006996,1.116619,1.116889,-0.293417,-0.10007,-0.123401,0,-0.012013236060738564,-0.019220033660531044,0.00981339905411005,3.112887309027001,3.0881496883119266
13.838279,0.043573,2.956618,0.055763,-0.020263,1.165846,1.167354,0.058441,0.191924,0.101703,0,-0.007781671825796366,-0.006538474000990391,0.015332397073507309,3.117318813846001,3.0888177668496106
13.881781,0.043503,2.963094,-0.002468,0.001457,1.24919,1.249193,0.461002,0.126256,0.38881,1,0.020374028012156487,0.0014373185113072395,0.03776390105485916,3.1342332152760006,3.0904606098372
13.933011,0.051229,2.975132,-0.139956,0.085706,1.238711,1.249535,0.31134,-0.10007,0.051612,0,0.0378497838973999,-0.0046593304723501205,0.03859563544392586,3.1368772464240005,3.092437825645357
13.976564,0.043553,2.965611,-0.089108,0.121882,0.945787,0.957763,0.00774,-0.080828,-0.32743,0,0.03604135662317276,-0.0092341098934412,0.016611704602837563,3.1226166876340002,3.0931613152159243
14.020031,0.043467,2.956938,0.059399,0.097845,0.828569,0.836438,0.407856,-0.354801,0.171953,0,0.05837298184633255,-0.02998926490545273,0.02594168484210968,3.1300909686850003,3.094288922430956
14.070564,0.050533,2.968585,0.12195,0.153202,0.927754,0.948193,-0.010586,-0.074414,0.416604,0,0.054231222718954086,-0.03265746682882309,0.04940532147884369,3.1511432186170003,3.0967855215412468
14.114482,0.043918,2.987024,0.059157,0.120911,0.893636,0.903717,-0.251267,0.00561,0.336275,0,0.03588264063000679,-0.03035907819867134,0.06663505733013153,3.1659117440670004,3.0997119999890717
14.158161,0.043679,3.002543,0.06546,0.039575,0.806637,0.810255,0.054776,-0.078079,0.233345,0,0.037017397582530975,-0.03322519361972809,0.07664785534143448,3.1761040203220006,3.10305990166253
14.201528,0.043367,3.013926,0.060127,0.081578,0.847334,0.853373,0.125331,-0.23385,0.162484,0,0.04232161492109299,-0.04527495428919792,0.08180327713489532,3.1831504639500006,3.106607464382039
14.245142,0.043615,3.019867,0.124617,0.104644,0.854401,0.869759,-0.207525,0.038315,0.019488,0,0.02731553465127945,-0.040254443883895874,0.07806054502725601,3.1840004330700005,3.110012075053403
14.288714,0.043572,3.021173,0.153953,0.062883,0.782267,0.799748,-0.15659,-0.082749,-0.084143,0,0.016269952058792114,-0.0428067184984684,0.06831841170787811,3.1803341542740005,3.1129888448883385
14.332199,0.043484,3.015826,0.180137,0.039332,0.751074,0.773375,0.099057,-0.317321,-0.290615,0,0.021242238581180573,-0.05929436907172203,0.046760451048612595,3.1676970516140006,3.1150221763417365
14.375982,0.043783,3.002835,0.289238,0.067982,0.930435,0.976723,0.045606,-0.054649,-0.190128,0,0.022705554962158203,-0.059015363454818726,0.03253265097737312,3.159372677390001,3.116446553399479
14.419637,0.043655,2.997598,0.273479,0.067982,1.076409,1.112685,-0.130628,0.225432,-0.238997,0,0.013496161438524723,-0.04193112254142761,0.01622426137328148,3.148939263355001,3.1171548235297295
14.470824,0.051188,2.987141,0.141588,0.117997,1.256501,1.269947,-0.288843,0.177479,-0.446997,1,-0.004662684164941311,-0.028753092512488365,-0.011597352102398872,3.126058380919001,3.1165611782703118
14.514373,0.043548,2.97106,0.185714,0.089105,1.20898,1.226402,-0.46691,0.423047,-0.398433,0,-0.03242580220103264,-0.0016174465417861938,-0.034831155091524124,3.108707420635001,3.115044351128386
14.557818,0.043445,2.959583,0.121708,0.015053,1.122711,1.129389,-0.114135,0.355241,-0.151949,0,-0.037333354353904724,0.01981589011847973,-0.04186538979411125,3.102105996330001,3.113225509268781
14.601372,0.043554,2.954672,-0.002962,0.011897,1.096392,1.096461,0.188854,0.036064,-0.213341,0,-0.023748276755213737,0.02079177089035511,-0.05216441676020622,3.092814142416001,3.1109535402612067
14.646101,0.044728,2.943032,0.000242,0.026464,1.033518,1.033857,0.16503,0.028123,-0.184324,0,-0.012410031631588936,0.02123209275305271,-0.06010207533836365,3.084569698544001,3.1082652946354723
14.697237,0.051137,2.940009,0.058672,0.003399,0.970645,0.972422,0.224284,0.16404,0.053608,0,0.0018060896545648575,0.02980930358171463,-0.053272515535354614,3.087311050840001,3.105541098008541
14.740148,0.042911,2.943204,0.010425,0.023065,0.986972,0.987297,0.044995,0.184199,-0.184019,0,0.00440006610006094,0.039082132279872894,-0.06112530082464218,3.079414611531001,3.1029181502248546
14.793631,0.053483,2.939292,0.026911,0.009954,0.9163,0.916749,0.039803,0.081268,-0.215784,0,0.006526407785713673,0.041615866124629974,-0.07041428238153458,3.0678738358590008,3.099152183160243
14.837266,0.043635,2.934588,0.040488,0.000243,0.894855,0.89577,0.119826,-0.291665,-0.2729,0,0.01333131454885006,0.02159862592816353,-0.08257581293582916,3.0559658443590005,3.0955489875627884
14.887927,0.050661,2.929432,0.110798,0.027678,0.858544,0.866106,-0.006928,-0.145363,-0.153781,0,0.012114516459405422,0.01157071441411972,-0.08685248345136642,3.0481751451180004,3.0911489538986587
14.942464,0.054537,2.935458,0.159772,0.050015,0.88267,0.898407,-0.298972,-0.009133,0.034255,0,-0.0065697068348526955,0.010327224619686604,-0.07957862317562103,3.0500433100530002,3.0868089745265297
14.98612,0.043656,2.949887,0.163166,0.002185,0.879502,0.894512,-0.280952,0.034544,0.088316,0,-0.023049429059028625,0.011781712993979454,-0.06949467211961746,3.0538988333490003,3.0837751151204755
15.029576,0.043456,2.961491,0.092614,0.002914,1.010123,1.014364,-0.001786,-0.257449,-0.007284,0,-0.021772323176264763,-0.004388600587844849,-0.06575822830200195,3.0535822998450004,3.0809175255513837
15.073382,0.043806,2.971628,0.07928,0.04346,1.106384,1.110072,-0.095249,-0.30754,0.007377,0,-0.026185419410467148,-0.02259623073041439,-0.06136564165353775,3.0539054567070005,3.078229342253109
15.117197,0.043815,2.982832,0.105706,0.040789,1.111014,1.116776,0.002853,0.08676,0.128397,0,-0.02444133721292019,-0.016028165817260742,-0.04996827244758606,3.0595311712620004,3.0760399823958178
15.160826,0.043628,3.000277,0.039034,0.074537,1.225795,1.228679,-0.105881,0.386084,0.175433,1,-0.02933269925415516,0.008123163133859634,-0.03643040731549263,3.0671849621860003,3.0744505965854576
15.211752,0.050926,3.025452,-0.00938,0.036904,1.126611,1.127254,0.364791,0.127993,0.365718,0,-0.005661167204380035,0.015322687104344368,-0.012276900932192802,3.0858095170540003,3.0738253831285847
15.262332,0.05058,3.046896,-0.0975,0.177724,1.179249,1.196545,0.278965,-0.153921,0.019357,0,0.011433813720941544,0.0051577128469944,-0.010376932099461555,3.0867885941140005,3.073300517902994
15.313057,0.050726,3.057441,-0.041222,0.184037,1.02572,1.042914,0.124416,-0.217146,0.055398,0,0.018219657242298126,-0.008194108493626118,-0.006426412146538496,3.0895987130620006,3.072974531720449
15.356928,0.043871,3.074708,0.062551,0.179667,0.866586,0.887223,0.041949,-0.094362,0.357471,0,0.01964486949145794,-0.013369453139603138,0.015429694205522537,3.1052813233030006,3.0736514478349393
15.401036,0.044107,3.103962,0.113465,0.161457,0.79299,0.817175,-0.185293,0.174724,0.43047,0,0.007336059585213661,-0.0020723389461636543,0.040357500314712524,3.1242680635930005,3.0754314961013205
15.445003,0.043967,3.137233,0.106434,0.010197,0.756191,0.763713,0.011711,-0.039995,0.450323,0,0.007598823867738247,-0.004350018687546253,0.06498050689697266,3.1440674149340007,3.0782884940480595
15.499332,0.05433,-3.115312,0.146922,0.04176,0.869998,0.883304,0.041643,-0.015255,0.312267,0,0.00964355655014515,-0.00500498479232192,0.07983282208442688,3.1610328810440005,3.0826258112719063
15.543094,0.043761,-3.093208,0.16947,0.051229,0.890225,0.907659,-0.065563,0.031477,0.368467,0,0.005126562435179949,-0.002813833998516202,0.09716852754354477,3.1771573654310004,3.0868780032057392
15.58662,0.043527,-3.069565,0.173834,0.041518,0.923855,0.940983,-0.20759,0.099588,0.212696,0,-0.007649444509297609,0.003336540190503001,0.10410724580287933,3.1864153842230003,3.091409479293801
15.630077,0.043457,-3.056161,0.162439,0.038118,0.926535,0.941439,-0.216447,-0.121851,0.056925,0,-0.020190071314573288,-0.004182370379567146,0.10127342492341995,3.188889173948,3.095810518520698
15.674108,0.044031,-3.049366,0.22305,0.042731,0.940426,0.96746,-0.194761,-0.172247,0.032796,0,-0.030675005167722702,-0.014276529662311077,0.09716059267520905,3.190333214624,3.1000885965767804
15.724972,0.050864,-3.042434,0.233475,0.055842,1.024745,1.052488,-0.303495,-0.362532,0.038294,0,-0.04706089571118355,-0.03519316017627716,0.09362499415874481,3.1922810006400004,3.1048507382796706
15.775534,0.050562,-3.042018,0.190805,0.06434,1.117837,1.135829,-0.458655,-0.391242,-0.190475,0,-0.07178172469139099,-0.05657786875963211,0.07656161487102509,3.1826502036900006,3.1087218466507793
15.829739,0.054205,-3.051732,0.187653,0.073323,1.123686,1.141604,-0.625727,-0.065346,-0.220713,0,-0.10505232959985733,-0.05710449442267418,0.05870695412158966,3.1706864555250007,3.1119040570989402
15.873464,0.043725,-3.063812,0.167045,-0.029912,1.106627,1.119564,-0.314491,0.021397,-0.199638,0,-0.1176314651966095,-0.05238960310816765,0.043190453201532364,3.1619572839750005,3.1137925596651774
15.917574,0.04411,-3.082329,0.029336,-0.038837,1.195577,1.196567,0.326307,-0.490202,-0.440624,1,-0.09096799790859222,-0.07868513464927673,0.01413198933005333,3.1425213593350003,3.114415921714526
15.968613,0.051039,-3.116418,0.045337,0.017967,1.005006,1.006188,0.183975,-0.267847,-0.314786,0,-0.07445459812879562,-0.09004642069339752,-0.005623212084174156,3.1264549966810002,3.114128918592962
16.019432,0.050819,-3.135652,0.038064,0.00607,0.918006,0.918815,-0.046295,0.055988,-0.133772,0,-0.07276330143213272,-0.08127541840076447,-0.013319979421794415,3.1196568374130003,3.113452010558726
16.062986,0.043554,3.13185,-0.021722,-0.002653,0.860494,0.860772,0.070381,0.203512,-0.128579,0,-0.0641658827662468,-0.06417074799537659,-0.02024257183074951,3.1140567076470003,3.1125703655852095
16.106515,0.043529,3.120672,0.028124,-0.020022,0.883645,0.884319,0.376119,0.181215,0.210145,0,-0.03772185742855072,-0.04943259060382843,-0.006405224092304707,3.123204109352,3.112291552585696
16.150339,0.043824,3.122435,0.063521,0.022094,0.963821,0.966165,0.140325,0.47382,0.268788,0,-0.027028154581785202,-0.01800542324781418,0.010123205371201038,3.134983474664,3.112735191937883
16.194212,0.043873,3.129342,0.08922,0.007769,0.956266,0.960451,0.06641,0.536433,0.445329,0,-0.02141615003347397,0.015294797718524933,0.03626217693090439,3.154521393881,3.1143261224263727
16.237678,0.043466,3.138713,0.071522,-0.002171,0.94067,0.943387,0.252418,0.19893,0.19243,0,-0.004969347268342972,0.026324143633246422,0.04564180225133896,3.162885556261,3.1163099890030295
16.280766,0.043087,3.137021,0.106919,0.025493,0.918493,0.925047,0.280518,-0.062215,0.092554,0,0.01217735931277275,0.021006379276514053,0.04845940321683884,3.1668734304590003,3.1183979593094335
16.324233,0.043467,3.134444,0.194199,0.030835,0.848552,0.871037,0.300371,0.011395,0.264818,0,0.029486607760190964,0.020429108291864395,0.061454154551029205,3.1783842744650004,3.121069187045303
16.367827,0.043594,3.140111,0.204867,0.063612,0.896317,0.92163,0.169952,-0.0558,0.44655,0,0.03792312368750572,0.015850698575377464,0.08458346128463745,3.1978511751650003,3.124756518456546
16.41167,0.043844,-3.131188,0.209231,0.063126,0.916788,0.942476,0.035256,0.149145,0.452048,0,0.03776293247938156,0.02385651133954525,0.10665380954742432,3.217670767677,3.129432648082343
16.455995,0.044325,-3.11393,0.174804,0.044188,1.051552,1.066898,0.151931,0.071259,0.580635,0,0.04461999982595444,0.02670356072485447,0.1351216733455658,3.243407414052,3.135421916253385
16.499681,0.043686,-3.09709,0.134073,0.051472,1.102241,1.111557,0.082598,-0.009375,0.366221,0,0.046901002526283264,0.02453663945198059,0.14900177717208862,3.259406144658,3.141931207890925
16.543267,0.043586,-3.09348,0.101342,0.071381,1.155123,1.161755,0.019984,-0.100699,0.221446,0,0.04528433457016945,0.017014838755130768,0.15335285663604736,3.269058090014,3.1486152455002636
16.586979,0.043712,-3.090194,0.117101,0.083763,1.134896,1.143992,0.159261,-0.073516,0.387296,0,0.05212990939617157,0.01157744973897934,0.16740375757217407,3.285987572766,3.1559327985512584
16.630748,0.043769,-3.074053,0.131891,0.122853,1.092737,1.107502,0.040754,0.190378,0.67593,0,0.05144665762782097,0.022316422313451767,0.1979464441537857,3.315572352936,3.1645967164654256
16.675339,0.044591,-3.05573,0.037579,0.104644,1.015241,1.021311,0.232871,-0.023119,0.711055,0,0.06234321743249893,0.01958751678466797,0.2287643551826477,3.347279006441,3.174797547827375
16.715827,0.040488,-3.032057,0.062793,0.116298,0.962846,0.971875,0.3245,-0.054273,0.876599,0,0.0780886635184288,0.015151366591453552,0.267674058675766,3.382770746753,3.185635135115039
16.759157,0.04333,-3.004895,0.039519,0.199333,0.968208,0.989303,0.017846,0.148839,0.861328,0,0.0744704157114029,0.023180801421403885,0.30332961678504944,3.420092088993,3.198778407410335
16.802658,0.043501,-2.974662,0.08025,0.14956,0.903628,0.91943,0.159261,0.194654,1.288933,0,0.07956303656101227,0.033479683101177216,0.3625261187553406,3.476161963426,3.2145486561023113
16.846501,0.043843,-2.928226,0.071037,0.168012,0.99014,1.006803,0.161705,0.41029,1.492962,0,0.08449658006429672,0.056111350655555725,0.4304214119911194,3.541617896392,3.233419622068238
16.890632,0.044132,-2.875514,0.033215,0.159515,0.926535,0.940753,0.045946,0.402043,1.254725,0,0.0821811854839325,0.07688841223716736,0.47993004322052,3.5969914200920003,3.254599894735646
16.935049,0.044416,-2.840556,0.064733,0.10343,0.879502,0.887926,0.23623,0.099359,1.244646,0,0.09143353998661041,0.07823802530765533,0.5258597731590271,3.6522736168280003,3.277956482420277
16.97879,0.043741,-2.809915,0.1348,0.127223,0.90509,0.923875,0.022428,0.369056,1.106896,0,0.0872889831662178,0.09570489823818207,0.5607575178146362,3.700690354764,3.3024845770070073
17.022594,0.043805,-2.790597,0.134557,0.087405,0.893149,0.907447,-0.085085,0.476569,0.896147,0,0.07693599909543991,0.11858004331588745,0.5809013843536377,3.739946074099,3.3279309621486184
17.073571,0.050977,-2.773326,0.102555,0.015782,0.918006,0.923851,0.108254,0.076452,0.629199,0,0.07881699502468109,0.11604978144168854,0.5838022232055664,3.772020751522,3.3576914480809688
17.124826,0.051255,-2.777107,0.127284,0.02865,0.969426,0.978166,-0.023998,0.045909,0.515883,0,0.07264180481433868,0.11183704435825348,0.5797229409217834,3.798462334687,3.387405147417915
17.166497,0.041671,-2.785914,0.162196,0.029135,0.996476,1.010011,-0.202982,0.083477,0.473734,0,0.056087516248226166,0.11013370752334595,0.573357105255127,3.818203304201,3.4112975113510013
17.210262,0.043765,-2.799736,0.12486,0.007769,1.015485,1.023161,-0.087528,-0.1682,0.349117,0,0.047461800277233124,0.09341666102409363,0.5598889589309692,3.833482409706,3.4358010516386153
17.253646,0.043384,-2.818421,0.140619,0.02088,1.05472,1.064257,-0.044462,-0.19691,0.267261,0,0.04194074869155884,0.07597929984331131,0.5423133969306946,3.8450772609299997,3.4593287760510565
17.296837,0.043192,-2.84394,0.096251,0.088134,1.109064,1.116716,-0.190154,0.026972,0.103855,0,0.028000865131616592,0.07303586602210999,0.5159790515899658,3.8495629660899997,3.4816149432473305
17.34051,0.043672,-2.871541,0.053338,0.079393,1.093468,1.097643,-0.097302,-0.035642,0.166163,0,0.020475028082728386,0.06650854647159576,0.4949686825275421,3.8568196366259997,3.5032312155506733
17.384433,0.043924,-2.900649,0.018183,0.042246,1.085669,1.086643,0.321708,-0.019065,0.202899,0,0.0385674312710762,0.061368897557258606,0.4774266481399536,3.8657317723019995,3.5242017036435724
17.428369,0.043935,-2.927936,-0.089108,0.093232,1.194358,1.201301,0.71144,-0.485766,0.266735,1,0.078980952501297,0.028507333248853683,0.4647722542285919,3.8774507745269995,3.544621472633106
17.465908,0.037539,-2.957985,-0.060968,0.137663,1.111745,1.121894,0.06435,-0.067393,0.049039,0,0.07810220122337341,0.022747445851564407,0.4398028254508972,3.8792916495479997,3.5611312308977072
17.509717,0.04381,-2.98455,0.02182,0.126495,0.894611,0.903773,-0.395632,0.381898,0.249709,0,0.04964916780591011,0.04431844875216484,0.42838555574417114,3.8902314008379997,3.5798988020948594
17.553095,0.043378,-3.001313,-0.04838,0.037147,0.819309,0.821576,-0.014147,0.198333,0.312322,0,0.04581749439239502,0.05356874316930771,0.42141464352607727,3.9037793045539995,3.5981789265017334
17.596357,0.043262,-3.015377,-0.075779,0.030349,0.927267,0.930853,0.492566,0.048366,0.488251,0,0.07264973223209381,0.053256258368492126,0.42542892694473267,3.9249020193159994,3.6165838327392166
17.640016,0.043659,-3.017227,-0.075779,0.132322,1.090787,1.101394,0.215844,0.296988,0.71305,0,0.0812501460313797,0.0678950697183609,0.4427037835121155,3.9560330692659993,3.635911837223572
17.68484,0.044824,-3.014132,-0.079481,0.126981,1.073485,1.083887,-0.204431,0.539502,0.711217,0,0.06409180164337158,0.09622033685445786,0.4588310122489929,3.987912660073999,3.656478478516621
17.725111,0.040271,-3.008479,-0.169082,0.087891,0.999157,1.017167,0.031668,0.062416,0.683117,0,0.06214439123868942,0.09419000893831253,0.4723019003868103,4.0154224647809995,3.675498548347098
17.768363,0.043252,-3.006305,-0.102437,0.093232,0.963821,0.973723,0.177665,-0.109543,0.755505,0,0.06908269226551056,0.08195356279611588,0.48931142687797546,4.048099567041,3.696662246182424
17.811573,0.043211,-3.004764,-0.064671,0.112899,0.98088,0.989471,-0.026364,0.077688,0.793073,0,0.06335005164146423,0.08169736713171005,0.5075557231903076,4.0823690444439995,3.7185942365372004
17.855325,0.043752,-3.002786,-0.05307,0.038118,0.961628,0.963845,0.099169,0.102428,0.881954,0,0.0655013769865036,0.08294247090816498,0.5300425291061401,4.120956295851999,3.741784657270652
17.899366,0.044041,-3.003424,-0.061709,0.011897,0.998913,1.000888,0.151703,0.148853,0.743593,0,0.07067874819040298,0.08690113574266434,0.5428686141967773,4.153704875164999,3.7656931339084925
17.94352,0.044154,-3.011034,-0.0585,0.005341,1.074703,1.076307,0.028614,0.276524,0.504439,0,0.0681522935628891,0.0982901081442833,0.5405604839324951,4.175977874770999,3.789561041516048
17.994525,0.051005,-3.034802,-0.055538,-0.000482,1.047165,1.048637,0.19874,-0.11107,0.319653,0,0.0759955421090126,0.08571569621562958,0.5272925496101379,4.192281776035999,3.816455598008913
18.038296,0.043772,-3.064589,0.024245,0.037633,1.008905,1.009898,0.111081,-0.170935,0.339506,0,0.07810281217098236,0.07030095160007477,0.5160138607025146,4.207142632667999,3.8390425567195834
18.082051,0.043755,-3.092626,0.082917,0.061184,0.958703,0.964225,-0.060878,-0.176127,0.374936,0,0.06975546479225159,0.055500198155641556,0.5075405836105347,4.223547957347999,3.8612499949554624
18.126077,0.044026,-3.126,0.016244,0.062883,0.908502,0.91082,0.192366,-0.162672,0.125764,0,0.07711959630250931,0.04239651933312416,0.4846106469631195,4.229084843211999,3.8825854632986605
18.177118,0.05104,3.114036,0.023275,0.101487,0.982342,0.987845,0.023067,0.040062,-0.06794,0,0.0738731324672699,0.04225630685687065,0.4514237940311432,4.225617185611999,3.90562613374601
18.220953,0.043835,3.067958,0.021335,0.105615,0.982829,0.988718,-0.167523,0.222405,0.040794,0,0.059374596923589706,0.05307624861598015,0.42676088213920593,4.227405390602,3.9243331970145823
18.264639,0.043687,3.026068,0.016486,0.075508,0.98746,0.99048,-0.007199,0.050003,-0.045374,0,0.05537610873579979,0.05289166420698166,0.39840391278266907,4.225423136663999,3.9417382687523186
18.308258,0.043619,2.984371,0.069824,0.089105,0.969182,0.975771,0.070873,-0.137871,0.035447,0,0.0563068687915802,0.041434235870838165,0.376604288816452,4.226969299356999,3.9581653712262033
18.351996,0.043737,2.951233,0.13577,0.093718,0.952855,0.967031,0.116377,0.055832,0.272183,0,0.05991475284099579,0.04229898378252983,0.37033262848854065,4.238873767227999,3.9743626093984066
18.403293,0.051297,2.92537,0.025214,0.076722,1.00793,1.01116,0.067508,0.053694,0.261187,0,0.06037081032991409,0.04298338294029236,0.363777220249176,4.252271876766999,3.9930232894655284
18.447429,0.044137,2.898023,-0.014563,0.095903,1.024258,1.028841,-0.031469,-0.034319,0.094047,0,0.054854802787303925,0.03834051266312599,0.34757691621780396,4.256422829205999,4.008364291816633
18.491231,0.043802,2.866426,0.051156,0.102944,0.97893,0.985657,-0.081968,0.010355,0.016648,0,0.04663706570863724,0.03665966913104057,0.3277009427547455,4.257152044901999,4.022718248511176
18.542001,0.050769,2.835088,0.12486,0.08692,0.925561,0.937981,0.096623,0.047443,0.166872,0,0.04963928088545799,0.03730732947587967,0.3180413544178009,4.265623969469999,4.038864890033613
18.596269,0.054268,2.807783,0.08922,0.09299,1.058375,1.066192,0.200165,0.012013,0.211771,0,0.058680031448602676,0.035788122564554214,0.3116586208343506,4.277116358097999,4.055777980069052
18.639824,0.043556,2.782626,0.059884,0.107314,1.02767,1.034991,0.034039,0.047547,0.121726,0,0.05720006301999092,0.03649437427520752,0.3002510368824005,4.282418255753999,4.068855714231502
18.689173,0.049348,2.754881,0.006304,0.076965,1.010855,1.0138,-0.081474,-0.00511,-0.029482,0,0.04887113720178604,0.03399556502699852,0.2804468870162964,4.280963378017999,4.082695207211982
18.733776,0.044603,2.722526,0.061581,0.069681,0.96504,0.96951,-0.147744,0.039495,-0.031363,0,0.03706220164895058,0.034325867891311646,0.2617192268371582,4.279564494128999,4.0943686698866
18.777097,0.043321,2.68874,0.05649,0.094204,0.960653,0.966912,0.140504,0.116183,-0.052835,0,0.04327503964304924,0.03924230486154556,0.24282673001289368,4.277275629093999,4.104888166657489
18.831047,0.05395,2.656056,0.047035,0.122125,1.115157,1.12281,-0.192112,0.14917,-0.132553,0,0.029137417674064636,0.04584469273686409,0.2202809751033783,4.270124394743998,4.116772325264316
18.881643,0.050595,2.624496,0.054308,0.085706,1.010855,1.015934,-0.1048,-0.031415,-0.108404,0,0.021092979237437248,0.041204385459423065,0.20053976774215698,4.264639694363998,4.12691863481323
18.92627,0.044627,2.59573,0.076613,0.080607,0.932872,0.939477,0.166239,-0.04786,-0.020172,0,0.029810618609189987,0.03585507348179817,0.18728356063365936,4.263739478519998,4.1352765382736285
18.976756,0.050487,2.574232,0.064248,0.072109,0.939451,0.944403,0.317428,-0.070768,0.0626,0,0.04708525538444519,0.029451167210936546,0.17979492247104645,4.266899964719998,4.144353844524424
19.019971,0.043215,2.557229,0.029578,0.107557,1.039611,1.045578,-0.016726,0.078816,0.01883,0,0.04325267672538757,0.032416075468063354,0.17012718319892883,4.267713703169997,4.151705890746366
19.06358,0.043609,2.542723,0.060369,0.134993,1.065199,1.075415,-0.174874,0.201666,0.00586,0,0.03015173226594925,0.04258142411708832,0.1602611094713211,4.267969251909998,4.158694717469301
19.107193,0.043614,2.527501,0.011395,0.050501,0.87146,0.872996,0.268919,-0.131255,-0.054311,0,0.04449237510561943,0.03214060515165329,0.14737366139888763,4.2656005319559975,4.165122272337553
19.15106,0.043867,2.512724,0.056975,0.125524,1.014023,1.023349,0.125662,0.140319,-0.018263,0,0.0493675172328949,0.038637928664684296,0.13742533326148987,4.264799388934997,4.171150709431735
19.205471,0.054411,2.497852,0.018911,0.100273,0.936771,0.942312,0.207225,0.058233,-0.078716,0,0.05884862318634987,0.03981482982635498,0.12444362789392471,4.260516372658997,4.177921811669071
19.249056,0.043585,2.479586,-0.00938,0.090319,0.949199,0.953533,0.662014,-0.460392,-0.205776,0,0.09507544338703156,0.009771820157766342,0.10461024940013885,4.251547625698997,4.182481249389176
