timestamp,dt,heading_rad,accel_x,accel_y,accel_z,accel_norm,gyro_x_rads,gyro_y_rads,gyro_z_rads,step_event
0.000357,0.000357,1.970846,0.010668,0.042246,1.006955,1.007898,,,,0
0.1315,0.131143,1.971329,0.02376,0.046616,1.005981,1.00734,,,,0
0.158074,0.026574,1.970708,0.01285,0.0539,1.000132,1.001666,,,,0
0.191614,0.03354,1.969773,0.003152,0.039575,0.986972,0.98777,,,,0
0.218834,0.02722,1.969233,0.029578,0.065311,1.047165,1.049617,,,,0
0.245626,0.026792,1.96911,0.026184,0.076722,0.993796,0.997097,,,,0
0.279613,0.033987,1.968754,0.013092,0.081093,0.946031,0.949591,,,,0
0.306214,0.026601,1.968307,0.016001,0.056813,0.998182,0.999926,,,,0
0.33972,0.033506,1.96762,0.027396,0.050258,0.991602,0.993253,,,,0
0.366559,0.026839,1.966621,0.027396,0.051715,1.054476,1.056099,,,,0
0.393227,0.026668,1.966162,0.031518,0.063854,1.030594,1.033051,,,,0
0.424197,0.03097,1.965941,0.027881,0.052686,0.979661,0.981473,,,,0
0.45099,0.026793,1.965781,0.03176,0.051472,0.980149,0.982013,,,,0
0.477738,0.026749,1.966223,0.032245,0.042489,1.014266,1.015668,,,,0
0.511404,0.033666,1.966682,0.018911,0.04346,1.009636,1.010748,,,,0
0.538012,0.026608,1.967295,0.018426,0.046131,1.031325,1.032521,,,,0
0.564631,0.02662,1.969983,0.044368,0.062883,0.973813,0.976849,,,,0
0.598234,0.033603,1.971052,0.045822,0.0539,0.985023,0.98756,,,,0
0.625187,0.026953,1.970546,0.001212,0.024036,0.994527,0.994818,,,,0
0.651768,0.026581,1.969742,0.028366,0.034962,1.000132,1.001145,,,,0
0.685337,0.033568,1.968475,0.027881,0.046859,0.996233,0.997724,,,,0
0.71195,0.026613,1.966686,0.030306,0.042731,0.999401,1.000773,,,,0
0.73853,0.02658,1.964815,0.036367,0.047102,0.994771,0.996549,,,,0
0.772106,0.033576,1.963913,0.04364,0.058027,1.000132,1.002764,,,,0
0.79871,0.026605,1.963357,0.028124,0.0522,0.997695,0.999455,,,,0
0.825363,0.026652,1.96282,0.023275,0.038361,0.99209,0.993104,,,,0
0.851928,0.026565,1.963249,0.021578,0.045888,0.986485,0.987787,,,,0
0.885778,0.03385,1.963718,0.012607,-0.017609,0.988434,0.988672,,,,0
0.912467,0.026689,1.963514,0.024245,0.060941,0.999157,1.001307,,,,0
0.939532,0.027065,1.963583,0.028851,0.021851,0.994527,0.995185,,,,0
0.966172,0.02664,1.964226,0.051883,0.044431,1.000376,1.002705,,,,0
0.992802,0.02663,1.96411,0.030306,0.04176,1.002081,1.003409,,,,0
1.019429,0.026627,1.963418,0.028851,0.041275,1.01256,1.013812,,,,0
1.053167,0.033738,1.962357,0.026669,0.038118,0.996964,0.998049,,,,0
1.079872,0.026704,1.962381,0.020365,0.03132,0.999401,1.000099,,,,0
1.106585,0.026713,1.962282,0.036609,0.052443,0.999401,1.001445,,,,0
1.140219,0.033634,1.962194,0.038549,0.038118,0.99209,0.99357,,,,0
1.166857,0.026638,1.961488,0.032973,0.034962,0.98746,0.988628,,,,0
1.193475,0.026618,1.960193,0.025699,0.031077,0.999157,0.999971,,,,0
1.227093,0.033618,1.958899,0.029821,0.026707,0.99867,0.999472,,,,0
1.253663,0.02657,1.957315,0.03564,0.025493,0.936527,0.937552,,,,0
1.288348,0.034685,1.956438,0.039761,0.030349,0.997939,0.999191,,,,0
1.315164,0.026816,1.955046,0.036852,0.032777,1.057644,1.058794,,,,0
1.34884,0.033676,1.95406,0.030548,0.032534,1.005493,1.006483,,,,0
1.375866,0.027026,1.953026,0.028124,0.031077,0.985023,0.985914,,,,0
1.409685,0.033819,1.952095,0.025699,0.043945,0.983317,0.984634,,,,0
1.436382,0.026698,1.950842,0.030306,0.042003,1.002813,1.004149,,,,0
1.462985,0.026602,1.950778,0.036367,0.039818,1.008905,1.010345,,,,0
1.496913,0.033929,1.950153,0.038791,0.060213,0.995989,0.998561,,,,0
1.523714,0.026801,1.94901,0.028851,0.049044,0.99867,1.000289,,,,0
1.557367,0.033653,1.948101,0.02376,0.042489,1.0033,1.00448,,,,0
1.583848,0.026482,1.947499,0.029336,0.048801,0.999401,1.001022,,,,0
1.610376,0.026528,1.946753,0.028366,0.03909,0.99209,0.993265,,,,0
1.63686,0.026484,1.945768,0.032973,0.032534,1.055938,1.056954,,,,0
1.670425,0.033566,1.946257,0.027881,0.048073,1.011586,1.013111,,,,0
1.696933,0.026508,1.947725,0.010668,0.048559,0.99672,0.997959,,,,0
1.72346,0.026527,1.948969,0.015517,0.091047,0.999157,1.003417,,,,0
1.749994,0.026534,1.949754,0.010668,0.062883,0.981367,0.983438,,,,0
1.783524,0.03353,1.949941,0.013092,0.034477,0.999401,1.000081,,,,0
1.810067,0.026543,1.950762,0.047277,0.046859,0.981367,0.983622,,,,0
1.836576,0.026508,1.951563,0.033458,0.057542,0.977712,0.979975,,,,0
1.863271,0.026695,1.951611,0.015759,0.053657,1.001107,1.002667,,,,0
1.896854,0.033583,1.951732,0.019638,0.055357,1.000132,1.001855,,,,0
1.923536,0.026682,1.951712,0.026911,0.059727,0.986485,0.988658,,,,0
1.950215,0.026679,1.95279,0.023032,0.055842,0.981367,0.983225,,,,0
1.98375,0.033535,1.953355,0.023032,0.06871,0.996476,0.999108,,,,0
2.010279,0.02653,1.953802,0.019153,0.04953,0.995014,0.99643,,,,0
2.037144,0.026865,1.954553,0.029094,0.047102,1.005737,1.007259,,,,0
2.070972,0.033828,1.95521,0.022063,0.045159,1.004031,1.005288,,,,0
2.097543,0.026571,1.955958,0.031276,0.043217,0.940182,0.941695,,,,0
2.124272,0.026729,1.957264,0.043883,0.052929,1.053989,1.056229,,,,0
2.157841,0.03357,1.958622,0.026184,0.053414,1.010855,1.012603,,,,0
2.184518,0.026677,1.961053,-0.015551,0.130137,1.096636,1.10444,,,,0
2.211066,0.026547,1.962129,0.037094,0.068953,0.996476,0.999548,,,,0
2.244566,0.0335,1.962272,0.054308,0.061912,0.979174,0.982631,,,,0
2.271073,0.026507,1.962298,0.041943,0.058027,0.983804,0.986406,,,,0
2.305749,0.034677,1.962193,0.024487,0.047102,0.995989,0.997403,,,,0
2.332543,0.026794,1.960917,0.037822,0.082792,1.054476,1.058397,,,,0
2.366333,0.03379,1.960318,0.039519,0.039332,1.002813,1.004361,,,,0
2.392888,0.026555,1.959063,0.040973,0.032777,0.990384,0.991773,,,,0
2.419659,0.026772,1.9568,0.029094,0.043217,1.004518,1.005868,,,,0
2.453452,0.033792,1.955376,0.0337,0.046616,1.008417,1.010057,,,,0
2.479974,0.026522,1.95478,0.025457,0.055842,1.003544,1.005418,,,,0
2.506881,0.026907,1.953318,0.038549,0.059241,0.997451,0.999952,,,,0
2.540467,0.033587,1.953353,0.041458,0.038118,0.959435,0.961086,,,,0
2.566988,0.026521,1.954088,0.039519,0.072109,0.954317,0.957853,,,,0
2.59473,0.027741,1.956782,0.057217,0.583916,0.917275,1.088864,,,,0
2.631265,0.036536,1.959718,0.056975,-0.048486,0.811023,0.814466,,,,0
2.662976,0.031711,1.964157,-0.004443,0.071624,1.031569,1.034062,,,,0
2.706661,0.043685,1.967563,0.105222,0.016267,1.005493,1.011115,,,,0
2.744852,0.038191,1.970157,0.065218,0.042246,0.977955,0.981038,,,,0
2.785536,0.040684,1.972302,0.040488,0.054871,0.970888,0.97328,,,,0
2.82312,0.037583,1.971333,0.006304,0.063126,0.997207,0.999223,,,,0
2.867852,0.044733,1.97219,0.026184,0.080607,0.990871,0.994489,,,,0
2.901574,0.033722,1.975823,0.038064,0.091047,0.993796,0.998683,,,,0
2.932501,0.030926,1.978159,0.019638,0.094446,0.946762,0.951664,,,,0
2.964789,0.032288,1.980081,0.010425,0.094204,1.011829,1.016259,,,,0
2.992298,0.027509,1.982617,0.027396,0.076237,0.99209,0.995392,,,,0
3.019994,0.027696,1.989109,0.041458,0.08085,0.979905,0.984108,,,,0
3.054441,0.034447,1.998484,0.037094,0.080364,0.976493,0.980497,,,,0
3.088921,0.03448,2.006312,0.026184,0.077694,0.992821,0.9962,,,,0
3.115608,0.026688,2.017694,0.006788,0.07041,0.936771,0.939438,,,,0
3.149226,0.033617,2.027225,-0.047639,0.043217,1.00135,1.003414,,,,0
3.184029,0.034803,2.038726,-0.036285,0.039818,1.002569,1.004015,,,,0
3.22807,0.044041,2.048959,-0.00469,0.04176,0.999644,1.000527,,,,0
3.255614,0.027544,2.060202,-0.035791,0.032534,0.999157,1.000327,,,,0
3.290094,0.03448,2.068878,-0.072076,-0.047039,1.001594,1.005285,,,,0
3.324407,0.034312,2.077351,-0.068373,0.021366,1.024745,1.027246,,,,0
3.357269,0.032862,2.085908,-0.052329,0.013111,1.009636,1.011076,,,,0
3.392619,0.03535,2.090987,-0.067139,-0.005548,1.001838,1.0041,,,,0
3.425252,0.032634,2.094964,-0.082443,0.055599,1.004275,1.009186,,,,0
3.453412,0.028159,2.099223,-0.061709,-0.013509,0.993308,0.995315,,,,0
3.482336,0.028924,2.101881,-0.079728,0.059727,0.992821,0.997806,,,,0
3.515416,0.033081,2.104883,-0.052329,0.001214,0.976737,0.978138,,,,0
3.549515,0.034098,2.10709,-0.000247,0.035691,0.977224,0.977876,,,,0
3.576895,0.02738,2.108933,0.007031,0.064097,0.990384,0.992481,,,,0
3.607875,0.030981,2.111795,0.037337,0.003156,0.970645,0.971368,,,,0
3.63659,0.028715,2.124346,0.040973,0.058027,0.985754,0.98831,,,,0
3.675555,0.038965,2.134318,0.023032,0.050258,0.99209,0.993629,,,,0
3.70424,0.028685,2.144149,-0.000741,0.039818,0.98088,0.981688,,,,0
3.733335,0.029095,2.154305,-0.00543,0.067011,1.019871,1.022085,,,,0
3.764961,0.031626,2.162032,0.023517,0.064826,1.03035,1.032655,,,,0
3.79248,0.027518,2.172664,0.052368,0.043703,1.024502,1.02677,,,,0
3.82093,0.02845,2.188191,0.023275,0.019909,1.016947,1.017408,,,,0
3.85818,0.037251,2.198687,0.028124,0.031806,1.006712,1.007607,,,,0
3.886482,0.028301,2.205873,0.00897,0.033505,0.983073,0.983685,,,,0
3.913432,0.026951,2.214629,0.005819,-0.000241,0.955048,0.955066,,,,0
3.947113,0.033681,2.219188,0.012607,0.009469,0.952124,0.952254,,,,0
3.97372,0.026607,2.222069,0.046792,0.003399,0.932872,0.93405,,,,0
4.000301,0.026581,2.227403,0.085583,-0.009408,0.931897,0.935866,,,,0
4.033919,0.033618,2.230938,0.087038,-0.001689,0.946762,0.950756,,,,0
4.060817,0.026899,2.229541,0.071764,0.019909,0.978443,0.981273,,,,0
4.087441,0.026623,2.230177,0.155893,0.016995,1.006955,1.019093,,,,0
4.121115,0.033674,2.233227,0.179168,0.021851,1.012317,1.028282,,,,0
4.147722,0.026608,2.236648,0.15662,0.013596,0.999888,1.012171,,,,0
4.174319,0.026597,2.236901,0.08825,-0.027259,1.019628,1.023802,,,,0
4.2082,0.03388,2.235567,0.127042,-0.030153,1.076653,1.084541,,,,0
4.234817,0.026617,2.233507,0.110798,-0.0275,1.15561,1.161235,,,,0
4.261457,0.02664,2.227898,0.085583,0.002428,1.18193,1.185027,,,,1
4.295392,0.033936,2.220986,0.104737,-0.060789,1.152442,1.158787,,,,0
4.322281,0.026889,2.215967,0.063521,-0.057653,1.121249,1.124526,,,,0
4.356012,0.033731,2.214177,-0.031842,-0.042456,1.160728,1.161941,,,,0
4.382814,0.026802,2.212944,-0.091823,-0.03353,1.238711,1.242562,,,,0
4.409628,0.026814,2.206552,-0.153038,0.030592,1.268686,1.278249,,,,0
4.436412,0.026784,2.195809,-0.091576,0.003642,1.191678,1.195197,,,,0
4.463046,0.026634,2.186371,-0.015797,-0.04728,0.960166,0.961459,,,,0
4.489627,0.026581,2.176962,-0.015304,-0.065855,0.827595,0.830352,,,,0
4.523294,0.033667,2.167994,-0.003949,-0.104451,0.835636,0.842148,,,,0
4.550125,0.026831,2.159636,-0.020487,-0.106863,0.841729,0.848733,,,,0
4.576754,0.026629,2.154469,-0.002468,-0.106381,0.859519,0.866081,,,,0
4.610358,0.033604,2.149558,-0.023943,-0.069473,0.862687,0.865811,,,,0
4.636999,0.026641,2.145003,-0.02419,-0.069473,0.844653,0.847851,,,,0
4.663602,0.026603,2.141937,-0.002222,-0.058377,0.834418,0.836461,,,,0
4.697438,0.033836,2.139982,-0.001975,-0.038837,0.854157,0.855042,,,,0
4.724106,0.026668,2.138055,-0.000987,-0.000724,0.933603,0.933603,,,,0
4.750845,0.026739,2.13656,0.059157,0.018452,0.881208,0.883384,,,,0
4.784388,0.033543,2.137107,0.084371,-0.0,0.87609,0.880143,,,,0
4.810937,0.026549,2.140082,0.096493,0.000486,0.899485,0.904646,,,,0
4.83747,0.026533,2.143974,0.120738,-0.004583,0.914594,0.922541,,,,0
4.871023,0.033553,2.145726,0.102797,-0.059342,0.960409,0.967716,,,,0
4.897537,0.026514,2.146249,0.113707,-0.05307,1.024745,1.032399,,,,0
4.924114,0.026578,2.144668,0.12486,-0.030636,1.176081,1.183087,,,,1
4.950667,0.026552,2.136329,0.082189,-0.007237,1.169014,1.171922,,,,0
4.984199,0.033532,2.12722,0.094796,-0.002412,1.204106,1.207834,,,,0
5.010832,0.026634,2.117951,0.062793,-0.009649,1.209711,1.211378,,,,0
5.03741,0.026578,2.108722,-0.005924,-0.053793,1.229694,1.230885,,,,0
5.071196,0.033786,2.107216,-0.063684,-0.073333,1.338139,1.34166,,,,0
5.097767,0.026571,2.108673,-0.219931,-0.011579,1.424895,1.441815,,,,0
5.124431,0.026664,2.105861,-0.231779,0.060455,1.236761,1.259744,,,,0
5.157999,0.033568,2.098074,-0.120456,-0.025329,0.93214,0.940232,,,,0
5.184523,0.026524,2.093703,-0.038753,-0.058135,0.782511,0.785624,,,,0
5.211064,0.026541,2.094916,-0.047146,-0.037872,0.825401,0.827614,,,,0
5.23791,0.026846,2.100235,-0.053317,0.041032,0.981367,0.983671,,,,0
5.271422,0.033512,2.102446,-0.008146,0.102458,0.946275,0.95184,,,,0
5.297985,0.026562,2.103552,-0.001975,0.085463,0.8293,0.833695,,,,0
5.324893,0.026909,2.105173,0.019153,0.036419,0.806149,0.807199,,,,0
5.358567,0.033674,2.105332,0.04267,0.000486,0.741082,0.74231,,,,0
5.385238,0.026671,2.103007,0.044368,-0.002895,0.745469,0.746793,,,,0
5.412043,0.026804,2.09656,0.085099,-0.002895,0.810779,0.815238,,,,0
5.445643,0.0336,2.091298,0.144983,-0.026294,0.77983,0.793628,,,,0
5.472897,0.027253,2.084049,0.142073,-0.040285,0.82467,0.837788,,,,0
5.506571,0.033674,2.076122,0.107161,-0.047763,0.90509,0.912663,,,,0
5.533182,0.026611,2.064884,0.150559,-0.040043,0.951392,0.964064,,,,0
5.559946,0.026764,2.048312,0.193472,-0.059583,1.054476,1.073733,,,,0
5.593539,0.033593,2.035701,0.171167,-0.068508,1.056182,1.072153,,,,0
5.620085,0.026545,2.020938,0.085826,-0.075504,1.219215,1.224562,,,,1
5.646655,0.02657,1.995779,0.043155,-0.073815,1.249678,1.252599,,,,0
5.680181,0.033527,1.976455,0.145952,-0.037149,1.264056,1.272996,,,,0
5.70713,0.026948,1.959978,0.156863,-0.075504,1.235299,1.247506,,,,0
5.734279,0.02715,1.95317,0.04267,-0.141358,1.296955,1.305333,,,,0
5.764354,0.030075,1.946727,-0.182165,-0.105416,1.352517,1.368795,,,,0
5.790875,0.026521,1.934449,-0.17081,-0.040285,1.288182,1.300081,,,,0
5.817359,0.026484,1.918444,-0.05776,-0.031842,1.097123,1.099104,,,,0
5.843882,0.026523,1.902523,0.000485,-0.019298,0.928485,0.928686,,,,0
5.870425,0.026544,1.888595,0.016486,-0.074298,0.824426,0.827932,,,,0
5.903975,0.03355,1.878066,0.017456,-0.036184,0.8042,0.805202,,,,0
5.930578,0.026603,1.864159,0.01285,-0.035943,0.79567,0.796585,,,,0
5.957191,0.026613,1.844227,0.017214,-0.060065,0.765208,0.767755,,,,0
5.990713,0.033523,1.829487,0.019881,-0.095767,0.763259,0.7695,,,,0
6.017298,0.026584,1.817944,0.073461,-0.113135,0.811267,0.822405,,,,0
6.043863,0.026565,1.812946,0.092129,-0.08853,0.876821,0.886082,,,,0
6.070931,0.027068,1.81045,0.14377,-0.029671,0.921418,0.933039,,,,0
6.097467,0.026536,1.810127,0.184259,-0.002895,0.934577,0.952573,,,,0
6.124154,0.026687,1.81274,0.173591,-0.042697,0.939695,0.956548,,,,0
6.15085,0.026696,1.812373,0.051641,-0.055241,0.958703,0.961681,,,,0
6.18441,0.033561,1.811349,-0.0,-0.062236,1.021577,1.023471,,,,0
6.210946,0.026536,1.811165,0.064006,-0.026535,1.09956,1.101741,,,,0
6.237693,0.026747,1.810095,0.032003,0.00607,1.168039,1.168493,,,,0
6.264224,0.026531,1.802323,0.017699,0.115569,1.180955,1.186728,,,,1
6.297839,0.033615,1.797307,0.013819,0.08522,1.161947,1.165149,,,,0
6.324429,0.026589,1.793606,0.059399,0.078422,1.138552,1.142794,,,,0
6.351432,0.027004,1.793918,0.070309,0.080122,1.147568,1.152509,,,,0
6.385282,0.03385,1.804074,0.038306,0.011411,1.23798,1.238625,,,,0
6.412074,0.026792,1.82396,-0.050108,0.008983,1.127829,1.128977,,,,0
6.445644,0.03357,1.834922,-0.088861,0.002671,1.109795,1.11335,,,,0
6.472167,0.026523,1.840471,-0.049861,-0.000965,1.007443,1.008676,,,,0
6.498674,0.026507,1.851179,0.013335,-0.010373,0.977712,0.977858,,,,0
6.532484,0.033811,1.863822,0.082674,0.043217,0.97893,0.983365,,,,0
6.559228,0.026744,1.8772,0.074431,0.062398,0.88072,0.88606,,,,0
6.585808,0.02658,1.894593,0.042186,0.019909,0.788116,0.789495,,,,0
6.619359,0.033551,1.907247,0.047762,-0.023399,0.738401,0.740314,,,,0
6.645875,0.026516,1.917834,0.022063,-0.059583,0.72841,0.731176,,,,0
6.672388,0.026512,1.925205,-0.007899,-0.044144,0.788359,0.789634,,,,0
6.698888,0.026501,1.926997,0.034912,-0.014956,0.833931,0.834795,,,,0
6.732668,0.03378,1.930674,0.118798,-0.004101,0.901191,0.908997,,,,0
6.759214,0.026546,1.935135,0.093342,-0.015438,0.931897,0.936687,,,,0
6.785759,0.026545,1.938652,0.082917,-0.024364,0.956754,0.960649,,,,0
6.812268,0.026509,1.937616,0.085826,-0.01375,1.060325,1.063882,,,,0
6.845758,0.03349,1.93608,0.150801,-0.002895,1.025964,1.036991,,,,0
6.872302,0.026544,1.933512,0.17941,-0.024846,1.018653,1.03463,,,,0
6.898847,0.026546,1.931995,0.165106,-0.044868,1.115401,1.128446,,,,0
6.932528,0.033681,1.931704,0.108373,-0.020504,1.149031,1.154312,,,,0
6.959108,0.02658,1.928526,0.074916,0.022337,1.195089,1.197643,,,,1
6.985614,0.026506,1.923652,0.070794,-0.011579,1.177056,1.17924,,,,0
7.012126,0.026512,1.920522,0.046307,-0.055482,1.158047,1.1603,,,,0
7.045945,0.033818,1.923198,-0.046899,-0.095525,1.232619,1.237204,,,,0
7.072708,0.026764,1.926711,-0.170563,-0.019781,1.29403,1.305373,,,,0
7.099273,0.026564,1.928401,-0.152791,0.038361,1.275022,1.284717,,,,0
7.133041,0.033768,1.927388,-0.069854,0.098574,1.118325,1.124832,,,,0
7.159616,0.026575,1.925868,-0.065905,0.062155,0.88925,0.893852,,,,0
7.186152,0.026536,1.929817,-0.03826,0.009712,0.838561,0.839489,,,,0
7.219684,0.033532,1.937298,-0.043443,0.04346,0.881695,0.883834,,,,0
7.24648,0.026796,1.949558,-0.003209,0.06604,0.924342,0.926704,,,,0
7.273121,0.026641,1.972319,-0.027892,0.069924,0.930678,0.933718,,,,0
7.30668,0.03356,1.990232,-0.072323,0.045888,0.88072,0.884876,,,,0
7.333222,0.026542,2.006693,-0.075285,0.031077,0.849771,0.853665,,,,0
7.360407,0.027185,2.026412,-0.057266,0.03739,0.845628,0.848389,,,,0
7.394222,0.033815,2.043724,0.001455,0.049044,0.857326,0.858728,,,,0
7.420985,0.026762,2.067436,0.030548,0.060455,0.869023,0.871659,,,,0
7.454613,0.033629,2.08782,0.040973,0.021123,0.871947,0.873165,,,,0
7.481183,0.02657,2.109217,0.028366,0.008255,0.908746,0.909226,,,,0
7.507752,0.026569,2.133641,0.02182,-0.016403,0.954073,0.954464,,,,0
7.54155,0.033798,2.149755,0.048974,-0.02943,1.003544,1.005169,,,,0
7.568396,0.026845,2.165824,0.10207,-0.035219,1.062518,1.067991,,,,0
7.594952,0.026557,2.189285,0.117829,-0.02171,1.095417,1.10195,,,,0
7.628565,0.033613,2.206346,0.098191,-0.025811,1.082745,1.087495,,,,0
7.655122,0.026557,2.223231,0.061096,-0.042938,1.087375,1.089936,,,,0
7.681617,0.026495,2.239634,0.045337,0.013596,1.136846,1.137831,,,,0
7.708126,0.026509,2.262195,0.048004,0.052443,1.243585,1.245616,,,,1
7.741973,0.033847,2.281683,0.007031,0.016995,1.196308,1.196449,,,,0
7.768516,0.026542,2.305931,-0.034557,0.004613,1.163896,1.164418,,,,0
7.795046,0.02653,2.341179,-0.099722,0.038604,1.150005,1.154966,,,,0
7.828598,0.033553,2.365426,-0.115025,0.061427,1.064468,1.072425,,,,0
7.855105,0.026506,2.387521,-0.084665,0.084492,0.996233,1.003388,,,,0
7.881624,0.026519,2.409751,-0.019006,0.093718,0.932384,0.937275,,,,0
7.908165,0.026541,2.445236,0.027639,0.11217,0.903628,0.910983,,,,0
7.941825,0.03366,2.473456,0.00897,0.109257,0.906309,0.912914,,,,0
7.968386,0.026561,2.502683,-0.03357,0.088134,0.928972,0.933747,,,,0
7.994905,0.026519,2.534936,-0.071089,0.058756,0.92946,0.934024,,,,0
8.028517,0.033612,2.553132,-0.03357,0.009226,0.889006,0.889688,,,,0
8.055358,0.026841,2.569635,0.018911,-0.033048,0.893149,0.89396,,,,0
8.081933,0.026574,2.592515,0.061339,-0.032324,0.94067,0.943222,,,,0
8.11549,0.033557,2.606362,0.057702,-0.012061,1.011098,1.012815,,,,0
8.14217,0.026681,2.616356,0.053096,-0.037872,0.988678,0.990827,,,,0
8.168783,0.026612,2.625764,0.069824,-0.055,0.941157,0.945345,,,,0
8.202379,0.033596,2.630332,0.119041,-0.034013,0.948956,0.956998,,,,0
8.228902,0.026524,2.634285,0.141104,-0.041491,0.948956,0.960286,,,,0
8.25572,0.026817,2.638535,0.095039,-0.048969,0.976981,0.982813,,,,0
8.282255,0.026536,2.647549,0.07734,-0.038114,1.118325,1.121644,,,,0
8.315794,0.033539,2.652614,0.143043,0.0017,1.208736,1.217172,,,,1
8.342526,0.026732,2.655581,0.108616,-0.010131,1.210442,1.215348,,,,0
8.376737,0.03421,2.654608,0.03467,-0.063925,1.186804,1.18903,,,,0
8.403494,0.026757,2.648463,-0.016044,-0.049693,1.156829,1.158007,,,,0
8.43021,0.026717,2.636237,-0.007405,-0.097214,1.106871,1.111157,,,,0
8.463875,0.033664,2.627683,-0.0195,-0.101556,1.069342,1.07433,,,,0
8.490365,0.02649,2.624488,-0.067139,-0.089254,1.178762,1.184041,,,,0
8.516897,0.026533,2.622258,-0.101943,-0.046315,1.063737,1.069614,,,,0
8.550827,0.033929,2.614284,-0.102684,-0.06682,0.995745,1.003254,,,,0
8.577403,0.026576,2.60677,-0.070101,-0.13581,0.820771,0.834879,,,,0
8.603899,0.026496,2.603469,-0.056772,-0.130021,0.928972,0.939744,,,,0
8.637455,0.033557,2.6014,-0.02493,-0.051864,0.936283,0.93805,,,,0
8.663989,0.026534,2.601845,-0.021968,-0.027982,0.969182,0.969835,,,,0
8.691234,0.027245,2.608724,-0.040728,-0.047522,0.881451,0.883671,,,,0
8.725759,0.034524,2.614147,-0.057019,-0.071403,0.870241,0.875026,,,,0
8.760114,0.034355,2.619267,-0.012835,-0.06489,0.856594,0.859145,,,,0
8.795453,0.035339,2.62313,-0.008639,-0.069956,0.912645,0.915363,,,,0
8.827216,0.031763,2.626084,-0.009873,-0.041491,0.975518,0.97645,,,,0
8.855371,0.028155,2.628064,0.001455,-0.039079,0.988191,0.988964,,,,0
8.883253,0.027882,2.634942,0.048247,-0.035701,0.992577,0.99439,,,,0
8.917185,0.033931,2.642843,0.093342,-0.047522,0.93214,0.938007,,,,0
8.948869,0.031685,2.645576,0.108616,-0.001206,0.896804,0.903359,,,,0
8.977007,0.028138,2.649621,0.11298,-0.079846,0.913132,0.923553,,,,0
9.005213,0.028206,2.655264,0.105949,-0.107104,0.968451,0.980099,,,,0
9.037085,0.031872,2.655607,0.10013,-0.085876,1.100535,1.108412,,,,0
9.073798,0.036712,2.653187,0.063521,-0.044627,1.185829,1.188367,,,,1
9.105215,0.031417,2.647312,0.040731,-0.032083,1.19119,1.192318,,,,0
9.1332,0.027985,2.639473,-0.003209,-0.077675,1.123443,1.126129,,,,0
9.161132,0.027932,2.636301,-0.000494,-0.110481,1.142938,1.148266,,,,0
9.192539,0.031407,2.641188,-0.113544,-0.057171,1.302316,1.308506,,,,0
9.220404,0.027865,2.646315,-0.141684,0.033263,1.214585,1.223273,,,,0
9.248836,0.028432,2.648636,-0.126133,0.067496,1.008661,1.018756,,,,0
9.280271,0.031435,2.654386,-0.075779,-0.030877,0.852452,0.85637,,,,0
9.315134,0.034862,2.663535,-0.084665,-0.00796,0.968695,0.97242,,,,0
9.349978,0.034844,2.674503,-0.087133,0.024279,1.014997,1.01902,,,,0
9.385618,0.03564,2.683659,-0.07726,-0.016645,0.896073,0.899552,,,,0
9.413799,0.028182,2.692808,-0.112063,-0.048245,0.883888,0.892269,,,,0
9.445398,0.031598,2.694122,-0.110829,-0.056447,0.909964,0.918425,,,,0
9.47322,0.027822,2.695256,-0.027646,-0.026052,0.964796,0.965543,,,,0
9.50791,0.03469,2.692913,-0.027399,-0.018092,0.987947,0.988492,,,,0
9.542808,0.034898,2.687936,-0.010367,-0.025087,0.981124,0.981499,,,,0
9.578148,0.035341,2.684181,0.005819,-0.028223,1.053014,1.053408,,,,0
9.609612,0.031464,2.678621,-0.002715,-0.016403,1.03035,1.030484,,,,0
9.637496,0.027883,2.67134,-0.039247,-0.014474,1.049602,1.050435,,,,0
9.665377,0.027882,2.662759,-0.042456,-0.016645,1.020115,1.021134,,,,0
9.697123,0.031745,2.651524,-0.046405,0.060698,0.993796,0.996728,,,,0
9.725048,0.027925,2.63957,-0.011601,-0.023399,0.956023,0.956379,,,,0
9.75295,0.027902,2.627281,-0.011354,-0.038837,0.977468,0.978305,,,,0
9.78445,0.031499,2.616591,-0.033816,-0.031359,1.000619,1.001682,,,,0
9.812505,0.028056,2.603907,-0.013082,0.011411,1.018897,1.019044,,,,0
9.847413,0.034907,2.591826,-0.031348,-0.000482,0.938964,0.939487,,,,0
9.882382,0.034969,2.579723,-0.040234,-0.025087,0.948956,0.950139,,,,0
9.917348,0.034966,2.572094,0.037094,-0.034013,0.946031,0.947369,,,,0
9.949106,0.031758,2.566729,0.049944,-0.031118,0.970157,0.97194,,,,0
9.976965,0.027859,2.562101,0.036124,-0.033772,0.999644,1.000867,,,,0
10.004789,0.027824,2.557639,0.057945,-0.026535,1.035955,1.037914,,,,0
10.036289,0.0315,2.554229,0.062793,-0.024846,1.044728,1.046909,,,,0
10.064801,0.028512,2.54985,0.048004,-0.044144,1.033518,1.035574,,,,0
10.099749,0.034948,2.543752,0.036124,-0.040767,1.017922,1.019378,,,,0
10.134963,0.035214,2.538927,0.066673,-0.040285,1.012317,1.015309,,,,0
10.166509,0.031546,2.528941,0.037822,-0.061271,1.024989,1.027515,,,,0
10.194401,0.027892,2.515665,0.041216,-0.024605,1.037418,1.038527,,,,0
10.222559,0.028158,2.502322,0.040246,0.013839,1.008905,1.009802,,,,0
10.253878,0.031319,2.495602,0.060127,0.035933,0.984779,0.987267,,,,0
10.28176,0.027883,2.49,0.081947,-0.012544,0.973325,0.976849,,,,0
10.309661,0.0279,2.484165,0.067158,-0.015197,0.969426,0.971868,,,,0
10.34116,0.031499,2.483277,0.070309,-0.044386,0.953342,0.956961,,,,0
10.369311,0.028151,2.485759,0.086311,-0.034737,0.973569,0.978004,,,,0
10.401582,0.032271,2.487666,0.058914,-0.0275,0.993065,0.995191,,,,0
10.429828,0.028246,2.491128,0.098433,-0.040043,1.008174,1.013759,,,,0
10.46487,0.035042,2.493474,0.064976,-0.030394,1.025964,1.028468,,,,0
10.499287,0.034417,2.495276,0.069824,-0.042215,1.014997,1.018272,,,,0
10.526634,0.027347,2.497177,0.065703,-0.016162,1.006955,1.009226,,,,0
10.558164,0.03153,2.497775,0.064248,-0.017368,0.998913,1.001128,,,,0
10.586291,0.028127,2.498382,0.043883,-0.028223,1.001594,1.002952,,,,0
10.621554,0.035263,2.497634,0.049217,-0.026294,0.998426,0.999984,,,,0
10.65679,0.035237,2.491633,0.049944,-0.009167,0.998913,1.000203,,,,0
10.68821,0.03142,2.488609,0.150801,0.055357,1.023283,1.035815,,,,0
10.716251,0.028041,2.485238,0.023032,-0.018816,0.991359,0.991805,,,,0
10.744073,0.027822,2.483318,0.044368,-0.030153,0.997695,0.999136,,,,0
10.775479,0.031406,2.482163,0.03467,-0.025329,0.998182,0.999105,,,,0
10.803258,0.027779,2.48192,0.054793,-0.000241,1.005981,1.007472,,,,0
10.831062,0.027804,2.478173,0.008486,0.008012,1.005006,1.005074,,,,0
10.862406,0.031344,2.477914,0.03273,-0.031601,0.999401,1.000436,,,,0
10.890276,0.02787,2.477639,0.054065,0.009954,1.02109,1.022569,,,,0
10.918089,0.027812,2.476286,0.0337,0.017724,1.039123,1.039821,,,,0
10.94952,0.031431,2.476406,0.02376,-0.001206,1.016947,1.017225,,,,0
10.977399,0.02788,2.478589,0.04461,0.000243,0.937502,0.938563,,,,0
11.005221,0.027821,2.483462,0.030063,0.007041,0.997939,0.998416,,,,0
11.036695,0.031474,2.485713,0.015274,0.003156,0.990871,0.990994,,,,0
11.065015,0.02832,2.49077,0.013092,-0.014474,0.936771,0.936974,,,,0
11.099991,0.034976,2.492683,-0.004196,-0.021952,1.002081,1.002331,,,,0
11.135042,0.035051,2.492898,-0.015551,-0.02943,1.006468,1.007018,,,,0
11.170008,0.034966,2.495453,0.000727,-0.044868,1.013535,1.014528,,,,0
11.201373,0.031366,2.49568,0.000485,-0.028223,1.020115,1.020505,,,,0
11.229455,0.028082,2.494998,0.013577,-0.022434,1.013535,1.013874,,,,0
11.257261,0.027805,2.494017,0.018426,-0.014715,1.002813,1.00309,,,,0
11.288746,0.031485,2.49426,0.019153,-0.005066,1.002569,1.002765,,,,0
11.316574,0.027828,2.494304,0.007516,-0.004825,0.999157,0.999197,,,,0
11.344376,0.027802,2.493663,0.0337,-0.003136,1.007686,1.008255,,,,0
11.376035,0.031659,2.494229,0.0337,-0.00193,1.018653,1.019212,,,,0
11.404967,0.028932,2.494363,0.006304,0.009712,0.989409,0.989477,,,,0
11.436771,0.031804,2.494341,0.00897,-0.051622,0.993796,0.995176,,,,0
11.464733,0.027962,2.495011,0.000727,-0.038114,0.982098,0.982838,,,,0
11.492613,0.02788,2.495151,-0.0,-0.024123,0.98746,0.987754,,,,0
11.523731,0.031117,2.495869,-0.003209,-0.035701,1.000619,1.001261,,,,0
11.551903,0.028172,2.49589,-0.003456,-0.022675,1.010123,1.010384,,,,0
11.587049,0.035146,2.493747,0.011395,-0.028947,1.021333,1.021807,,,,0
11.621762,0.034712,2.491108,0.023032,-0.020987,1.019384,1.01986,,,,0
11.656443,0.034681,2.489742,0.032003,-0.0,1.014754,1.015258,,,,0
11.691329,0.034886,2.48871,0.025942,-0.011338,1.0033,1.003699,,,,0
11.726525,0.035197,2.488924,0.037094,-0.00193,1.002081,1.00277,,,,0
11.758158,0.031632,2.489321,0.017456,-0.018574,0.98746,0.987789,,,,0
11.786131,0.027973,2.489313,0.000242,-0.015197,0.999157,0.999273,,,,0
11.814142,0.028011,2.48888,0.005819,-0.004101,1.00988,1.009905,,,,0
11.845555,0.031414,2.487573,0.014789,0.003399,1.008174,1.008288,,,,0
11.873445,0.02789,2.487123,0.026911,-0.001206,1.006955,1.007316,,,,0
11.901293,0.027848,2.486352,0.026669,0.011168,1.017191,1.017602,,,,0
11.932762,0.031469,2.485938,0.033215,0.003399,0.995014,0.995574,,,,0
11.960733,0.027971,2.485495,0.022305,-0.023158,0.99867,0.999187,,,,0
11.995683,0.03495,2.482168,0.010425,-0.014474,1.014023,1.014179,,,,0
12.030716,0.035034,2.479547,0.030791,-0.004583,0.999644,1.000129,,,,0
12.062563,0.031847,2.477936,0.034912,0.000486,0.984292,0.984911,,,,0
12.090437,0.027874,2.476713,0.045095,0.014082,0.983073,0.984208,,,,0
12.118356,0.027919,2.475595,0.004364,0.020637,1.017434,1.017653,,,,0
12.149939,0.031583,2.475409,0.035882,0.044917,1.018165,1.019787,,,,0
12.177886,0.027947,2.475284,0.034427,0.045159,1.020602,1.022181,,,,0
12.20591,0.028025,2.475432,0.028366,0.038361,1.020846,1.02196,,,,0
12.237576,0.031665,2.47548,0.041701,0.034719,1.006224,1.007686,,,,0
12.272616,0.03504,2.476082,0.048004,0.028164,1.000619,1.002166,,,,0
12.300483,0.027867,2.476936,0.032003,0.03909,1.008905,1.010169,,,,0
12.33192,0.031437,2.477546,0.035882,0.049772,1.004031,1.005904,,,,0
12.359843,0.027922,2.477623,0.027396,0.029378,1.000863,1.001669,,,,0
12.389519,0.029676,2.479288,0.024002,0.039818,1.001838,1.002916,,,,0
12.423939,0.03442,2.480907,0.030791,0.049044,1.002081,1.003753,,,,0
12.449204,0.025265,2.482477,0.04364,0.038604,0.991846,0.993556,,,,0
12.480891,0.031686,2.484578,0.056005,0.033505,0.995989,0.998125,,,,0
12.514391,0.0335,2.486917,0.049944,0.027436,1.001594,1.003214,,,,0
12.540963,0.026572,2.48895,0.032245,0.020637,1.018165,1.018885,,,,0
12.567728,0.026766,2.489862,0.022063,0.024522,1.024745,1.025276,,,,0
12.601225,0.033497,2.490304,0.023032,0.021123,0.999888,1.000376,,,,0
12.627711,0.026486,2.490964,0.0337,0.033991,0.999157,1.000303,,,,0
12.654185,0.026474,2.491364,0.037094,0.038847,0.997451,0.998896,,,,0
12.680673,0.026489,2.491846,0.039034,0.048316,1.007443,1.009356,,,,0
12.714133,0.033459,2.492558,0.045337,0.039575,0.997695,0.999508,,,,0
12.740614,0.026481,2.493437,0.051156,0.027921,0.996964,0.998666,,,,0
12.767295,0.026681,2.49435,0.032245,0.027193,1.011586,1.012465,,,,0
12.793764,0.026469,2.494471,0.029821,0.027193,1.012317,1.013121,,,,0
12.827243,0.03348,2.494266,0.033215,0.026464,1.005493,1.00639,,,,0
12.853728,0.026485,2.494081,0.039034,0.032291,1.001594,1.002874,,,,0
12.880246,0.026517,2.493771,0.032973,0.040789,1.009392,1.010754,,,,0
12.906697,0.026452,2.493892,0.035155,0.046131,1.007443,1.009111,,,,0
12.94027,0.033573,2.494896,0.041701,0.04953,1.000376,1.002469,,,,0
12.96679,0.026519,2.496056,0.024245,0.044431,1.005737,1.00701,,,,0
12.993251,0.026461,2.497093,0.036609,0.040304,0.997939,0.999423,,,,0
13.019788,0.026537,2.498256,0.051399,0.031077,1.006955,1.008745,,,,0
13.053492,0.033704,2.49896,0.035397,0.026707,1.01646,1.017426,,,,0
13.080112,0.02662,2.498834,0.03176,0.021123,1.001594,1.00232,,,,0
13.106591,0.02648,2.498503,0.036124,0.034962,1.006955,1.00821,,,,0
13.133067,0.026476,2.497854,0.037337,0.035933,0.995745,0.997093,,,,0
13.166596,0.033529,2.49768,0.032973,0.035448,1.006712,1.007875,,,,0
13.193112,0.026516,2.497452,0.024002,0.042003,1.011098,1.012255,,,,0
13.219631,0.026519,2.497084,0.034185,0.045402,0.994527,0.996149,,,,0
13.246102,0.02647,2.496503,0.036367,0.029863,1.002569,1.003673,,,,0
13.279588,0.033486,2.496346,0.031276,0.033505,1.000619,1.001668,,,,0
13.306317,0.026729,2.495917,0.036367,0.034962,0.998426,0.9997,,,,0
13.332841,0.026524,2.495659,0.032245,0.025493,0.999157,1.000002,,,,0
13.366568,0.033728,2.495619,0.030548,0.042731,1.011586,1.012948,,,,0
13.393171,0.026603,2.49596,0.034912,0.118968,1.029863,1.037299,,,,0
13.420586,0.027415,2.496389,0.041216,0.067254,1.029619,1.032636,,,,0
13.447176,0.02659,2.496921,0.047762,0.0522,0.999401,1.001902,,,,0
13.473892,0.026716,2.496891,0.047277,0.064583,0.93604,0.939455,,,,0
13.500447,0.026555,2.497096,0.038064,0.041275,1.000376,1.00195,,,,0
13.533965,0.033518,2.49701,0.037094,0.042731,0.999157,1.000758,,,,0
13.560984,0.027019,2.496808,0.035155,0.040546,0.999401,1.000841,,,,0
13.587608,0.026624,2.496697,0.040731,0.047345,1.008417,1.01035,,,,0
13.621138,0.03353,2.496438,0.033942,0.045159,0.999644,1.001239,,,,0
13.647668,0.02653,2.496044,0.033215,0.052686,1.00135,1.003285,,,,0
13.674208,0.02654,2.495765,0.032973,0.052929,1.007199,1.009128,,,,0
13.700868,0.02666,2.495579,0.033458,0.04783,0.997207,0.998914,,,,0
13.734639,0.033771,2.496564,0.041701,0.042731,0.993552,0.995345,,,,0
13.761245,0.026606,2.497905,0.038791,0.040789,1.060081,1.061575,,,,0
13.787774,0.026528,2.499093,0.041701,0.052929,1.015485,1.017718,,,,0
13.821327,0.033553,2.499713,0.036124,0.037633,1.00525,1.006602,,,,0
13.847863,0.026536,2.500031,0.033458,0.046131,1.01646,1.018056,,,,0
13.874416,0.026553,2.499461,0.036124,0.047102,1.01646,1.018191,,,,0
13.908645,0.034229,2.498707,0.044852,0.04176,1.002813,1.004683,,,,0
13.935432,0.026787,2.497702,0.04364,0.049044,0.999644,1.001798,,,,0
13.969118,0.033687,2.497265,0.03176,0.04346,1.003056,1.004499,,,,0
13.995649,0.026531,2.496987,0.038549,0.046373,1.000132,1.001948,,,,0
14.022241,0.026592,2.496755,0.034427,0.04346,0.999888,1.001424,,,,0
14.056007,0.033766,2.496504,0.039034,0.06264,0.994527,0.997262,,,,0
14.082702,0.026695,2.496151,0.048974,0.052443,1.041804,1.044272,,,,0
14.109238,0.026536,2.495699,0.048489,0.068953,0.982098,0.985709,,,,0
