timestamp,dt,heading_rad,accel_x,accel_y,accel_z,accel_norm,gyro_x_rads,gyro_y_rads,gyro_z_rads,step_event
0.001145,0.001145,1.923797,0.008486,0.09566,1.014754,1.019288,0.035331,0.023747,0.006136,0
0.146966,0.145821,1.924092,0.024487,0.102944,1.013048,1.018559,0.043268,0.046392,0.001969,0
0.190752,0.043787,1.923387,0.017456,0.114113,1.016216,1.022752,-0.006773,-0.003002,0.014802,0
0.238108,0.047356,1.922976,0.019153,0.108528,1.01646,1.022416,0.019913,0.012642,0.098617,0
0.276365,0.038257,1.92384,0.023517,0.107072,1.014023,1.019931,-0.005639,-0.007907,0.014824,0
0.321435,0.04507,1.922874,0.008728,0.104158,1.020115,1.025456,-0.006666,-0.011298,-0.002395,0
0.362863,0.041428,1.921461,0.024972,0.103672,1.002325,1.007982,0.000848,0.014271,-0.01632,0
0.40779,0.044927,1.919256,0.017456,0.104644,1.007686,1.013256,0.01158,0.004098,-0.008675,0
0.449146,0.041356,1.917384,0.009698,0.111685,1.020602,1.026741,-0.010032,0.007243,-0.01383,0
0.487265,0.038119,1.915181,0.015517,0.111927,1.002325,1.008675,0.011179,-0.000123,-0.002355,0
0.528603,0.041338,1.9137,0.018668,0.116298,1.008174,1.015031,-0.019708,-0.000588,0.01058,0
0.573477,0.044874,1.912053,0.016001,0.104158,1.017191,1.022635,-0.034266,-0.010432,0.002584,0
0.615011,0.041534,1.909689,0.019881,0.105129,1.016947,1.02256,-0.011928,-0.024573,-0.009261,0
0.652905,0.037893,1.907084,0.016244,0.091047,1.059106,1.063137,0.025227,0.027829,-0.014007,0
0.703834,0.05093,1.905055,0.01188,0.111442,1.012804,1.018986,-0.026255,-0.025868,-0.004389,0
0.745496,0.041662,1.903553,0.019153,0.110956,1.01256,1.018802,-0.013611,-0.000768,-0.006484,0
0.790617,0.045121,1.90294,0.022547,0.105615,1.009149,1.014911,-0.006745,-0.012886,0.002051,0
0.831964,0.041347,1.902169,0.023275,0.109257,1.011829,1.017977,-0.016416,0.016227,-0.004847,0
0.870431,0.038467,1.901098,0.017214,0.107314,1.010367,1.016196,0.007913,0.001993,0.00249,0
0.918973,0.048542,1.900078,0.013577,0.107314,1.008661,1.014445,0.030892,0.020848,-0.006908,0
0.956868,0.037895,1.898441,0.01091,0.109742,1.01914,1.02509,0.015204,0.027228,-0.008622,0
0.99822,0.041352,1.896957,0.017214,0.1061,1.012804,1.018492,-0.00216,0.005659,-0.011703,0
1.043069,0.044849,1.895508,0.017699,0.110713,1.004762,1.010998,0.022061,0.019976,-0.011264,0
1.084716,0.041646,1.895281,0.015274,0.104886,1.014266,1.019789,-0.002195,0.006955,0.019684,0
1.122826,0.03811,1.896286,0.02182,0.11217,1.020846,1.027222,-0.014528,0.005285,0.031935,0
1.171193,0.048368,1.896833,0.018426,0.1061,1.018653,1.024329,0.007803,-0.016941,0.021398,0
1.20988,0.038686,1.896461,0.016486,0.111927,1.016947,1.023221,0.027243,-0.008797,0.009673,0
1.258222,0.048342,1.895893,0.011395,0.111927,1.00135,1.007651,0.019797,0.015613,0.009408,0
1.301489,0.043267,1.895713,0.008728,0.111685,1.008174,1.014379,0.006621,0.049186,0.000519,0
1.339646,0.038157,1.895005,0.014062,0.110471,1.008174,1.014306,0.006803,-0.008515,-0.000978,0
1.381082,0.041436,1.893927,0.015759,0.11654,1.019384,1.026145,0.010689,0.007091,-0.010754,0
1.425933,0.044851,1.892694,0.014547,0.11387,1.006224,1.012751,0.003984,-0.013,-0.006207,0
1.467278,0.041344,1.891871,0.015032,0.113627,1.007686,1.014184,-0.021931,0.011436,0.002043,0
1.505809,0.038532,1.891453,0.016729,0.109014,1.006468,1.012493,0.0097,0.024502,-0.00628,0
1.554139,0.04833,1.891134,0.015274,0.112413,1.024502,1.030764,0.020885,0.017112,-0.015758,0
1.592006,0.037867,1.890751,0.015517,0.113141,1.014266,1.020675,-0.040779,-0.034726,-0.014877,0
1.633336,0.04133,1.890198,0.018668,0.115084,1.010611,1.017314,-0.002284,-0.002732,-0.012397,0
1.679844,0.046508,1.889653,0.013577,0.115812,1.009636,1.016347,0.008346,-0.017505,-0.006422,0
1.721984,0.04214,1.889457,0.014304,0.120911,1.014266,1.021548,-0.020285,-0.01643,0.005717,0
1.763396,0.041412,1.888813,0.015032,0.12261,1.016947,1.024422,-0.019819,0.008852,-0.002664,0
1.801529,0.038134,1.888103,0.019396,0.117512,1.010367,1.017363,-0.015407,-0.006435,-0.008187,0
1.849898,0.048368,1.887546,0.018426,0.11654,1.014754,1.02159,0.004024,-0.004078,-0.002036,0
1.887914,0.038017,1.887511,0.018668,0.117269,1.013535,1.020468,-0.008527,-0.020657,0.000442,0
1.929313,0.041399,1.887684,0.019396,0.118483,1.014997,1.022074,0.001255,-0.013248,0.013808,0
1.974385,0.045072,1.887947,0.019396,0.117754,1.009392,1.016423,-0.013555,-0.016284,0.012267,0
2.01575,0.041365,1.887528,0.016001,0.11217,1.004518,1.010888,-0.005037,0.001253,0.006038,0
2.05354,0.037789,1.886989,0.019396,0.113627,1.006468,1.013047,-0.000679,-0.005531,-0.001828,0
2.102159,0.04862,1.886543,0.017214,0.114355,1.016947,1.023501,0.004095,0.014942,-0.006146,0
2.140091,0.037932,1.886018,0.018668,0.112413,1.009392,1.015804,0.001951,0.003746,0.005349,0
2.181512,0.041421,1.885526,0.014062,0.116783,1.010611,1.017433,0.022058,0.01418,0.01615,0
2.227024,0.045512,1.886006,0.012365,0.117754,1.009636,1.016555,0.004211,0.018671,0.022086,0
2.268686,0.041662,1.887951,0.022063,0.123339,1.014023,1.021734,-0.036239,-0.016591,0.02111,0
2.31741,0.048725,1.888646,0.02376,0.116783,1.010611,1.017613,0.011546,-0.0027,0.000991,0
2.356595,0.039184,1.889184,0.015759,0.114598,1.010367,1.016967,-0.009311,-0.021959,0.010161,0
2.398349,0.041754,1.889979,0.02279,0.11654,1.01914,1.026035,0.010984,-0.002123,-0.00209,0
2.436455,0.038106,1.889509,0.017941,0.113627,1.009149,1.015684,0.009493,-0.006257,-0.014517,0
2.485159,0.048704,1.88879,0.017699,0.111442,1.006712,1.013016,-0.0205,-0.00469,-0.004578,0
2.523281,0.038122,1.888481,0.02085,0.117997,1.010367,1.017448,-0.003923,0.005142,0.001173,0
2.571872,0.048591,1.887913,0.018668,0.114598,1.010855,1.017501,0.003514,0.021192,-0.011272,0
2.609935,0.038063,1.886934,0.016001,0.11387,1.010855,1.017374,-0.010312,-0.003913,-0.008177,0
2.651495,0.041561,1.885425,0.019153,0.117754,1.016703,1.023679,-0.001158,0.00041,-0.030968,0
2.697042,0.045546,1.883198,0.021335,0.11217,1.003544,1.010018,0.069888,0.048366,-0.027046,0
2.738762,0.04172,1.88119,0.017214,0.108528,0.998182,1.004212,0.082231,0.032646,-0.016831,0
2.784009,0.045247,1.879796,0.01091,0.131836,1.026939,1.035424,-0.018268,0.001989,-0.023698,0
2.825626,0.041617,1.877666,0.013577,0.120182,1.017434,1.024598,0.008179,-0.050392,-0.05165,0
2.870744,0.045118,1.876026,0.019881,0.125767,1.00988,1.017875,-0.007472,-0.03325,-0.04432,0
2.912545,0.041801,1.875119,0.024972,0.12868,1.004275,1.012793,-0.021349,-0.005667,-0.035912,0
2.957637,0.045092,1.873534,0.017456,0.118483,1.001107,1.008245,7.8e-05,0.008337,-0.081336,0
2.9992,0.041564,1.869744,0.016244,0.13038,1.00793,1.016458,-0.028458,0.00933,-0.08126,0
3.044266,0.045065,1.86804,0.021335,0.118968,1.01914,1.026282,-0.015787,0.020553,-0.015679,0
3.085995,0.041729,1.868136,0.018426,0.11824,1.013048,1.020091,0.029964,0.01242,-0.030807,0
3.131266,0.045271,1.868418,0.016486,0.111927,1.003544,1.009901,0.004575,0.003761,0.046054,0
3.172894,0.041628,1.870205,0.024002,0.142276,1.017434,1.027614,-0.047089,-0.005904,0.019823,0
3.211249,0.038355,1.872912,0.024972,0.122125,1.007199,1.014883,-0.017273,-0.003118,0.063681,0
3.254533,0.043284,1.874902,0.035155,0.127223,1.014266,1.022818,-0.047639,0.012945,0.001378,0
3.298167,0.043634,1.875144,0.025214,0.113141,1.013048,1.019658,-0.038366,-0.0051,-0.001453,0
3.34203,0.043863,1.875947,0.021578,0.11824,1.006955,1.014103,-0.035141,0.001654,-0.025314,0
3.390642,0.048612,1.875771,0.018183,0.111442,1.015241,1.021501,-0.031758,-0.037946,-0.035035,0
3.434299,0.043657,1.875329,0.034185,0.098331,0.998913,1.004323,0.019668,0.036319,-0.078215,0
3.477745,0.043446,1.873034,0.016729,0.113384,1.006224,1.012731,-0.032778,0.048919,-0.084764,0
3.521555,0.04381,1.871609,0.00994,0.111199,1.01451,1.020634,-0.006423,0.04851,-0.0577,0
3.565124,0.043569,1.872602,0.03564,0.176025,1.013048,1.028844,-0.006595,0.037084,-0.040906,0
3.608619,0.043496,1.87299,0.00897,0.114598,1.005006,1.011558,-0.02729,0.056187,0.041241,0
3.65251,0.043891,1.879182,0.075643,0.112899,1.02572,1.034683,-0.11556,0.04061,0.225722,0
3.70708,0.054569,1.891885,-0.00543,0.115569,1.015728,1.022296,-0.133886,0.002125,0.265428,0
3.750554,0.043474,1.90478,0.029094,0.097603,1.026207,1.031249,-0.094999,-0.039051,0.228835,0
3.793923,0.043369,1.913658,0.012365,0.087891,1.014266,1.018142,-0.131819,0.031951,0.161207,0
3.837579,0.043657,1.921704,0.036609,0.064583,0.995014,0.99778,-0.177939,0.125414,0.050946,0
3.881357,0.043778,1.923393,0.064733,0.063612,1.022552,1.026572,-0.138233,0.074712,-0.074587,0
3.925167,0.043809,1.919295,0.05552,0.046859,1.047653,1.050169,-0.108426,-0.091467,-0.273574,0
3.973536,0.04837,1.900664,0.158317,0.956603,1.133678,1.49177,0.192425,-0.204477,-1.343504,1
4.018567,0.045031,1.888468,0.086796,0.252747,1.0613,1.094428,-0.162487,0.28391,0.092945,0
4.069121,0.050554,1.884936,-0.112804,0.058513,0.994039,1.002129,0.022225,0.005265,-0.134142,0
4.112563,0.043442,1.877661,-0.014316,0.085463,0.99014,0.993925,-0.007578,0.056828,-0.031587,0
4.15704,0.044477,1.877751,0.043155,0.148103,1.029375,1.04087,0.035071,0.020323,-0.030788,0
4.198007,0.040967,1.878025,0.048974,0.126009,1.086888,1.095264,-0.024712,-0.098861,0.099876,0
4.237584,0.039577,1.881377,0.013819,0.083035,1.057644,1.060989,-0.134667,-0.130626,0.209527,0
4.295062,0.057478,1.893279,0.030063,0.108528,0.987703,0.994103,-0.190867,-0.054268,0.255647,0
4.345248,0.050186,1.906304,0.027396,0.06871,0.957241,0.960095,-0.081217,-0.068623,0.271529,0
4.396125,0.050877,1.923368,0.083644,0.101487,1.009392,1.017924,0.053174,0.116774,0.507934,0
4.44999,0.053865,1.95555,0.074188,0.095903,1.035224,1.042301,-0.067472,0.13846,0.487776,0
4.507252,0.057262,1.976643,0.066188,0.033991,1.039367,1.042027,-0.129475,0.091423,0.389121,0
4.561467,0.054215,1.995915,0.105949,-0.002412,1.015241,1.020757,-0.121228,0.086231,0.361632,0
4.612958,0.051491,2.013193,0.107888,-0.010855,0.98088,0.986855,0.084022,-0.009675,0.408974,0
4.663671,0.050712,2.034479,0.102312,0.01214,0.996233,1.001546,0.138695,-0.053657,0.4273,0
4.715931,0.052261,2.048732,0.096736,0.027921,0.986485,0.99161,0.068445,0.091423,0.315512,0
4.76093,0.044998,2.059807,0.120011,0.027921,0.975518,0.983269,0.158243,0.009567,0.331089,0
4.812232,0.051303,2.072986,0.129951,0.045645,1.00988,1.019229,0.173209,0.01476,0.329562,0
4.860585,0.048352,2.085068,0.109101,0.046859,1.075678,1.082211,0.20589,-0.039302,0.337503,0
4.906958,0.046373,2.090397,0.001212,0.054871,1.124417,1.125756,0.111817,-0.153534,0.189368,0
4.952731,0.045773,2.089867,0.049701,0.039332,1.089325,1.091167,0.006383,-0.051875,0.056145,0
4.997889,0.045158,2.081998,0.013335,0.02258,1.069585,1.069907,0.28281,-0.085464,-0.051582,0
5.044522,0.046633,2.081413,0.091645,0.078179,1.131241,1.137636,0.282505,0.400174,0.478954,0
5.088227,0.043705,2.10389,0.045337,0.097603,1.188266,1.193129,0.208895,0.534259,0.799659,1
5.13109,0.042863,2.125815,-0.057019,0.075994,1.14172,1.145666,0.018305,0.222413,0.539736,0
5.177556,0.046466,2.139362,-0.023943,0.09566,0.946762,0.951884,-0.20405,-0.163654,0.264235,0
5.223245,0.045689,2.144605,0.005576,0.107557,0.880964,0.887523,0.087333,-0.409833,0.472235,0
5.272569,0.049323,2.161344,0.041216,0.187436,0.953098,0.972228,-0.13716,-0.024682,0.801491,0
5.315688,0.04312,2.190439,-0.014316,0.137906,0.961872,0.971813,-0.194581,0.021438,0.781638,0
5.360685,0.044996,2.217081,-0.020487,0.089833,0.907283,0.91195,-0.083098,-0.119672,0.511025,0
5.414224,0.053539,2.227378,0.043883,0.098088,0.900704,0.907091,0.027468,-0.081187,0.436805,0
5.456994,0.04277,2.238736,0.092372,0.093475,0.965527,0.974429,-0.053471,0.024798,0.373886,0
5.509469,0.052475,2.247247,0.117586,0.095417,0.965771,0.97757,-0.082182,-0.003302,0.253545,0
5.558711,0.049242,2.24776,0.144983,0.061427,0.984779,0.997288,-0.041617,-0.109877,0.085426,0
5.604428,0.045717,2.239741,0.158317,0.048801,1.039611,1.052728,0.031758,-0.244523,-0.08177,0
5.648733,0.044305,2.219557,0.136739,0.048073,1.147081,1.156202,0.151182,-0.541098,-0.333752,0
5.730377,0.081644,2.190184,0.100373,0.074537,1.114426,1.121417,0.067799,-0.072564,-0.265335,0
5.801396,0.071019,2.168496,0.020365,0.052686,1.1734,1.174759,0.49907,-0.177938,-0.309317,0
5.848414,0.047018,2.138644,-0.020981,0.096146,1.158535,1.162707,-0.067813,-0.096388,-0.692025,0
5.898448,0.050034,2.102039,0.044125,0.014325,0.906065,0.907252,0.023511,-0.235054,-0.650791,0
5.958739,0.06029,2.06518,0.06934,0.034234,0.892662,0.896005,0.160345,0.043195,-0.458674,0
5.998577,0.039839,2.046351,0.062793,0.029621,0.945056,0.947603,-0.067813,0.048082,-0.462034,0
6.03817,0.039592,2.026906,0.054065,-0.001206,0.917275,0.918868,-0.167079,-0.049046,-0.561605,0
6.079481,0.041312,1.999648,0.074431,0.004127,0.886325,0.889455,-0.095302,-0.095166,-0.644072,0
6.128865,0.049384,1.974215,0.127284,0.037876,0.898754,0.908512,-0.098662,-0.021557,-0.547555,0
6.181616,0.052751,1.948704,0.170924,0.050501,0.944813,0.961476,-0.044295,-0.079589,-0.40675,0
6.230995,0.04938,1.933804,0.155893,0.048559,1.012073,1.02516,0.024427,-0.177328,-0.426298,0
6.27372,0.042724,1.915875,0.165348,0.083521,1.030594,1.04711,-0.097135,-0.073481,-0.364601,0
6.323552,0.049832,1.903366,0.157832,0.085706,1.06593,1.080955,-0.232442,0.050525,-0.389952,0
6.366236,0.042685,1.88625,0.078068,0.067982,1.096148,1.101026,0.067188,-0.086614,-0.210663,0
6.412441,0.046205,1.883382,0.117829,0.16,1.15561,1.172569,0.118806,0.683076,0.412725,0
6.45687,0.044428,1.899011,-0.070348,0.096874,1.265274,1.270926,0.238535,0.006848,-0.079327,1
6.511663,0.054794,1.882902,0.011153,0.143248,1.037418,1.04732,-0.280089,-0.108605,-0.327949,0
6.557653,0.04599,1.872142,0.0674,0.100273,0.896073,0.904182,-0.000595,-0.125979,-0.002075,0
6.603508,0.045854,1.870307,0.045337,0.138392,0.942132,0.953321,-0.187441,0.081338,0.235877,0
6.645744,0.042237,1.880752,0.010183,0.111199,0.930191,0.936869,-0.043582,0.182742,0.369351,0
6.696134,0.050389,1.887375,-0.025424,0.099788,0.955779,0.96131,-0.07382,0.175411,0.14272,0
6.734329,0.038196,1.881871,-0.010367,0.078422,0.932628,0.935977,-0.107395,0.045026,-0.082106,0
6.775921,0.041591,1.872449,0.093342,0.090076,0.879015,0.888534,-0.049001,-0.051956,-0.025009,0
6.820983,0.045062,1.866504,0.133345,0.098088,0.889006,0.904286,-0.061437,-0.017645,0.033227,0
6.862855,0.041873,1.862912,0.138437,0.097117,0.95188,0.966784,0.035126,-0.146356,0.072274,0
6.908298,0.045443,1.859321,0.127042,0.109985,1.011342,1.025207,-0.067002,-0.059404,0.01952,0
6.949886,0.041588,1.85409,0.099645,0.077936,1.081039,1.088416,0.046354,-0.062433,-0.0017,0
6.99495,0.045064,1.849835,0.092372,0.104886,1.172913,1.181211,-0.139566,0.05645,0.048805,1
7.036504,0.041555,1.84449,0.042186,0.086434,1.180224,1.184136,-0.182327,0.265061,-0.106966,0
7.081553,0.045049,1.837465,0.011637,0.002671,1.162678,1.162739,0.415405,0.305989,0.00299,0
7.123301,0.041748,1.834131,0.000242,0.034477,1.286719,1.287181,0.166478,0.428467,-0.162555,0
7.161339,0.038038,1.818603,-0.034063,-0.008925,1.093224,1.093791,0.130742,0.023158,-0.423089,0
7.209896,0.048557,1.800324,0.000485,-0.012785,1.002081,1.002163,0.267576,-0.285023,-0.386742,0
7.248037,0.03814,1.788009,0.053096,0.060213,0.959922,0.963273,-0.011895,-0.088935,-0.209897,0
7.296899,0.048862,1.782997,0.028124,0.055599,0.943594,0.945649,-0.052518,-0.125587,-0.158279,0
7.335019,0.038121,1.779177,0.032488,0.065068,0.895099,0.898048,-0.012296,-0.170323,-0.008772,0
7.383629,0.048609,1.785968,0.0674,0.074052,0.884132,0.889784,-0.022225,-0.022781,0.1805,0
7.422014,0.038385,1.794338,0.030791,0.062398,0.925561,0.928172,0.033404,-0.120211,0.019647,0
7.471041,0.049027,1.799875,0.098433,0.062155,0.942863,0.950023,0.076109,-0.061453,0.067568,0
7.509198,0.038157,1.800101,0.093584,0.059727,0.976737,0.983026,0.093751,-0.129678,-0.173505,0
7.557814,0.048616,1.794754,0.125587,0.086677,1.009636,1.021102,0.165223,-0.183129,-0.190915,0
7.595857,0.038043,1.790632,0.14668,0.127952,1.042291,1.06031,-0.062019,0.081987,-0.198245,0
7.637453,0.041595,1.781798,0.085099,0.071867,1.083476,1.089186,-0.021091,0.088707,-0.358597,0
7.683459,0.046006,1.772326,0.040973,0.107314,1.140257,1.146029,0.087948,0.222791,-0.142962,0
7.732067,0.048608,1.774039,0.029821,0.135235,1.185341,1.193404,0.096195,0.516923,0.059845,1
7.77029,0.038223,1.783973,-0.017278,0.117026,1.197526,1.203355,0.196071,0.083514,0.036632,0
7.818836,0.048545,1.789913,0.029336,0.156601,1.065686,1.07753,0.015037,0.053552,0.111884,0
7.856818,0.037982,1.804069,0.078795,0.159272,0.978199,0.994208,-0.010885,0.130961,0.574698,0
7.899054,0.042236,1.834726,0.023032,0.162914,0.975031,0.988816,-0.133363,0.153258,0.681294,0
7.940617,0.041563,1.866006,0.004849,0.118726,0.910208,0.917931,-0.196893,0.115995,0.663884,0
7.978596,0.037979,1.893085,0.023517,0.069439,0.840023,0.843216,-0.147413,0.127907,0.556066,0
8.020673,0.042078,1.92008,0.048974,0.04346,0.793721,0.796417,0.05631,0.128823,0.423814,0
8.065689,0.045016,1.938824,0.07734,0.057542,0.915813,0.920872,0.210859,0.202432,0.427174,0
8.107535,0.041846,1.958272,0.061581,0.069196,1.012804,1.017031,-0.005998,0.143484,0.161753,0
8.152675,0.045141,1.963971,0.074188,0.051715,1.118081,1.121733,-0.031677,-0.054321,-0.124711,0
8.194143,0.041467,1.95841,0.109343,0.06604,1.071779,1.079364,-0.075048,-0.162749,-0.266737,0
8.239239,0.045096,1.95242,0.149347,0.099788,1.089081,1.103793,-0.091542,-0.047296,-0.186408,0
8.281086,0.041847,1.949433,0.12292,0.110713,1.154392,1.166185,-0.244869,-0.012171,-0.146702,0
8.326335,0.045249,1.946565,0.065945,0.074537,1.109795,1.114249,-0.153239,0.132604,-0.165639,0
8.367976,0.041641,1.942394,0.014062,0.005584,1.123686,1.123788,0.338202,0.11886,-0.24383,0
8.410454,0.042477,1.935139,-0.057019,0.056328,1.262593,1.265135,0.349198,-0.13526,-0.40632,1
8.448489,0.038035,1.92176,-0.025177,0.071867,1.120762,1.123346,0.006808,0.097479,-0.454578,0
8.494073,0.045584,1.908488,-0.044184,-0.000241,0.991359,0.992343,0.235271,-0.11052,-0.460382,0
8.532393,0.03832,1.893642,-0.031842,0.023794,0.939695,0.940535,0.219694,-0.022861,-0.453967,0
8.570623,0.03823,1.881672,-0.011108,0.048559,0.941157,0.942475,0.041016,-0.025304,-0.369057,0
8.619412,0.048789,1.873766,0.016486,0.051472,0.862687,0.864378,-0.020681,0.015013,-0.256353,0
8.657523,0.038111,1.870026,0.035882,0.061427,0.859519,0.862458,0.013,0.041187,-0.151144,0
8.706315,0.048792,1.874529,0.094069,0.094689,0.899241,0.909093,-0.067143,0.144156,0.100051,0
8.744701,0.038386,1.888443,0.106919,0.077451,0.943838,0.953027,-0.026075,0.020412,0.163534,0
8.793294,0.048593,1.897806,0.08922,0.083763,1.011829,1.019203,-0.061221,-0.061436,0.059879,0
8.831323,0.038029,1.903502,0.095524,0.076237,1.02572,1.032976,0.077334,-0.129604,0.035401,0
8.87291,0.041588,1.904817,0.07734,0.1078,1.102972,1.110923,-0.057503,-0.062607,-0.113086,0
8.918322,0.045412,1.90206,0.054065,0.081093,1.092493,1.096832,0.022958,-0.101874,-0.160729,0
8.959869,0.041547,1.896247,0.027881,0.093232,1.150493,1.154601,0.186235,0.007345,0.021251,0
9.005013,0.045145,1.903161,0.007758,0.149803,1.208005,1.217283,0.182876,0.402269,0.411899,1
9.046576,0.041563,1.920781,-0.107867,0.136449,1.252602,1.26462,0.073531,0.125242,0.192293,0
9.091747,0.045171,1.926478,-0.088367,0.126738,1.063493,1.074657,-0.060738,0.053768,0.041013,0
9.133985,0.042237,1.930882,-0.036532,0.186465,0.942376,0.961341,0.118779,-0.070407,0.178708,0
9.176299,0.042315,1.943049,0.043155,0.195448,0.936771,0.957915,-0.189403,0.218837,0.377239,0
9.215103,0.038804,1.961131,0.035882,0.115569,0.876578,0.884891,-0.199176,0.072535,0.362884,0
9.258941,0.043838,1.977673,0.062793,0.093718,0.850989,0.858434,-0.022331,0.000148,0.382126,0
9.310136,0.051195,1.996135,0.092614,0.116055,0.887788,0.900118,-0.095329,0.122015,0.284388,0
9.35398,0.043844,2.005027,0.101342,0.096874,0.921661,0.932263,-0.049396,-0.029791,0.164545,0
9.397772,0.043792,2.012029,0.142316,0.104644,0.947493,0.963819,-0.104984,0.047178,0.18165,0
9.441057,0.043285,2.016165,0.111768,0.060455,1.054233,1.061863,-0.076794,-0.0386,-0.014196,0
9.484294,0.043237,2.009014,0.109101,0.027678,1.038636,1.044717,0.097609,-0.207504,-0.20448,0
9.536386,0.052092,2.000715,0.132618,0.068468,1.222627,1.231703,-0.120792,-0.016853,-0.211623,1
9.587396,0.05101,1.991429,0.096978,0.031806,1.164871,1.169333,-0.164163,0.170682,-0.160616,0
9.631059,0.043662,1.986415,0.038549,-0.018816,1.152442,1.15324,0.171035,0.086278,-0.050363,0
9.674293,0.043234,1.977783,-0.096513,-0.012785,1.190215,1.19419,0.403164,-0.138215,-0.556159,0
9.718141,0.043848,1.947892,-0.027646,0.075023,1.109795,1.112672,0.208604,-0.252752,-0.652676,0
9.761659,0.043518,1.923297,0.076128,0.100759,0.892662,0.90155,-0.094385,0.153168,-0.438262,0
9.807442,0.045783,1.910572,0.034427,0.050986,0.888275,0.890403,0.172868,0.140951,-0.036008,0
9.85827,0.050828,1.913349,0.01091,0.092747,0.960166,0.964696,-0.043073,0.342536,0.088304,0
9.909644,0.051373,1.918942,-0.021722,0.078908,0.87341,0.877236,-0.080336,0.29214,0.090136,0
9.953327,0.043684,1.922942,-0.028386,0.057542,0.904603,0.906875,0.160954,0.092336,-0.000568,0
9.996825,0.043498,1.923395,0.038791,0.095903,0.940182,0.945857,0.037612,0.183004,-0.013123,0
10.040195,0.04337,1.925583,0.089705,0.080607,0.876821,0.885076,-0.007765,0.142091,-0.011702,0
10.083669,0.043474,1.927928,0.151286,0.030592,1.037905,1.049319,0.218522,-0.070245,0.0065,0
10.127563,0.043894,1.930443,0.18935,0.059484,1.228476,1.244405,0.110093,-0.236706,-0.009688,1
10.178419,0.050856,1.928835,0.144255,0.070653,1.193383,1.204145,-0.174876,-0.209828,-0.080548,0
10.232562,0.054143,1.927077,0.052853,0.064097,1.098829,1.101965,0.15713,-0.317645,0.167463,0
10.276172,0.043609,1.933535,-0.002222,0.124553,1.094199,1.101267,0.061224,0.15944,0.193425,0
10.319729,0.043558,1.936185,-0.107374,0.115812,1.080308,1.091791,0.168359,-0.024659,0.125053,0
10.363372,0.043643,1.937389,-0.078247,0.143976,1.004031,1.017315,0.080357,0.104818,0.124799,0
10.40759,0.044218,1.93897,-0.086146,0.151017,0.971376,0.986812,0.056399,0.115445,0.163805,0
10.451132,0.043542,1.945709,-0.052823,0.150774,0.977955,0.990919,-0.014156,0.180502,0.278037,0
10.497118,0.045985,1.954182,-0.036532,0.133779,0.886813,0.89759,-0.158625,0.14385,0.192821,0
10.544723,0.047605,1.961693,0.008486,0.092747,0.856351,0.8614,0.047542,0.171033,0.296668,0
10.588446,0.043723,1.972617,0.047035,0.11994,0.91362,0.922658,0.045098,0.298399,0.317438,0
10.632027,0.04358,1.984672,0.028124,0.111927,1.003787,1.0104,-0.066079,0.368954,0.164416,0
10.675239,0.043212,1.988388,-0.003703,0.097603,1.042779,1.047343,-0.064912,0.078571,-0.078722,0
10.719335,0.044096,1.982084,0.028124,0.10343,1.039123,1.044637,-0.007541,0.040294,-0.113056,0
10.770532,0.051198,1.975392,0.001455,0.092747,1.053258,1.057334,0.027121,-0.053488,-0.181851,0
10.814483,0.043951,1.964558,0.008728,0.104401,1.073485,1.078585,-0.050154,-0.257822,-0.373357,0
10.858121,0.043638,1.949652,0.073461,0.125038,1.0323,1.042437,-0.266094,-0.004924,-0.316852,0
10.90854,0.050419,1.932569,0.033458,0.075266,1.01646,1.019791,-0.095052,-0.135649,-0.406038,0
10.951895,0.043355,1.919774,0.020365,0.070895,1.049602,1.052191,0.17098,-0.020501,-0.242937,0
10.995133,0.043238,1.910473,-0.05307,0.098817,1.160728,1.166135,-0.097801,0.130993,-0.235912,0
11.042003,0.04687,1.897511,-0.135513,0.025493,1.000863,1.010317,-0.211117,0.013707,-0.324182,0
11.085644,0.043641,1.879404,-0.143165,-0.021952,0.875603,0.887501,-0.057484,0.039669,-0.458267,0
11.129785,0.044141,1.861191,-0.139956,-0.008202,0.917031,0.927686,0.291015,0.116027,-0.332429,0
11.173516,0.043731,1.850133,-0.105646,0.064097,1.068367,1.075489,0.087902,0.228426,-0.219114,0
11.224246,0.05073,1.843637,-0.064177,0.078422,1.079333,1.08408,-0.000362,0.091855,-0.106422,0
11.274997,0.050751,1.844505,-0.022709,0.080122,1.017434,1.020837,0.014595,0.028433,0.082799,0
11.318576,0.043579,1.85154,-0.003456,0.090319,1.000376,1.00445,-0.065948,0.144665,0.239995,0
11.362252,0.043676,1.861896,-0.03826,0.064826,1.015241,1.018028,-0.00932,-0.005128,0.139354,0
11.40664,0.044388,1.869554,-0.023449,0.063612,1.020115,1.022365,0.050078,-0.005221,0.216822,0
11.457419,0.050779,1.881217,-0.010861,0.080607,1.086401,1.089441,-0.085534,0.146274,0.142907,0
11.511319,0.0539,1.888912,-0.023696,0.074052,1.099804,1.102549,-0.070967,0.132881,-0.057899,0
11.56195,0.050632,1.889086,-0.018019,0.101002,1.037661,1.042721,-0.111314,-0.179052,-0.005516,0
11.613423,0.051473,1.889947,0.013819,0.097603,0.922149,0.927403,0.05481,-0.075459,-0.036881,0
11.657033,0.04361,1.892226,0.012365,0.039332,0.915325,0.916253,0.081009,-0.02044,-0.00172,0
11.702336,0.045303,1.894437,-0.025177,0.012382,1.037661,1.03804,0.226395,-0.102906,0.1006,0
11.747334,0.044998,1.90216,-0.002715,0.069681,1.059838,1.062129,-0.063303,0.220708,0.227271,0
11.790785,0.043452,1.911333,-0.066399,0.048316,1.046922,1.050137,-0.069746,0.131113,0.051379,0
11.833861,0.043076,1.910875,-0.055044,0.05827,0.936771,0.940194,-0.013019,0.071853,-0.072907,0
11.877015,0.043154,1.907817,-0.009133,0.069196,0.973325,0.975825,0.043655,0.050783,-0.114223,0
11.920681,0.043666,1.904591,0.02182,0.051229,1.000619,1.002167,0.156172,0.003104,-0.120087,0
11.964219,0.043538,1.905121,0.028609,0.081578,1.120762,1.124091,0.054964,0.039203,0.027607,0
12.007779,0.04356,1.907109,-0.013576,0.074052,1.068367,1.071016,-0.01599,0.016707,-0.011887,0
12.051305,0.043525,1.906557,-0.018513,0.075994,1.030838,1.033801,-0.060299,-0.021769,-0.047657,0
12.09513,0.043825,1.904828,-0.001728,0.072352,0.999401,1.002018,0.004748,-0.000294,-0.060929,0
12.138882,0.043752,1.904216,0.028851,0.092261,1.014754,1.019348,0.033289,-0.000247,-0.008829,0
12.181968,0.043087,1.906123,0.027881,0.086191,1.018165,1.022187,0.046288,0.02023,-0.015291,0
12.225004,0.043036,1.90713,0.015032,0.092504,1.040829,1.04504,0.010861,-0.004913,-0.02567,0
12.268563,0.043559,1.90861,0.017699,0.079879,1.012073,1.015375,0.003018,-0.028011,0.023242,0
12.312225,0.043662,1.911784,0.014547,0.093961,1.032787,1.037155,-0.035115,0.035551,-0.022949,0
12.3559,0.043675,1.912185,0.004364,0.068953,1.005737,1.008107,0.034992,0.002214,0.001954,0
12.399712,0.043812,1.91314,0.007031,0.07478,1.039854,1.042564,-0.010927,0.013635,-0.00051,0
12.443466,0.043755,1.913795,0.00994,0.075023,1.022552,1.025349,-0.083579,0.044054,-0.026169,0
12.486996,0.04353,1.914112,0.003637,0.054386,1.001594,1.003076,0.057185,0.038417,0.007906,0
12.53048,0.043484,1.915979,0.021578,0.085949,1.003056,1.006963,-0.017462,0.109569,0.027929,0
12.573937,0.043458,1.918657,0.008486,0.081336,1.023283,1.026545,-0.023756,0.092303,-0.006354,0
12.618321,0.044384,1.917467,-0.023943,0.123339,1.004275,1.012103,0.08355,0.08925,-0.046788,0
12.665711,0.04739,1.916952,-0.037272,0.047345,1.018897,1.020677,0.014247,0.151963,-0.067015,0
12.703626,0.037915,1.916429,-0.005924,0.047587,1.023039,1.024163,0.059277,0.007046,-0.026238,0
12.754344,0.050718,1.918223,0.05649,0.058756,1.037418,1.040614,0.077664,-0.050619,-0.010108,0
12.797816,0.043472,1.922549,0.071037,0.097845,1.031081,1.038147,0.020718,-0.064931,0.113164,0
12.841477,0.043661,1.931974,0.027154,0.1061,1.012804,1.018708,-0.014652,-0.046417,0.249089,0
12.884931,0.043454,1.94384,-0.017772,0.086191,1.018653,1.022447,-0.142017,0.054987,0.172731,0
12.929259,0.044328,1.952439,-0.029867,0.056813,1.001594,1.003648,0.022953,0.012946,0.099492,0
12.979553,0.050294,1.954296,-0.023449,0.002671,1.0323,1.03257,0.030675,0.017233,-0.015994,0
13.022615,0.043062,1.953433,-0.022956,0.052929,1.025476,1.027098,0.013171,0.026108,-0.10233,0
13.065956,0.043341,1.950241,-0.019253,0.050015,1.000376,1.00181,0.066448,-0.004178,-0.107457,0
13.109682,0.043726,1.948592,0.001455,0.071867,1.016703,1.019241,0.015044,0.026348,-0.078592,0
13.153531,0.043849,1.949185,0.018426,0.081093,1.01451,1.017913,0.026818,0.010262,-0.004595,0
13.197014,0.043483,1.952952,0.033458,0.098331,1.018897,1.024177,0.015017,0.12646,0.073558,0
13.240424,0.04341,1.958544,0.007273,0.063854,1.028401,1.030407,0.013042,-0.011435,0.056898,0
13.284109,0.043685,1.962069,-0.011848,0.07478,1.030838,1.033614,-0.037584,-0.025434,-0.002606,0
13.327518,0.043408,1.963806,-0.013082,0.065797,1.008661,1.01089,0.013574,-0.074481,-0.007908,0
13.371242,0.043724,1.964577,-0.007652,0.070895,1.006955,1.009477,-0.01498,-0.047052,-0.031344,0
13.415325,0.044083,1.965127,0.000727,0.073081,1.021333,1.023945,-0.014829,-0.048975,-0.027397,0
13.469586,0.054261,1.965391,0.003637,0.081578,1.021821,1.025079,-0.048398,0.020165,-0.082258,0
13.513337,0.043751,1.963597,0.008243,0.070895,1.017678,1.020178,-0.063241,0.023065,-0.059341,0
13.556946,0.043609,1.964761,-0.002222,0.066768,1.014266,1.016464,0.002607,-0.028817,-0.01562,0
13.60042,0.043474,1.96605,0.01285,0.075751,1.001838,1.00478,0.040449,-0.035469,0.030221,0
13.645022,0.044602,1.969135,0.004122,0.085463,1.018653,1.02224,-0.006508,-0.006795,0.02599,0
13.692431,0.04741,1.972374,-0.007405,0.068468,1.014997,1.017331,0.029472,-0.014118,0.032936,0
13.736257,0.043825,1.97456,0.005576,0.082549,1.017678,1.021036,0.006554,-0.002876,0.000514,0
13.779706,0.043449,1.975657,-0.010861,0.054386,1.022796,1.024298,0.081464,-0.089574,-0.04489,0
13.822936,0.04323,1.976135,0.010668,0.078179,1.010367,1.013443,0.04152,-0.030651,-0.009814,0
