timestamp,dt,heading_rad,accel_x,accel_y,accel_z,accel_norm,gyro_x_rads,gyro_y_rads,gyro_z_rads,step_event
0.000957,0.000957,1.896801,0.078552,0.053172,0.979174,0.983758,,,,0
0.13221,0.131253,1.896708,0.075401,0.040304,0.987703,0.991397,,,,0
0.159188,0.026978,1.896474,0.062551,0.037633,0.994039,0.996716,,,,0
0.186103,0.026915,1.895895,0.072006,0.032534,1.000863,1.003977,,,,0
0.217617,0.031514,1.895964,0.078068,0.045159,0.994771,0.998851,,,,0
0.246887,0.02927,1.897121,0.069824,0.057542,1.006955,1.011012,,,,0
0.287673,0.040786,1.897627,0.065703,0.036904,0.999157,1.001995,,,,0
0.318142,0.030469,1.89825,0.075401,0.046616,0.989653,0.993615,,,,0
0.352859,0.034717,1.898663,0.075401,0.042731,0.987703,0.991498,,,,0
0.386574,0.033715,1.899154,0.063036,0.04953,1.016703,1.019859,,,,0
0.422158,0.035584,1.89956,0.077098,0.044674,0.994771,0.998753,,,,0
0.456381,0.034223,1.89933,0.065218,0.053414,1.000376,1.003921,,,,0
0.492958,0.036577,1.89808,0.06546,0.046859,0.999644,1.002881,,,,0
0.532891,0.039934,1.897503,0.066915,0.054871,1.000376,1.004111,,,,0
0.571151,0.03826,1.897184,0.093342,0.048316,0.985997,0.991584,,,,0
0.61412,0.042969,1.896289,0.084614,0.034477,0.994771,0.998958,,,,0
0.651816,0.037696,1.896336,0.099645,0.055842,0.988434,0.995013,,,,0
0.680932,0.029116,1.896617,0.096009,0.048073,1.006224,1.011937,,,,0
0.716218,0.035286,1.896525,0.104494,0.052686,0.99014,0.997032,,,,0
0.745245,0.029027,1.896693,0.088735,0.056328,1.001107,1.006609,,,,0
0.776545,0.031299,1.897103,0.07928,0.043217,0.995989,1.000074,,,,0
0.812233,0.035688,1.896775,0.08025,0.056813,0.936283,0.941432,,,,0
0.840435,0.028202,1.897534,0.086311,0.048316,0.99209,0.997009,,,,0
0.873234,0.032799,1.898025,0.071279,0.04953,1.057644,1.0612,,,,0
0.901622,0.028388,1.898213,0.083886,0.042974,0.992821,0.997285,,,,0
0.933502,0.03188,1.898624,0.087765,0.047345,0.988678,0.993694,,,,0
0.961829,0.028327,1.899231,0.084614,0.045645,0.994771,0.999405,,,,0
0.993778,0.03195,1.899657,0.079522,0.052443,1.004518,1.009025,,,,0
1.022097,0.028319,1.899458,0.07831,0.042489,0.998182,1.002151,,,,0
1.05549,0.033393,1.899045,0.074673,0.050744,0.995014,0.999102,,,,0
1.083943,0.028453,1.898631,0.082917,0.048801,0.996233,1.000868,,,,0
1.115444,0.031502,1.897694,0.073704,0.052929,0.999157,1.003269,,,,0
1.142709,0.027265,1.896699,0.083159,0.0539,0.987947,0.992905,,,,0
1.169989,0.02728,1.897026,0.075886,0.053657,0.999401,1.003713,,,,0
1.204299,0.03431,1.89588,0.081704,0.045402,0.999157,1.00352,,,,0
1.231359,0.02706,1.894903,0.083886,0.046373,0.999644,1.004229,,,,0
1.272869,0.04151,1.893665,0.079765,0.046373,0.999157,1.003408,,,,0
1.305114,0.032245,1.892358,0.075158,0.047102,1.000619,1.004543,,,,0
1.334536,0.029422,1.891468,0.082189,0.056085,0.996233,1.001189,,,,0
1.361717,0.02718,1.892213,0.081462,0.051715,0.993552,0.998227,,,,0
1.395881,0.034165,1.891163,0.074916,0.045888,0.993065,0.996943,,,,0
1.423016,0.027134,1.890293,0.080977,0.043703,0.991359,0.99562,,,,0
1.453797,0.030781,1.889598,0.07734,0.041518,0.99209,0.995966,,,,0
1.480469,0.026673,1.888296,0.078068,0.043217,0.989409,0.993425,,,,0
1.507103,0.026634,1.88612,0.076128,0.040789,0.999401,1.003126,,,,0
1.540723,0.03362,1.883796,0.080492,0.040789,1.001838,1.005893,,,,0
1.567341,0.026618,1.881598,0.083644,0.045159,1.00525,1.009734,,,,0
1.593903,0.026562,1.879393,0.074673,0.04346,1.00135,1.005071,,,,0
1.620476,0.026573,1.877586,0.086553,0.04346,0.99867,1.003355,,,,0
1.654463,0.033987,1.875961,0.076855,0.044674,0.993552,0.997521,,,,0
1.681352,0.02689,1.874273,0.077825,0.045402,0.991359,0.995445,,,,0
1.715506,0.034153,1.87226,0.069582,0.044674,1.001107,1.004516,,,,0
1.742094,0.026588,1.871217,0.086553,0.042731,1.003787,1.008418,,,,0
1.775718,0.033624,1.87024,0.078552,0.047345,1.008661,1.012823,,,,0
1.802309,0.026592,1.869107,0.076128,0.044431,0.999888,1.003766,,,,0
1.828914,0.026605,1.867388,0.072734,0.04346,0.997207,1.000801,,,,0
1.86271,0.033796,1.865806,0.07637,0.04176,0.998182,1.00197,,,,0
1.889409,0.026699,1.864212,0.074188,0.045159,0.997695,1.001468,,,,0
1.916111,0.026702,1.862537,0.078068,0.03909,0.99867,1.002479,,,,0
1.949826,0.033715,1.861026,0.076128,0.038604,0.99867,1.002311,,,,0
1.976414,0.026588,1.859708,0.084371,0.040789,0.990384,0.994808,,,,0
2.002996,0.026582,1.859264,0.079765,0.044188,0.998426,1.002581,,,,0
2.03678,0.033784,1.858542,0.07637,0.047102,1.003056,1.007061,,,,0
2.063729,0.026949,1.857666,0.06643,0.032534,1.004275,1.006995,,,,0
2.090369,0.02664,1.856537,0.064976,0.030106,0.99014,0.992727,,,,0
2.124061,0.033692,1.855221,0.063763,0.034962,0.993796,0.996453,,,,0
2.150918,0.026857,1.853784,0.066915,0.036662,0.999644,1.002552,,,,0
2.177513,0.026594,1.851902,0.074188,0.03909,1.000376,1.003884,,,,0
2.211126,0.033613,1.850422,0.080977,0.040546,0.992821,0.996943,,,,0
2.237731,0.026606,1.849452,0.077825,0.039575,0.999157,1.002965,,,,0
2.271616,0.033885,1.848551,0.06934,0.044431,1.002325,1.005703,,,,0
2.300399,0.028783,1.847348,0.071764,0.032534,1.002081,1.005174,,,,0
2.327155,0.026756,1.846173,0.07831,0.034234,0.937745,0.941632,,,,0
2.360712,0.033556,1.844902,0.06934,0.037147,0.99209,0.995204,,,,0
2.387239,0.026527,1.843876,0.075401,0.050986,0.998426,1.002566,,,,0
2.413768,0.026528,1.843007,0.073461,0.053414,0.998182,1.002306,,,,0
2.440281,0.026514,1.84268,0.070794,0.044188,1.005006,1.008465,,,,0
2.474051,0.033769,1.842175,0.067642,0.037147,0.997451,1.000432,,,,0
2.500549,0.026498,1.841758,0.070794,0.035933,0.999644,1.002792,,,,0
2.527079,0.026531,1.841263,0.077825,0.038604,0.988922,0.99273,,,,0
2.553599,0.02652,1.840158,0.071279,0.036662,0.981611,0.984878,,,,0
2.587124,0.033525,1.839275,0.067158,0.039575,1.005981,1.008996,,,,0
2.613641,0.026517,1.838741,0.082917,0.043945,1.000132,1.004525,,,,0
2.640828,0.027187,1.838122,0.072976,0.038361,1.00135,1.004739,,,,0
2.672266,0.031437,1.837686,0.074916,0.038847,1.002081,1.005628,,,,0
2.698839,0.026574,1.837491,0.071037,0.034234,1.000619,1.003722,,,,0
2.72535,0.026511,1.836797,0.065945,0.039575,1.000132,1.003085,,,,0
2.758895,0.033545,1.835055,0.071279,0.035448,1.000376,1.003538,,,,0
2.785405,0.02651,1.83252,0.062309,0.02525,0.993552,0.995824,,,,0
2.811987,0.026582,1.829702,0.06934,0.024522,0.99672,0.99943,,,,0
2.838521,0.026534,1.826426,0.082674,0.037633,0.988922,0.993085,,,,0
2.872088,0.033567,1.824318,0.092857,0.035691,0.978687,0.983729,,,,0
2.898597,0.026508,1.821553,0.085826,0.041275,0.986729,0.991314,,,,0
2.925133,0.026536,1.819216,0.097706,0.047587,0.986729,0.992695,,,,0
2.95865,0.033517,1.817662,0.101827,0.040304,1.000376,1.006352,,,,0
2.985162,0.026512,1.816314,0.091645,0.036904,1.003056,1.00791,,,,0
3.011682,0.02652,1.815158,0.102312,0.005584,1.044972,1.049984,,,,0
3.038408,0.026726,1.812365,0.096736,0.018695,0.999888,1.004731,,,,0
3.072154,0.033746,1.810734,0.097221,0.022823,0.993552,0.998558,,,,0
3.098915,0.026761,1.810541,0.098675,0.043217,0.999157,1.004947,,,,0
3.12569,0.026775,1.808669,0.084856,0.041032,1.001838,1.006262,,,,0
3.159517,0.033827,1.806645,0.090917,0.04783,0.997939,1.003212,,,,0
3.186051,0.026534,1.806095,0.112737,0.029621,0.983561,0.990444,,,,0
3.212564,0.026512,1.804929,0.096493,0.027193,0.997695,1.002719,,,,0
3.246111,0.033548,1.802966,0.100615,0.02865,1.00135,1.0068,,,,0
3.272689,0.026577,1.800428,0.091402,0.037147,1.016703,1.021479,,,,0
3.300959,0.02827,1.798285,0.105222,0.013839,1.005737,1.011321,,,,0
3.327729,0.026771,1.795448,0.092857,0.020152,1.000376,1.004878,,,,0
3.361492,0.033763,1.793046,0.12486,0.036904,0.970157,0.978855,,,,0
3.38811,0.026618,1.790958,0.126557,0.035691,0.966502,0.975406,,,,0
3.414721,0.026611,1.788428,0.104009,0.053657,0.978443,0.985417,,,,0
3.448334,0.033613,1.78691,0.112737,0.012868,0.999157,1.00558,,,,0
3.475022,0.026687,1.785742,0.109343,0.018938,0.988678,0.994886,,,,0
3.501651,0.026629,1.781481,0.099645,0.035448,0.994039,0.99965,,,,0
3.53547,0.033819,1.777886,0.099403,-0.011338,1.01451,1.019431,,,,0
3.562541,0.027071,1.773046,0.100615,-0.147148,1.054233,1.069197,,,,0
3.596931,0.03439,1.770311,0.064006,0.312231,1.033031,1.081082,,,,0
3.624859,0.027927,1.750515,-0.038506,-0.386444,0.780805,0.872054,,,,0
3.6559,0.031041,1.739481,0.086311,0.049287,1.22019,1.224231,,,,1
3.682714,0.026814,1.762353,-0.311753,0.090319,0.738401,0.806588,,,,0
3.719243,0.036529,1.790143,0.139406,0.092504,0.926292,0.94128,,,,0
3.753659,0.034417,1.804144,-0.017278,-0.038355,0.946031,0.946966,,,,0
3.787652,0.033993,1.810164,0.038306,-0.079605,1.007199,1.011066,,,,0
3.816741,0.029088,1.816388,0.158317,-0.056447,0.969913,0.984369,,,,0
3.841242,0.024502,1.829737,0.16656,-0.040285,0.989409,1.004139,,,,0
3.877549,0.036307,1.842706,0.120738,0.000486,1.017191,1.024331,,,,0
3.904025,0.026476,1.85862,0.124132,0.031806,1.019871,1.02789,,,,0
3.936857,0.032832,1.877144,0.049459,0.015053,1.004762,1.006091,,,,0
3.973314,0.036457,1.891284,0.055035,0.022337,0.997207,0.998975,,,,0
4.0001,0.026786,1.90765,0.074673,0.02865,0.973082,0.976363,,,,0
4.026328,0.026229,1.932039,0.072249,0.053414,0.950174,0.954413,,,,0
4.060629,0.0343,1.950009,-0.002962,-0.049934,0.960166,0.961468,,,,0
4.092245,0.031616,1.963237,-0.026905,0.034962,1.004031,1.005,,,,0
4.129479,0.037235,1.982597,0.043155,0.020395,1.027182,1.028291,,,,0
4.167383,0.037904,1.997825,-0.000247,0.006555,1.025476,1.025497,,,,0
4.195075,0.027692,2.012946,-0.017278,0.009954,1.053258,1.053446,,,,0
4.222431,0.027356,2.031804,0.023032,0.088619,1.183392,1.186929,,,,1
4.25806,0.03563,2.053762,0.102555,0.094204,1.085913,1.094805,,,,0
4.293877,0.035816,2.072106,0.080734,0.025008,0.974056,0.977716,,,,0
4.328268,0.034391,2.086533,0.091645,-0.027017,0.941645,0.946479,,,,0
4.359596,0.031328,2.097069,0.098191,-0.033772,0.936527,0.942266,,,,0
4.387346,0.02775,2.107973,0.111525,-0.019057,0.944813,0.951563,,,,0
4.414908,0.027562,2.123198,0.081219,-0.025087,0.965283,0.969019,,,,0
4.451936,0.037028,2.130387,0.024972,-0.041491,0.975518,0.97672,,,,0
4.476217,0.024282,2.13938,0.076855,0.005827,0.981855,0.984875,,,,0
4.512846,0.036628,2.143065,0.070794,0.008255,0.953342,0.956003,,,,0
4.53633,0.023485,2.147878,0.070552,0.009712,0.977224,0.979816,,,,0
4.563658,0.027327,2.148903,0.058672,0.012625,0.976493,0.978336,,,,0
4.595097,0.03144,2.147472,0.097463,0.022823,0.985997,0.991066,,,,0
4.622837,0.02774,2.146898,0.101827,-0.014232,0.995014,1.000312,,,,0
4.650723,0.027886,2.141872,0.044852,-0.042215,1.025964,1.027811,,,,0
4.683297,0.032574,2.132608,0.047277,0.013839,1.085426,1.086543,,,,0
4.711318,0.028022,2.122202,0.073704,0.000486,1.151711,1.154067,,,,0
4.746509,0.035191,2.115797,0.056247,0.024036,1.133922,1.13557,,,,0
4.780099,0.033591,2.121022,-0.001481,-0.014232,1.158779,1.158867,,,,0
4.816336,0.036237,2.12787,-0.059241,-0.035943,1.244316,1.246244,,,,1
4.850945,0.034609,2.124195,-0.120703,-0.038355,1.170476,1.177308,,,,0
4.884334,0.03339,2.114482,-0.056772,-0.07478,1.001838,1.006228,,,,0
4.917631,0.033297,2.105306,-0.051589,-0.061995,0.90972,0.913288,,,,0
4.942793,0.025162,2.091516,-0.04912,-0.069956,0.851721,0.855999,,,,0
4.970267,0.027474,2.076722,-0.021968,-0.081293,0.805662,0.810051,,,,0
4.998249,0.027982,2.066738,0.033215,-0.093837,0.790553,0.796795,,,,0
5.030628,0.032379,2.066266,0.05746,-0.00989,0.862687,0.864655,,,,0
5.059681,0.029053,2.072949,0.042428,-0.055723,0.903384,0.906095,,,,0
5.090968,0.031288,2.085166,0.034427,-0.077192,0.951636,0.955382,,,,0
5.120382,0.029413,2.105824,0.016729,-0.041008,1.071535,1.07245,,,,0
5.153279,0.032897,2.121173,-0.003209,-0.055964,1.058132,1.059615,,,,0
5.181492,0.028213,2.130772,-0.025918,-0.079363,0.966014,0.969615,,,,0
5.213839,0.032347,2.135937,0.005334,-0.097938,0.906065,0.911358,,,,0
5.241959,0.02812,2.141914,0.050186,-0.100832,0.872191,0.879433,,,,0
5.273344,0.031385,2.14451,0.047277,-0.017127,0.907283,0.908676,,,,0
5.301121,0.027776,2.143965,0.072491,-0.057894,0.908989,0.913711,,,,0
5.329088,0.027967,2.145252,0.086796,-0.060306,0.923611,0.929638,,,,0
5.361834,0.032746,2.14507,0.098675,-0.053552,0.943107,0.949766,,,,0
5.389593,0.02776,2.142424,0.098918,-0.06103,0.979418,0.98629,,,,0
5.424911,0.035318,2.138581,0.10304,-0.06682,1.073728,1.080729,,,,0
5.458271,0.033359,2.129808,0.072734,-0.031842,1.140989,1.143748,,,,0
5.492062,0.033791,2.116886,0.096978,-0.019781,1.130022,1.134348,,,,0
5.525934,0.033873,2.113287,0.099888,-0.063684,1.153417,1.159485,,,,0
5.552668,0.026734,2.118059,0.070309,-0.061754,1.193627,1.19729,,,,1
5.5792,0.026531,2.129506,-0.054798,-0.053311,1.266005,1.268311,,,,0
5.612719,0.033519,2.133202,-0.092563,-0.001447,1.233593,1.237062,,,,0
5.639254,0.026536,2.132905,-0.10219,0.034719,1.16877,1.173743,,,,0
5.666248,0.026994,2.125886,-0.117741,0.039818,0.941157,0.949329,,,,0
5.699842,0.033594,2.1129,-0.061709,0.031806,0.764721,0.767865,,,,0
5.726417,0.026574,2.104985,0.039519,0.025493,0.702334,0.703907,,,,0
5.752956,0.02654,2.107661,0.064006,0.024279,0.772275,0.775303,,,,0
5.786553,0.033597,2.110346,0.047035,0.044188,0.836855,0.83934,,,,0
5.813139,0.026585,2.114275,0.070309,0.014325,0.894367,0.897241,,,,0
5.839669,0.02653,2.123459,0.040973,-0.006996,0.942619,0.943535,,,,0
5.873538,0.03387,2.130498,0.022063,-0.025329,0.967964,0.968547,,,,0
5.900326,0.026788,2.132283,0.014789,-0.034013,0.98746,0.988156,,,,0
5.926894,0.026568,2.131224,0.043398,-0.047522,1.001107,1.003173,,,,0
5.960409,0.033514,2.125889,0.040488,-0.030636,0.995258,0.996552,,,,0
5.986954,0.026546,2.115223,0.061339,-0.013026,0.962846,0.964886,,,,0
6.013466,0.026511,2.100968,0.083644,-0.024846,0.928241,0.932333,,,,0
6.04132,0.027854,2.086983,0.110313,-0.049934,0.90314,0.911222,,,,0
6.067937,0.026617,2.073943,0.125345,-0.061513,0.893636,0.904478,,,,0
6.094516,0.026579,2.055881,0.114434,-0.040043,0.986485,0.993907,,,,0
6.128073,0.033556,2.041114,0.129466,-0.037872,0.994283,1.003392,,,,0
6.15481,0.026737,2.02623,0.138194,-0.019539,1.032544,1.041934,,,,0
6.181626,0.026816,2.011633,0.131891,-0.005548,1.101753,1.109634,,,,0
6.215184,0.033557,1.998698,0.083886,-0.024364,1.126611,1.129992,,,,0
6.241803,0.026619,1.983516,0.042913,-0.037631,1.121249,1.122701,,,,0
6.268378,0.026575,1.964522,0.024245,-0.067061,1.108577,1.110868,,,,0
6.301905,0.033527,1.954415,-0.00938,-0.129297,1.125636,1.133076,,,,0
6.328386,0.026481,1.948738,-0.040481,-0.132192,1.256745,1.264326,,,,1
6.355862,0.027476,1.92988,-0.114532,-0.068749,1.301829,1.308664,,,,0
6.38963,0.033768,1.907389,-0.03826,-0.097696,1.018165,1.023557,,,,0
6.416165,0.026535,1.884261,-0.003456,-0.150043,0.757897,0.772614,,,,0
6.442689,0.026524,1.855901,-0.012589,-0.167411,0.739864,0.758672,,,,0
6.476286,0.033597,1.838729,0.011153,-0.160656,0.796158,0.812282,,,,0
6.502812,0.026527,1.823249,-0.000987,-0.092872,0.964308,0.968771,,,,0
6.529334,0.026522,1.808059,-0.007405,-0.085394,0.982342,0.986074,,,,0
6.562869,0.033535,1.798907,-0.014316,-0.093354,0.958947,0.963587,,,,0
6.589422,0.026553,1.790166,-0.037272,-0.108552,0.933603,0.940631,,,,0
6.616117,0.026695,1.782015,-0.026658,-0.095767,0.939695,0.944938,,,,0
6.642789,0.026671,1.7736,0.006788,-0.02943,0.962359,0.962833,,,,0
6.676799,0.03401,1.770161,0.045095,-0.02171,0.945787,0.947111,,,,0
6.703344,0.026545,1.763461,0.027639,-0.063201,0.914594,0.917192,,,,0
6.736888,0.033544,1.760135,0.101342,-0.055,0.87609,0.883645,,,,0
6.763336,0.026448,1.761373,0.173591,-0.016403,0.924586,0.940884,,,,0
6.789815,0.026479,1.763279,0.178925,0.010683,0.952611,0.969328,,,,0
6.816252,0.026438,1.762487,0.134557,-0.056929,0.921418,0.932929,,,,0
6.842725,0.026473,1.761622,0.146922,-0.084429,0.944813,0.959888,,,,0
6.87631,0.033585,1.757056,0.143528,-0.01568,1.013048,1.023285,,,,0
6.902781,0.02647,1.750667,0.139406,-0.006513,1.060325,1.06947,,,,0
6.929423,0.026643,1.744631,0.109586,-0.034978,1.07251,1.078661,,,,0
6.955915,0.026492,1.739763,0.049217,-0.035943,1.170232,1.171818,,,,0
6.989392,0.033476,1.739142,0.045095,0.005827,1.175837,1.176716,,,,0
7.015833,0.026442,1.748903,0.00194,-0.0275,1.276728,1.277025,,,,1
7.043506,0.027673,1.765301,-0.099475,-0.04535,1.256988,1.261734,,,,0
7.077111,0.033604,1.765267,-0.149582,-0.007478,1.095661,1.10585,,,,0
7.103623,0.026512,1.75831,-0.021968,-0.083947,0.933603,0.937627,,,,0
7.137094,0.033471,1.756454,0.043398,-0.050899,0.81809,0.82082,,,,0
7.163955,0.026861,1.763299,0.082674,-0.012061,0.882426,0.886373,,,,0
7.190418,0.026463,1.776523,0.008728,0.005341,0.963334,0.963388,,,,0
7.21693,0.026512,1.790036,-0.059734,0.01044,0.993796,0.995644,,,,0
7.250417,0.033487,1.799796,-0.040975,-0.00796,0.944082,0.945004,,,,0
7.277094,0.026677,1.808344,-0.021228,-0.002895,0.894855,0.895111,,,,0
7.303569,0.026476,1.815184,-0.001481,-0.010855,0.868536,0.868605,,,,0
7.330184,0.026615,1.819589,0.032488,0.001214,0.862687,0.863299,,,,0
7.364061,0.033877,1.822767,0.078795,0.007769,0.86025,0.863886,,,,0
7.390543,0.026482,1.826024,0.096978,0.007527,0.855376,0.860889,,,,0
7.417161,0.026618,1.829729,0.108373,-0.007237,0.843922,0.850883,,,,0
7.450662,0.033501,1.833491,0.112252,-0.030636,0.876578,0.884267,,,,0
7.477191,0.02653,1.833926,0.096736,-0.034737,0.920199,0.925922,,,,0
7.503638,0.026446,1.830803,0.120738,-0.023399,0.946762,0.954717,,,,0
7.530086,0.026448,1.827356,0.15565,-0.043662,0.998913,1.01191,,,,0
7.563565,0.033478,1.823842,0.107646,-0.059824,1.057401,1.064548,,,,0
7.59004,0.026476,1.817735,0.088493,-0.05114,1.117594,1.122258,,,,0
7.616477,0.026437,1.810021,0.07928,-0.01375,1.241392,1.243997,,,,1
7.643115,0.026637,1.803519,0.066188,-0.005548,1.202888,1.20472,,,,0
7.677,0.033885,1.801481,0.038306,-0.031842,1.154148,1.155223,,,,0
7.703537,0.026537,1.803375,-0.020487,-0.105657,1.140501,1.145568,,,,0
7.730011,0.026474,1.806167,-0.089108,-0.104451,1.206056,1.213845,,,,0
7.763655,0.033644,1.803184,-0.109101,-0.001206,1.195089,1.20006,,,,0
7.790136,0.026481,1.794695,-0.033816,-0.015921,1.019384,1.020069,,,,0
7.81685,0.026714,1.787942,0.000727,-0.075745,0.814191,0.817707,,,,0
7.843405,0.026555,1.780133,-0.000741,-0.061754,0.748637,0.75118,,,,0
7.876954,0.033549,1.780564,0.064976,-0.027259,0.84709,0.850016,,,,0
7.903433,0.026479,1.786499,0.04267,0.008741,0.925804,0.926828,,,,0
7.929888,0.026455,1.795424,-0.014316,-0.014232,0.95846,0.958672,,,,0
7.956329,0.026441,1.803857,-0.051342,-0.031359,0.953098,0.954995,,,,0
7.989794,0.033465,1.807933,-0.063437,-0.03546,0.928729,0.931568,,,,0
8.01624,0.026445,1.810822,-0.016291,-0.021228,0.899729,0.900127,,,,0
8.043904,0.027664,1.81575,0.03273,-0.011338,0.883157,0.883836,,,,0
8.077501,0.033597,1.822341,0.047762,-0.020745,0.897535,0.899045,,,,0
8.103966,0.026465,1.828777,0.037822,-0.023399,0.909964,0.91105,,,,0
8.130463,0.026497,1.835859,0.083644,-0.018574,0.915082,0.919084,,,,0
8.164249,0.033786,1.842612,0.101342,-0.011096,0.944569,0.950055,,,,0
8.190732,0.026484,1.848308,0.08825,-0.038837,0.950661,0.955538,,,,0
8.21718,0.026447,1.849818,0.088493,-0.012785,1.000619,1.004606,,,,0
8.250599,0.033419,1.851341,0.124375,0.022823,1.070317,1.07776,,,,0
8.277122,0.026524,1.853797,0.12292,0.029378,1.102728,1.109947,,,,0
8.303867,0.026745,1.854983,0.076613,0.001457,1.081527,1.084238,,,,0
8.330475,0.026608,1.855356,0.048004,-0.000965,1.088107,1.089165,,,,0
8.365258,0.034783,1.864405,0.047519,0.055357,1.24261,1.24475,,,,1
8.396835,0.031577,1.883027,-0.005677,0.046131,1.196308,1.19721,,,,0
8.424456,0.027621,1.903042,-0.17476,-0.038355,1.176568,1.190095,,,,0
8.452483,0.028028,1.914049,-0.252266,-0.074056,1.147081,1.176825,,,,0
8.484317,0.031834,1.90976,-0.181918,-0.008684,1.042291,1.058084,,,,0
8.512556,0.028239,1.911176,0.029094,0.001457,0.931166,0.931621,,,,0
8.547915,0.035358,1.929331,0.08922,-0.005548,0.911426,0.9158,,,,0
8.582802,0.034887,1.947077,0.038549,0.027678,0.953829,0.955009,,,,0
8.614191,0.031389,1.964157,0.043883,0.027678,0.933359,0.9348,,,,0
8.642301,0.02811,1.983254,0.049217,0.03132,0.905821,0.907698,,,,0
8.672815,0.030513,2.000811,0.062793,0.001214,0.854645,0.856949,,,,0
8.703983,0.031168,2.017435,0.061339,-0.020504,0.82004,0.822586,,,,0
8.738804,0.034821,2.032151,0.077098,-0.022193,0.838073,0.841905,,,,0
8.773407,0.034603,2.041877,0.090917,-0.008925,0.933846,0.938304,,,,0
8.80183,0.028422,2.050696,0.078795,-0.010614,0.888519,0.892069,,,,0
8.833162,0.031332,2.05507,0.068855,-0.035943,0.91362,0.916915,,,,0
8.868133,0.034971,2.052475,0.047519,-0.07092,0.947006,0.950846,,,,0
8.896096,0.027964,2.041406,0.05746,-0.081293,0.979174,0.984221,,,,0
8.927486,0.03139,2.031295,0.093099,-0.085635,1.036686,1.044375,,,,0
8.95541,0.027923,2.019927,0.022305,-0.045109,1.105409,1.106554,,,,0
8.983271,0.027861,2.008614,0.026911,-0.044144,1.145863,1.147028,,,,0
9.014686,0.031415,2.002053,0.03467,-0.048486,1.139283,1.140841,,,,0
9.042814,0.028129,1.991716,0.00994,-0.109758,1.080796,1.0864,,,,0
9.070705,0.027891,1.979958,0.017699,-0.143771,1.097854,1.10737,,,,0
9.102459,0.031754,1.972802,0.01285,-0.027982,1.197039,1.197435,,,,1
9.131223,0.028764,1.96097,-0.034804,0.035205,1.248946,1.249927,,,,0
9.163718,0.032495,1.945167,-0.002468,0.039575,1.090787,1.091508,,,,0
9.1919,0.028181,1.927166,-0.001234,-0.047039,0.828569,0.829904,,,,0
9.22332,0.031421,1.913201,-0.004443,-0.123025,0.760334,0.770236,,,,0
9.2512,0.02788,1.907504,0.055763,-0.076227,0.800788,0.806338,,,,0
9.279093,0.027893,1.912868,0.039276,-0.022916,0.934577,0.935683,,,,0
9.310505,0.031412,1.921165,-0.00469,-0.026052,0.981367,0.981724,,,,0
9.338308,0.027803,1.929496,-0.08269,-0.045109,0.999157,1.003587,,,,0
9.366394,0.028086,1.936332,-0.095772,-0.075745,0.961872,0.969591,,,,0
9.399578,0.033184,1.936596,-0.060228,-0.036666,0.935309,0.937963,,,,0
9.427415,0.027837,1.93238,-0.009627,-0.018816,0.912157,0.912402,,,,0
9.458631,0.031217,1.931016,0.002667,-0.009167,0.91825,0.918299,,,,0
9.486444,0.027813,1.92971,0.035397,0.000728,0.995502,0.996131,,,,0
9.514376,0.027932,1.92776,0.072006,0.015539,0.936283,0.939177,,,,0
9.54556,0.031184,1.930226,0.112495,-0.006513,0.925804,0.932637,,,,0
9.573486,0.027925,1.933242,0.111283,-0.026052,0.952367,0.959201,,,,0
9.601411,0.027926,1.933823,0.086553,-0.006513,1.044241,1.047842,,,,0
9.632867,0.031456,1.934304,0.110798,0.018452,1.087863,1.093646,,,,0
9.663481,0.030614,1.935773,0.105949,0.005341,1.105896,1.110973,,,,0
9.688521,0.025041,1.933071,0.054065,-0.025087,1.060812,1.062485,,,,0
9.720109,0.031588,1.930736,0.028124,-0.060789,1.051308,1.05344,,,,0
9.748103,0.027994,1.931012,0.01091,-0.018574,1.170476,1.170674,,,,0
9.782843,0.03474,1.940614,-0.002715,0.016267,1.155854,1.155972,,,,0
9.817553,0.03471,1.953393,-0.070101,0.025008,1.175837,1.178191,,,,0
9.845223,0.027671,1.966434,-0.11231,0.054871,1.156098,1.162836,,,,0
9.87675,0.031527,1.969757,-0.104658,0.073809,1.041317,1.049162,,,,0
9.904833,0.028083,1.97039,-0.037519,0.050986,0.831981,0.834386,,,,0
9.939897,0.035064,1.977032,0.020608,0.034234,0.797132,0.798133,,,,0
9.971486,0.031589,1.988643,0.036367,0.029378,0.809074,0.810423,,,,0
9.999362,0.027876,2.003536,0.032973,0.039332,0.846115,0.847671,,,,0
10.029717,0.030355,2.023036,0.027881,0.01651,0.894611,0.895198,,,,0
10.06162,0.031902,2.040861,-0.008392,0.009226,0.972594,0.972674,,,,0
10.096518,0.034899,2.049534,0.004122,0.01214,0.993796,0.993878,,,,0
10.131335,0.034817,2.048954,0.024487,-0.024364,0.906309,0.906967,,,,0
10.166687,0.035352,2.047681,0.072976,-0.046798,0.861712,0.866062,,,,0
10.198461,0.031774,2.045094,0.087765,-0.027259,0.880477,0.88526,,,,0
10.227024,0.028563,2.040117,0.107646,-0.018092,0.902409,0.908987,,,,0
10.258494,0.031471,2.0345,0.125102,-0.02171,0.954804,0.96321,,,,0
10.286244,0.02775,2.029203,0.132375,-0.015438,0.999644,1.008489,,,,0
10.314057,0.027813,2.02258,0.136739,-0.001689,1.067392,1.076116,,,,0
10.348826,0.034769,2.021878,0.133103,0.002671,1.221409,1.228643,,,,1
10.380728,0.031902,2.02192,0.105222,0.000971,1.250652,1.255071,,,,0
10.407084,0.026356,2.013981,0.026427,0.011168,1.201425,1.201768,,,,0
10.435228,0.028144,1.999111,0.03564,-0.006031,1.117837,1.118422,,,,0
10.470254,0.035026,1.993194,0.062066,-0.030877,1.069829,1.072073,,,,0
10.505088,0.034835,1.986665,-0.077013,-0.038837,1.169258,1.172434,,,,0
10.539877,0.034789,1.967585,-0.169576,-0.006996,1.07519,1.088503,,,,0
10.574893,0.035016,1.945299,-0.090095,-0.025811,0.914594,0.919383,,,,0
10.609976,0.035082,1.927673,-0.062203,-0.079605,0.789578,0.796015,,,,0
10.641568,0.031593,1.914491,-0.058253,-0.114824,0.758385,0.769237,,,,0
10.671964,0.030396,1.905754,-0.038013,-0.057171,0.881208,0.883878,,,,0
10.704003,0.032039,1.905785,0.009213,-0.022193,0.968695,0.968993,,,,0
10.732278,0.028275,1.91361,-0.031595,-0.049693,0.998426,1.000161,,,,0
10.763968,0.031691,1.915521,-0.086639,-0.061754,0.998913,1.004563,,,,0
10.791497,0.027528,1.912223,-0.084418,-0.061754,0.977468,0.983048,,,,0
10.819038,0.027541,1.907968,-0.016044,-0.043179,0.950661,0.951777,,,,0
10.850126,0.031087,1.907082,0.027396,-0.019057,0.940182,0.940775,,,,0
10.877966,0.02784,1.906907,0.027639,-0.018092,0.929216,0.929803,,,,0
10.905888,0.027922,1.906908,0.04655,-0.008202,0.917031,0.918249,,,,0
10.937549,0.031662,1.91075,0.094311,-0.009649,0.925561,0.930403,,,,0
10.965422,0.027873,1.917024,0.095766,0.002671,0.939939,0.944808,,,,0
10.993067,0.027646,1.927239,0.10013,-0.0,0.982829,0.987917,,,,0
11.024269,0.031202,1.93407,0.110798,0.011411,1.016216,1.022302,,,,0
11.05221,0.027941,1.941804,0.127042,-0.002171,1.040098,1.04783,,,,0
11.080233,0.028023,1.951086,0.092614,-0.032083,1.069585,1.074067,,,,0
11.112017,0.031784,1.955484,0.064248,-0.040526,1.077871,1.080544,,,,0
11.139955,0.027938,1.959144,0.047035,-0.039561,1.081039,1.082785,,,,0
11.175731,0.035776,1.963066,0.026184,-0.025087,1.100048,1.100645,,,,0
11.207692,0.031961,1.969105,0.023275,-0.021952,1.084207,1.084679,,,,0
11.236117,0.028425,1.98207,-0.008392,-0.014232,1.073728,1.073855,,,,0
11.271064,0.034947,1.998679,-0.039,0.003642,1.089812,1.090516,,,,0
11.305937,0.034873,2.00866,-0.077506,0.0017,0.953829,0.956975,,,,0
11.340781,0.034844,2.011899,-0.108114,-0.040285,0.922393,0.92958,,,,0
11.372142,0.03136,2.009912,-0.104658,-0.034495,0.932872,0.939358,,,,0
11.400655,0.028513,2.006917,-0.042703,-0.011579,0.957972,0.958993,,,,0
11.4284,0.027745,2.008829,-0.006418,0.027921,1.022308,1.02271,,,,0
11.459895,0.031495,2.013838,-0.006911,0.012625,1.016216,1.016318,,,,0
11.487695,0.0278,2.018571,-0.052082,-0.018333,1.005981,1.007495,,,,0
11.515556,0.027861,2.021145,-0.050108,0.001942,1.025233,1.026458,,,,0
11.546833,0.031278,2.021198,-0.020241,0.024765,1.005981,1.006489,,,,0
11.574605,0.027772,2.019913,-0.005184,0.01214,0.96114,0.961231,,,,0
11.602334,0.027729,2.016615,0.006304,0.012868,0.95651,0.956617,,,,0
11.634346,0.032012,2.014327,0.050914,0.038361,0.975031,0.977113,,,,0
11.662759,0.028412,2.016374,0.068612,0.069681,1.000376,1.005144,,,,0
11.694402,0.031643,2.018919,0.035882,0.07648,1.018409,1.021907,,,,0
11.72226,0.027858,2.019938,-0.002715,0.046373,0.998426,0.999506,,,,0
11.750029,0.027769,2.019233,-0.026905,0.017481,0.968451,0.968983,,,,0
11.781343,0.031314,2.01646,-0.029373,-0.013509,0.955048,0.955595,,,,0
11.809118,0.027775,2.013422,-0.045665,-0.041008,0.964552,0.966503,,,,0
11.83691,0.027792,2.008875,-0.061215,-0.040767,1.056913,1.059469,,,,0
11.868217,0.031307,1.998865,-0.065411,-0.037631,1.006468,1.009293,,,,0
11.895994,0.027777,1.985056,-0.051095,-0.047763,0.991846,0.994309,,,,0
11.923844,0.027849,1.97051,0.002909,-0.051622,0.9743,0.975671,,,,0
11.955241,0.031398,1.959699,0.03467,-0.030636,0.98746,0.988543,,,,0
11.98304,0.027799,1.948982,0.046307,-0.019057,0.983317,0.984591,,,,0
12.0108,0.02776,1.940891,0.053338,-0.025329,0.987703,0.989467,,,,0
12.044572,0.033772,1.935564,0.023032,-0.012785,1.007443,1.007787,,,,0
12.072273,0.027701,1.930095,-0.000494,0.003642,1.009149,1.009155,,,,0
12.103697,0.031425,1.924718,-0.01481,0.061912,0.999888,1.001913,,,,0
12.131392,0.027694,1.918446,-0.016291,0.006313,0.987947,0.988102,,,,0
12.159439,0.028047,1.911613,0.01285,0.000243,0.969182,0.969268,,,,0
12.191187,0.031748,1.907419,0.033458,-0.012785,0.968208,0.96887,,,,0
12.219265,0.028078,1.901127,0.049944,-0.028947,0.961628,0.963359,,,,0
12.254104,0.034839,1.897959,0.092129,0.001457,1.01256,1.016744,,,,0
12.289063,0.034959,1.896369,0.066915,0.02865,1.054964,1.057472,,,,0
12.32383,0.034767,1.89424,0.032003,0.010926,1.03693,1.037481,,,,0
12.35867,0.034839,1.892388,0.053338,0.009469,0.992821,0.994298,,,,0
12.390192,0.031522,1.893978,0.071279,0.022337,0.996476,0.999272,,,,0
12.417517,0.027325,1.897113,0.070794,0.022337,0.992577,0.995349,,,,0
12.443614,0.026096,1.901242,0.045095,0.000728,0.974056,0.9751,,,,0
12.478387,0.034773,1.906089,0.015274,-0.002412,0.994527,0.994647,,,,0
12.512967,0.034581,1.907509,0.008243,-0.060789,0.997939,0.999822,,,,0
12.540312,0.027344,1.907939,0.009698,-0.00386,0.986241,0.986296,,,,0
12.567934,0.027623,1.908633,0.026184,0.005584,0.998426,0.998785,,,,0
12.599409,0.031475,1.910043,0.038064,0.017238,1.005981,1.006848,,,,0
12.628314,0.028905,1.91103,0.047519,0.027678,1.011098,1.012593,,,,0
12.660679,0.032365,1.91236,0.048732,0.028407,1.012804,1.014374,,,,0
12.686161,0.025482,1.913829,0.048247,0.033991,1.014023,1.015739,,,,0
12.714041,0.027881,1.91563,0.04558,0.029135,1.008905,1.010354,,,,0
12.741889,0.027848,1.918176,0.041943,0.02258,1.003056,1.004187,,,,0
12.773367,0.031478,1.920129,0.037822,0.026707,1.006955,1.008019,,,,0
12.801106,0.027739,1.922295,0.033458,0.009469,0.995989,0.996596,,,,0
12.828973,0.027867,1.925299,0.026427,0.008741,0.995258,0.995647,,,,0
12.860456,0.031483,1.926204,0.010668,0.012382,0.997451,0.997585,,,,0
12.888395,0.027939,1.92707,0.021093,0.024279,0.999644,1.000162,,,,0
12.916193,0.027798,1.927453,0.014789,0.026707,1.000376,1.000841,,,,0
12.947405,0.031212,1.926087,0.011153,0.02258,0.992334,0.992653,,,,0
12.975141,0.027736,1.925471,0.029578,0.023794,0.982829,0.983562,,,,0
13.002875,0.027734,1.925096,0.037337,0.024522,0.981124,0.98214,,,,0
13.036069,0.033194,1.925818,0.019153,0.02695,0.999157,0.999704,,,,0
13.060578,0.024509,1.927476,0.018668,0.025008,1.02109,1.021567,,,,0
13.088289,0.02771,1.928704,0.009455,0.042974,1.036686,1.03762,,,,0
13.116127,0.027838,1.929809,0.015274,0.038118,1.01646,1.017289,,,,0
13.147388,0.031261,1.932904,0.021093,0.033505,0.998182,0.998967,,,,0
13.175381,0.027993,1.936267,0.042428,0.033263,0.976006,0.977494,,,,0
13.203161,0.027781,1.941021,0.02376,0.01044,0.968451,0.968799,,,,0
13.234376,0.031214,1.943769,-0.010367,0.002185,0.994771,0.994827,,,,0
13.261835,0.027459,1.945265,-0.008392,0.014082,1.014997,1.01513,,,,0
13.289258,0.027423,1.942888,0.000727,0.015053,1.007686,1.007799,,,,0
13.324034,0.034776,1.941405,0.019638,0.020152,1.006468,1.006861,,,,0
13.358561,0.034527,1.940325,0.042913,0.033991,1.00135,1.002846,,,,0
13.39466,0.036099,1.940739,0.040731,0.042246,0.997207,0.998933,,,,0
13.431218,0.036559,1.942143,0.026427,0.03739,0.996233,0.997284,,,,0
13.456038,0.024819,1.943582,0.008001,0.026222,0.984535,0.984917,,,,0
13.48741,0.031372,1.94512,0.007758,0.022337,0.98746,0.987743,,,,0
13.514855,0.027445,1.946241,0.026184,0.043945,1.003544,1.004847,,,,0
13.542236,0.027381,1.946747,0.016001,0.023308,0.999888,1.000288,,,,0
13.573587,0.031351,1.946395,0.008001,0.02088,1.001107,1.001356,,,,0
13.601753,0.028166,1.94587,0.024002,0.035448,1.000619,1.001535,,,,0
13.629963,0.02821,1.946632,0.023517,0.036904,1.003056,1.00401,,,,0
13.662796,0.032833,1.947116,0.018911,0.029135,0.93604,0.936684,,,,0
13.695227,0.032431,1.947444,0.013819,0.031077,0.995258,0.995839,,,,0
13.722811,0.027585,1.948152,0.026911,0.037633,0.999157,1.000228,,,,0
13.750311,0.027499,1.949389,0.025699,0.032291,0.999157,1.000009,,,,0
13.784859,0.034548,1.950475,0.018911,0.027921,0.999644,1.000213,,,,0
13.812314,0.027455,1.951311,0.017941,0.021609,1.000132,1.000526,,,,0
13.843262,0.030948,1.952156,0.019881,0.025008,1.001594,1.002103,,,,0
13.870761,0.0275,1.951707,0.005819,0.021123,0.999401,0.999641,,,,0
13.898566,0.027804,1.950271,0.010668,0.023794,0.991846,0.992189,,,,0
13.933355,0.034789,1.949111,0.024002,0.032049,0.995502,0.996307,,,,0
13.968271,0.034916,1.948477,0.024487,0.03132,1.002813,1.0036,,,,0
14.003177,0.034906,1.948129,0.034185,0.034719,1.001107,1.002292,,,,0
14.036235,0.033058,1.948886,0.030548,0.032534,0.997451,0.998449,,,,0
14.060447,0.024212,1.949177,0.020365,0.032291,0.995989,0.99672,,,,0
14.08785,0.027403,1.950178,0.012122,0.024279,0.989653,0.990025,,,,0
14.122616,0.034767,1.950854,0.012607,0.025008,0.991602,0.991998,,,,0
14.157212,0.034595,1.950763,0.011637,0.017238,0.997451,0.997668,,,,0
14.185518,0.028306,1.949965,0.005576,0.017238,1.006468,1.006631,,,,0
14.220565,0.035046,1.948395,0.021578,0.038847,1.030107,1.031065,,,,0
14.255463,0.034899,1.946993,0.039034,0.029863,0.992577,0.993793,,,,0
14.286782,0.031319,1.947105,0.04364,0.038604,0.996476,0.998178,,,,0
14.314584,0.027802,1.947814,0.02182,0.034477,1.004031,1.00486,,,,0
14.342292,0.027708,1.948333,0.00994,0.028892,1.002813,1.003278,,,,0
14.377108,0.034816,1.948742,0.01188,0.022337,0.998913,0.999234,,,,0
14.411878,0.03477,1.948923,0.004606,0.025979,0.999401,0.999749,,,,0
14.445018,0.03314,1.948568,0.005334,0.022337,0.994527,0.994792,,,,0
14.472785,0.027767,1.947775,0.013577,0.02695,1.060081,1.060511,,,,0
14.511368,0.038583,1.947644,0.032488,0.056328,1.008174,1.010269,,,,0
14.539091,0.027723,1.948039,0.028124,0.047102,1.003056,1.004555,,,,0
14.567027,0.027936,1.947478,0.008486,0.026222,0.999401,0.999781,,,,0
14.594499,0.027472,1.947532,0.015517,0.025008,1.004031,1.004462,,,,0
14.629192,0.034693,1.947964,0.024245,0.037876,1.001594,1.002603,,,,0
14.664369,0.035177,1.94835,0.024002,0.034962,0.994527,0.995431,,,,0
14.696023,0.031653,1.949075,0.024729,0.038604,0.996964,0.998017,,,,0
14.724051,0.028029,1.949672,0.022063,0.037147,0.998426,0.99936,,,,0
14.751727,0.027676,1.950407,0.016729,0.038604,1.003056,1.003938,,,,0
14.782831,0.031104,1.950744,0.016971,0.038847,0.999401,1.000299,,,,0
14.810412,0.027581,1.951008,0.016244,0.035205,0.994283,0.995039,,,,0
14.837909,0.027496,1.95303,0.013577,0.040546,1.000863,1.001776,,,,0
14.872652,0.034743,1.952181,0.009213,0.038118,0.938964,0.939783,,,,0
14.907711,0.035059,1.952458,0.016729,0.030592,1.05667,1.057245,,,,0
14.942606,0.034895,1.952539,0.014062,0.029135,1.000132,1.000655,,,,0
14.978149,0.035543,1.952691,0.024487,0.029135,0.991602,0.992333,,,,0
15.009309,0.03116,1.953369,0.026911,0.034719,0.997451,0.998418,,,,0
15.03935,0.030041,1.953852,0.020123,0.035933,1.004031,1.004875,,,,0
15.070791,0.031441,1.954567,0.018183,0.039332,1.017678,1.0186,,,,0
15.098662,0.027871,1.955143,0.013819,0.045402,1.000132,1.001257,,,,0
15.131894,0.033232,1.955865,0.010668,0.024765,0.993552,0.993918,,,,0
15.16722,0.035326,1.956495,0.012607,0.023308,0.996476,0.996829,,,,0
15.195152,0.027932,1.955864,0.013335,0.018452,0.935796,0.936073,,,,0
15.22629,0.031138,1.955647,0.019396,0.018938,0.999401,0.999768,,,,0
15.25395,0.02766,1.955462,0.018911,0.024036,0.994039,0.99451,,,,0
15.289043,0.035093,1.955487,0.02279,0.034234,0.99672,0.997568,,,,0
15.31714,0.028097,1.956231,0.02376,0.042489,1.002569,1.00375,,,,0
15.348391,0.031251,1.95733,0.024002,0.037633,0.999157,1.000154,,,,0
15.37625,0.027859,1.958293,0.016001,0.030349,0.991846,0.992439,,,,0
15.403599,0.027349,1.959418,0.014789,0.032534,0.999401,1.00004,,,,0
15.440255,0.036656,1.959891,0.009213,0.018938,0.936771,0.937007,,,,0
15.473555,0.0333,1.960558,0.01188,0.022337,0.986241,0.986566,,,,0
15.505233,0.031677,1.961644,0.017699,0.031563,1.000619,1.001273,,,,0
15.532949,0.027717,1.962233,0.00994,0.034962,1.008417,1.009072,,,,0
15.560669,0.02772,1.963078,0.019638,0.039818,1.007199,1.008177,,,,0
15.592098,0.031428,1.96367,0.015759,0.024522,0.986485,0.986915,,,,0
15.620041,0.027943,1.96446,0.016486,0.03302,0.98746,0.988149,,,,0
15.648545,0.028504,1.965827,0.01188,0.037147,0.999157,0.999918,,,,0
15.681771,0.033226,1.96689,0.008001,0.03302,0.999157,0.999735,,,,0
15.716673,0.034902,1.968213,0.012122,0.042003,0.992577,0.99354,,,,0
15.751557,0.034884,1.970921,0.014547,0.034234,1.059838,1.06049,,,,0
15.786419,0.034862,1.973197,0.001697,0.017967,0.995502,0.995665,,,,0
15.8213,0.034881,1.972222,-0.008392,0.019909,1.018165,1.018395,,,,0
15.856094,0.034793,1.971456,0.02376,0.027678,0.936771,0.937481,,,,0
15.891145,0.035051,1.971635,0.030063,0.027193,0.991115,0.991944,,,,0
15.922481,0.031337,1.971864,0.002424,0.03302,1.000376,1.000923,,,,0
15.950378,0.027897,1.971878,0.006788,0.035933,0.993552,0.994225,,,,0
15.978186,0.027808,1.972674,0.013092,0.042246,0.987703,0.988693,,,,0
16.009549,0.031363,1.973959,0.006304,0.040304,0.999644,1.000476,,,,0
16.039327,0.029778,1.975371,0.010425,0.044917,0.999401,1.000464,,,,0
16.070687,0.03136,1.976153,0.005576,0.036419,0.984048,0.984737,,,,0
16.098454,0.027766,1.977276,0.009213,0.036904,0.998182,0.998907,,,,0
16.126496,0.028042,1.978452,0.003879,0.056571,0.999644,1.001251,,,,0
16.157916,0.03142,1.979022,0.005819,0.056085,1.00135,1.002937,,,,0
16.186598,0.028682,1.979762,0.02182,0.071867,1.000619,1.003434,,,,0
16.221556,0.034958,1.981282,0.017214,0.071624,0.981855,0.984614,,,,0
16.256624,0.035068,1.982749,0.012122,0.072352,0.996233,0.99893,,,,0
16.288187,0.031563,1.983667,-0.006665,0.071381,1.018409,1.020929,,,,0
16.316234,0.028047,1.984217,0.002424,0.063854,1.01256,1.014575,,,,0
16.343883,0.027649,1.984776,0.015517,0.060941,0.988678,0.990676,,,,0
16.374999,0.031116,1.986434,0.02085,0.065797,0.991602,0.994002,,,,0
16.402694,0.027695,1.987738,0.006788,0.061427,0.991359,0.993283,,,,0
16.430313,0.027619,1.98874,-0.000494,0.065311,1.003787,1.00591,,,,0
16.465363,0.03505,1.989408,-0.000247,0.058513,0.984292,0.986029,,,,0
16.496779,0.031416,1.989615,0.001455,0.066525,0.984535,0.986781,,,,0
16.524791,0.028012,1.990108,-0.000741,0.086191,1.000132,1.003839,,,,0
16.552499,0.027708,1.988817,-0.002962,0.09736,1.005006,1.009715,,,,0
16.58369,0.031191,1.988373,-0.001234,0.11654,0.998182,1.004963,,,,0
16.611247,0.027557,1.986819,0.008243,0.078422,0.982342,0.985502,,,,0
16.647063,0.035815,1.987384,0.064248,0.135235,0.942376,0.954195,,,,0
