timestamp,dt,heading_rad,accel_x,accel_y,accel_z,accel_norm,step_event
0.000311,0.000311,1.995998,0.041701,0.102216,0.977712,0.983924,0
0.131121,0.13081,1.995918,-0.03431,0.077208,0.987216,0.990825,0
0.157671,0.02655,1.995597,-0.056772,0.078179,0.993796,0.998481,0
0.184711,0.02704,1.994911,-0.047392,0.059241,1.007199,1.010052,0
0.219047,0.034336,1.993608,-0.034804,0.060455,0.979661,0.982142,0
0.245831,0.026784,1.990015,-0.042209,0.052686,1.005737,1.008,0
0.279806,0.033975,1.986198,-0.033076,0.052929,1.023527,1.025428,0
0.306582,0.026776,1.982259,-0.075779,0.064583,1.051308,1.056013,0
0.340125,0.033544,1.980402,-0.01407,0.076237,0.959678,0.962804,0
0.366742,0.026616,1.978724,-0.042949,0.082064,1.053501,1.057565,0
0.393257,0.026516,1.977997,-0.00543,0.098088,0.999401,1.004217,0
0.419858,0.0266,1.979945,-0.028139,0.085706,1.023283,1.027251,0
0.453444,0.033586,1.985033,-0.000741,0.058513,0.987703,0.989435,0
0.479949,0.026505,1.98934,-0.076519,0.034719,0.977712,0.981316,0
0.506526,0.026577,1.99286,-0.039741,0.021609,1.058863,1.059829,0
0.540078,0.033552,1.993539,-0.043443,0.07041,1.047409,1.050671,0
0.566824,0.026746,1.992016,-0.031348,0.051715,1.027913,1.029691,0
0.593361,0.026537,1.990195,-0.010861,0.1061,1.038392,1.043855,0
0.619845,0.026484,1.987178,0.003637,0.078665,0.993065,0.996182,0
0.653337,0.033492,1.983459,-0.003456,0.057785,0.94335,0.945125,0
0.679812,0.026475,1.978615,0.000242,0.055842,0.947981,0.949624,0
0.706279,0.026467,1.973731,0.009455,0.069681,0.957729,0.960307,0
0.732881,0.026603,1.969194,0.014304,0.076722,0.999401,1.002443,0
0.766374,0.033493,1.965437,-0.001234,0.092261,1.00793,1.012145,0
0.79319,0.026816,1.961942,-0.008392,0.112413,1.038149,1.044251,0
0.819663,0.026472,1.960335,-0.02962,0.070167,1.025476,1.028301,0
0.853404,0.033741,1.958664,-0.016785,0.088619,1.003544,1.007589,0
0.879886,0.026483,1.95758,-0.007899,0.081578,0.979174,0.982598,0
0.906462,0.026576,1.957218,-0.025671,0.079393,1.001838,1.005306,0
0.933252,0.02679,1.95545,-0.038013,0.072109,0.941401,0.944924,0
0.966761,0.033509,1.953388,-0.017525,0.074537,0.990871,0.993826,0
0.993292,0.026531,1.951502,-0.012342,0.080364,0.995989,0.999302,0
1.019771,0.026479,1.949489,-0.005184,0.085949,0.992577,0.996305,0
1.053324,0.033554,1.948706,-0.0,0.086677,0.998913,1.002667,0
1.080038,0.026714,1.948376,-0.015304,0.099302,1.002325,1.007348,0
1.108835,0.028797,1.954459,0.005091,0.148103,0.989165,1.000204,0
1.143458,0.034623,1.968764,0.074916,-0.030877,0.921174,0.924731,0
1.173379,0.029922,1.975255,-0.083924,0.02865,0.916056,0.920339,0
1.206412,0.033033,1.97925,-0.060968,0.032534,1.081283,1.083489,0
1.239182,0.03277,1.978046,0.02182,0.030592,0.963577,0.96431,0
1.269943,0.030761,1.975387,0.04267,0.063369,0.955048,0.958099,0
1.302226,0.032283,1.974537,-0.011601,0.058999,0.991846,0.993667,0
1.330827,0.028601,1.974085,-0.041962,0.048073,0.985754,0.987817,0
1.369497,0.03867,1.974893,-0.024684,0.103672,1.000863,1.006521,0
1.401938,0.032441,1.97477,-0.007158,0.118483,0.988678,0.995778,0
1.437646,0.035708,1.975976,-0.011108,0.091776,1.011342,1.015558,0
1.471941,0.034295,1.977316,0.006061,0.114113,0.989653,0.996229,0
1.499137,0.027196,1.979017,-0.000494,0.094446,0.969182,0.973773,0
1.529738,0.030601,1.98194,0.020365,0.084006,0.960166,0.964049,0
1.556733,0.026995,1.985669,-0.01481,0.002671,0.981124,0.981239,0
1.583266,0.026533,1.989684,-0.025424,0.049287,1.002081,1.003615,0
1.616947,0.033682,1.991804,-0.047392,0.038604,1.026451,1.02827,0
1.643431,0.026483,1.992699,-0.044677,0.039332,1.010123,1.011876,0
1.669934,0.026503,1.991274,-0.022709,0.059241,1.017434,1.019411,0
1.70894,0.039006,1.990324,-0.053317,0.053414,1.003056,1.005891,0
1.737301,0.028361,1.989721,-0.062696,0.061427,0.937745,0.941844,0
1.765598,0.028296,1.989959,-0.038506,0.069439,0.977955,0.981173,0
1.793232,0.027635,1.991024,-0.015057,0.072595,0.989653,0.992426,0
1.821064,0.027832,1.995773,-0.028633,0.067496,0.999644,1.00233,0
1.85223,0.031166,1.998963,-0.0585,0.062883,1.01646,1.020082,0
1.881081,0.028851,2.001891,-0.018513,0.058999,0.937258,0.939296,0
1.91577,0.034689,2.003638,-0.013082,0.033991,0.980149,0.980825,0
1.950532,0.034762,2.003693,-0.006171,0.029621,1.057401,1.057833,0
1.985132,0.034599,2.001301,-0.043443,0.036419,1.004275,1.005873,0
2.021161,0.036029,1.999527,-0.044677,0.042489,1.00988,1.01176,0
2.053614,0.032453,1.997879,-0.06393,0.053172,1.014266,1.017669,0
2.081054,0.02744,1.995352,-0.081209,0.054628,0.99209,0.996906,0
2.114664,0.03361,1.993338,-0.032582,0.063369,0.966502,0.969125,0
2.143002,0.028338,1.99297,0.003394,0.06434,0.965771,0.967917,0
2.177864,0.034862,1.99491,0.010425,0.075751,1.015972,1.018846,0
2.210352,0.032489,1.997122,-0.003949,0.047587,1.001107,1.002245,0
2.237975,0.027622,1.996991,-0.032335,0.018695,1.000132,1.000829,0
2.272777,0.034802,1.995244,-0.020487,0.013596,0.991846,0.992151,0
2.304675,0.031898,1.992211,-0.067633,-0.001689,0.985023,0.987343,0
2.334702,0.030027,1.985544,-0.056279,0.008498,0.999888,1.001507,0
2.365563,0.030861,1.980349,-0.012095,0.031077,1.003056,1.00361,0
2.392119,0.026556,1.978977,-0.002715,0.038361,1.00793,1.008664,0
2.425653,0.033533,1.980684,-0.009133,0.048073,1.019384,1.020558,0
2.452163,0.026511,1.981528,-0.06319,0.042974,1.010123,1.01301,0
2.479005,0.026842,1.980757,-0.078,0.013596,0.988678,0.991843,0
2.505599,0.026594,1.982434,-0.050848,-0.00193,0.985266,0.986579,0
2.539219,0.03362,1.983646,-0.06862,0.002185,1.014266,1.016587,0
2.565954,0.026734,1.981695,-0.067139,0.012382,1.021333,1.023613,0
2.592485,0.026531,1.979441,-0.068127,-0.013509,1.008417,1.010806,0
2.626002,0.033517,1.97781,-0.050601,-0.020987,0.981855,0.983382,0
2.652567,0.026565,1.977593,-0.051342,-0.02557,0.970157,0.971851,0
2.679089,0.026522,1.974552,-0.084665,-0.017851,0.966745,0.97061,0
2.705632,0.026543,1.970322,-0.062696,-0.008443,0.958216,0.960302,0
2.739289,0.033657,1.969044,-0.038013,-0.011579,0.962602,0.963422,0
2.765835,0.026546,1.968817,-0.050601,0.060941,0.999644,1.002778,0
2.792331,0.026496,1.968819,-0.058253,0.002185,1.025233,1.026889,0
2.826086,0.033755,1.969378,-0.052823,-0.000965,1.0323,1.033651,0
2.852731,0.026645,1.970369,-0.054304,-0.002171,1.022796,1.024239,0
2.879257,0.026526,1.96994,-0.076272,-0.00796,0.997939,1.000881,0
2.905767,0.026511,1.968228,-0.0585,-0.007719,0.974056,0.975842,0
2.939363,0.033596,1.966905,-0.0585,0.000971,0.977712,0.979461,0
2.965969,0.026606,1.965351,-0.058994,0.008741,0.981367,0.983178,0
2.992801,0.026832,1.964031,-0.031595,0.021851,0.983317,0.984067,0
3.026318,0.033517,1.96476,-0.014563,0.022094,0.99867,0.99902,0
3.053038,0.02672,1.965895,-0.028386,0.034719,1.018409,1.019396,0
3.07973,0.026692,1.967105,-0.025424,0.019666,1.009149,1.00966,0
3.114686,0.034956,1.969064,-0.024684,0.02088,0.993308,0.993834,0
3.148244,0.033558,1.969588,-0.036038,0.01044,0.985266,0.98598,0
3.174805,0.026561,1.969004,-0.030114,0.022823,0.986729,0.987452,0
3.201462,0.026657,1.96957,-0.002222,0.041032,0.999401,1.000245,0
3.235106,0.033643,1.97039,-0.001975,0.04176,0.99209,0.99297,0
3.262482,0.027376,1.971538,-0.00543,0.035448,0.991115,0.991764,0
3.289131,0.02665,1.973864,0.001212,0.029621,0.999157,0.999597,0
3.315796,0.026664,1.978221,0.002182,0.029135,0.999644,1.000071,0
3.342669,0.026873,1.986038,-0.041468,0.036419,1.01256,1.014063,0
3.369311,0.026643,1.993247,-0.103671,0.017238,1.018165,1.023575,0
3.402853,0.033542,1.99569,-0.063437,-0.010855,0.976981,0.979098,0
3.429368,0.026515,1.997486,0.015032,0.014568,0.992577,0.992798,0
3.455908,0.026539,2.000245,0.048974,0.019181,0.991846,0.99324,0
3.489628,0.03372,2.001622,0.025942,0.0017,0.991359,0.9917,0
3.51623,0.026602,2.002093,0.000242,-0.00796,1.023527,1.023558,0
3.542836,0.026606,2.000218,-0.010367,-0.013267,1.028888,1.029026,0
3.576614,0.033778,1.996476,-0.056525,-0.026294,1.011586,1.013505,0
3.60325,0.026636,1.991009,-0.040975,-0.019781,1.011098,1.012121,0
3.629767,0.026517,1.986752,-0.003456,-0.015921,1.060081,1.060206,0
3.656349,0.026582,1.989301,0.018183,0.008741,1.032544,1.032741,0
3.68988,0.033531,1.993421,0.006061,-0.008684,1.034493,1.034547,0
3.716493,0.026613,1.998215,-0.023203,-0.021952,1.039123,1.039614,0
3.743254,0.026761,2.006544,0.021578,-0.02364,1.042048,1.042539,0
3.776782,0.033528,2.013098,0.02279,-0.026776,1.02377,1.024374,0
3.803311,0.026529,2.021007,0.029094,-0.020263,1.004762,1.005387,0
3.830074,0.026764,2.03072,-0.013576,-0.050899,0.994039,0.995434,0
3.861239,0.031165,2.037441,-0.036532,-0.042697,0.977468,0.979082,0
3.888507,0.027268,2.043991,-0.020734,-0.031359,0.963334,0.964067,0
3.915672,0.027165,2.05149,0.000485,-0.057653,0.946762,0.948516,0
3.943235,0.027563,2.056748,-0.044184,-0.018092,0.94335,0.944558,0
3.97807,0.034835,2.058766,0.001455,-0.031601,0.898267,0.898823,0
4.009813,0.031743,2.061446,0.025457,-0.033048,0.900216,0.901182,0
4.037693,0.02788,2.062741,0.04364,-0.005307,0.908502,0.909565,0
4.066001,0.028308,2.06533,0.085583,0.000728,0.915569,0.919561,0
4.098696,0.032695,2.069143,0.096736,0.004127,0.927998,0.933035,0
4.126625,0.027929,2.073261,0.097948,0.013111,0.965771,0.970813,0
4.158142,0.031517,2.076071,0.118314,0.015782,0.989165,0.996341,0
4.186439,0.028297,2.083145,0.166075,0.008012,1.028888,1.042236,0
4.221883,0.035444,2.090125,0.097221,-0.052828,1.142451,1.147797,0
4.253767,0.031885,2.091414,0.041458,-0.066096,1.181686,1.184259,1
4.282861,0.029094,2.087296,0.12195,-0.040043,1.145375,1.152545,0
4.314514,0.031653,2.08492,0.144255,-0.04125,1.091031,1.101299,0
4.342984,0.02847,2.079726,0.031033,-0.048004,1.070073,1.071599,0
4.37804,0.035055,2.070578,0.020608,0.058756,1.095905,1.097672,0
4.41225,0.03421,2.064787,0.023032,0.054386,1.132703,1.134242,0
4.439823,0.027574,2.065623,-0.003456,0.074052,1.15098,1.153365,0
4.471449,0.031626,2.074072,-0.090095,0.092018,1.204837,1.2117,0
4.498979,0.02753,2.079073,-0.207342,0.122125,1.171938,1.196388,0
4.526596,0.027617,2.079782,-0.134032,0.122853,0.971132,0.988005,0
4.558215,0.031619,2.085386,-0.072323,0.080364,0.87804,0.884671,0
4.586183,0.027968,2.093492,-0.12712,0.052686,0.889493,0.900074,0
4.614093,0.02791,2.10638,-0.121196,0.055357,0.934334,0.943786,0
4.645549,0.031456,2.116614,-0.122924,0.073566,0.914594,0.925746,0
4.673554,0.028005,2.1309,-0.113298,0.022094,0.848309,0.856126,0
4.708503,0.034949,2.142666,-0.140943,-0.017127,0.801032,0.813517,0
4.744426,0.035923,2.144636,-0.092317,0.013839,0.825889,0.831147,0
4.775948,0.031522,2.14405,0.004606,0.035933,0.826863,0.827657,0
4.803876,0.027928,2.14491,0.058672,0.055114,0.819065,0.823011,0
4.832058,0.028183,2.146786,0.06934,0.045645,0.819065,0.823261,0
4.863576,0.031518,2.14773,0.074673,0.064097,0.85562,0.86126,0
4.898516,0.03494,2.147749,0.078552,0.059241,0.91825,0.923506,0
4.926349,0.027833,2.145527,0.081704,0.070895,1.001107,1.006934,0
4.961432,0.035083,2.139191,0.082917,0.069439,1.107846,1.113112,0
4.992895,0.031463,2.131505,0.117344,0.019909,1.103216,1.109617,0
5.020814,0.027919,2.121753,0.053823,-0.019539,1.135627,1.13707,0
5.048797,0.027983,2.106479,0.036852,-0.000482,1.222871,1.223426,1
5.080529,0.031733,2.090127,0.026669,0.009226,1.235543,1.235865,0
5.108543,0.028014,2.071123,-0.001728,-0.015197,1.208249,1.208346,0
5.13674,0.028196,2.048794,-0.065658,-0.069232,1.196795,1.200593,0
5.168414,0.031674,2.030262,-0.123418,-0.052587,1.229451,1.236748,0
5.196437,0.028023,2.010449,-0.11231,-0.024605,1.179249,1.184841,0
5.2285,0.032062,1.993476,-0.095772,-0.015197,1.039854,1.044366,0
5.256538,0.028039,1.97148,-0.095525,-0.069473,0.819552,0.82802,0
5.293102,0.036564,1.955249,-0.040234,-0.073333,0.806149,0.810477,0
5.325273,0.032171,1.941422,-0.04912,-0.040526,0.926048,0.928235,0
5.361625,0.036351,1.926172,-0.095279,-0.035701,0.898023,0.903769,0
5.392914,0.031289,1.911724,-0.089848,-0.040767,0.884132,0.88962,0
5.420497,0.027583,1.897466,-0.025424,-0.010614,0.885107,0.885536,0
5.455175,0.034678,1.885844,-0.042703,-0.00796,0.903384,0.904428,0
5.490523,0.035348,1.878712,-0.033076,0.003642,0.913863,0.914469,0
5.518888,0.028365,1.87627,-0.000494,0.028164,0.930678,0.931104,0
5.551254,0.032365,1.872974,0.019153,0.046859,0.939208,0.940571,0
5.579516,0.028263,1.86901,0.035155,0.000728,0.892174,0.892867,0
5.610908,0.031392,1.867628,0.072734,-0.028947,0.904846,0.908226,0
5.638798,0.027891,1.865211,0.124132,0.004856,0.964308,0.972277,0
5.666669,0.027871,1.860491,0.164621,0.000243,1.018165,1.031388,0
5.69804,0.031371,1.855986,0.163893,-0.034495,1.050821,1.064084,0
5.72596,0.027921,1.851005,0.122435,-0.03546,1.06398,1.071589,0
5.753947,0.027986,1.840386,0.094311,-0.019298,1.064224,1.068569,0
5.785452,0.031505,1.829924,0.062066,-0.021469,1.055695,1.057736,0
5.813367,0.027915,1.813877,-0.040975,-0.01375,1.096879,1.097731,0
5.848678,0.035311,1.803819,-0.027892,0.022823,1.233106,1.233633,1
5.880127,0.031449,1.809492,-0.033323,0.056328,1.332291,1.333897,0
5.907952,0.027824,1.817883,-0.138228,0.100516,1.351299,1.362064,0
5.935737,0.027785,1.824927,-0.165874,0.152717,1.158291,1.180032,0
5.967147,0.03141,1.829226,-0.139709,0.112899,1.017922,1.033649,0
5.995013,0.027865,1.82902,-0.1755,0.082307,0.922393,0.942541,0
6.022824,0.027811,1.822107,-0.109348,0.065311,0.840023,0.849624,0
6.054339,0.031515,1.822167,-0.008886,0.054386,0.816872,0.818728,0
6.082479,0.02814,1.827607,0.008486,0.069439,0.850502,0.853374,0
6.110612,0.028134,1.833842,-0.027399,0.060698,0.843922,0.846546,0
6.141966,0.031354,1.839476,-0.007899,0.046373,0.83125,0.83258,0
6.169882,0.027915,1.847921,0.047519,0.048316,0.875603,0.878221,0
6.197777,0.027895,1.857269,0.041701,0.07478,0.925561,0.929513,0
6.229199,0.031423,1.860163,0.02279,0.003885,0.88925,0.88955,0
6.257111,0.027912,1.859784,0.060369,0.036904,0.845141,0.848097,0
6.293793,0.036683,1.860535,0.112495,0.030349,0.853914,0.861827,0
6.325731,0.031938,1.861773,0.135285,0.017724,0.881939,0.892431,0
6.361928,0.036197,1.857532,0.079522,0.009712,0.961628,0.964959,0
6.396348,0.03442,1.856611,0.127769,0.017238,1.104434,1.111934,0
6.430982,0.034634,1.85815,0.108131,0.030349,1.158779,1.164208,0
6.458567,0.027586,1.857616,0.052853,0.022823,1.179005,1.18041,1
6.490001,0.031434,1.85738,0.026669,0.03132,1.173157,1.173878,0
6.518392,0.028391,1.853866,-0.004196,0.01044,1.147812,1.147867,0
6.550511,0.032119,1.850566,0.000727,-0.021469,1.094199,1.09441,0
6.578998,0.028487,1.853121,-0.02493,-0.065131,1.053258,1.055564,0
6.61402,0.035022,1.856382,-0.110582,-0.034495,1.07714,1.083351,0
6.649031,0.035011,1.855361,-0.084911,0.061669,1.120274,1.125179,0
6.683957,0.034926,1.857468,-0.01481,0.08959,1.092737,1.096503,0
6.715363,0.031406,1.863229,-0.053317,0.002185,1.005006,1.006421,0
6.7433,0.027937,1.867842,-0.083924,0.059241,0.953829,0.959345,0
6.771526,0.028226,1.872768,-0.070348,0.058999,0.938233,0.942714,0
6.803023,0.031497,1.880236,-0.04369,0.080364,0.952611,0.956993,0
6.83104,0.028017,1.886742,-0.038506,0.090804,0.921174,0.926439,0
6.858961,0.027921,1.891611,-0.046405,0.083278,0.874141,0.879324,0
6.890366,0.031405,1.899168,0.021093,0.078908,0.860981,0.864847,0
6.918232,0.027865,1.914089,0.046792,0.077208,0.88072,0.885336,0
6.953368,0.035136,1.930256,0.049701,0.085706,0.90509,0.910496,0
6.988422,0.035054,1.950664,0.09116,0.05997,0.90314,0.909708,0
7.023383,0.034961,1.970947,0.085099,0.04783,0.924586,0.929725,0
7.054877,0.031493,1.989283,0.133103,0.010683,0.927998,0.937555,0
7.082946,0.02807,2.010548,0.140134,-0.033772,0.959922,0.970684,0
7.115659,0.032713,2.029762,0.14474,-0.067543,0.992334,1.005106,0
7.143529,0.02787,2.047491,0.165106,-0.034737,1.050577,1.064039,0
7.171468,0.027939,2.066818,0.160014,-0.0,1.118569,1.129956,0
7.202972,0.031505,2.082322,0.122678,-0.002171,1.103947,1.110744,0
7.231776,0.028804,2.091195,0.037094,0.001942,1.086888,1.087522,0
7.266832,0.035056,2.097265,0.099888,0.029378,1.053501,1.058634,0
7.302943,0.036111,2.107043,0.076855,0.033748,1.095661,1.098872,0
7.336056,0.033113,2.116461,-0.071336,0.055842,1.169745,1.173248,0
7.370821,0.034765,2.123306,-0.057266,0.112899,1.105896,1.113118,0
7.405506,0.034685,2.140254,0.001212,0.093961,0.972838,0.977366,0
7.440195,0.034688,2.153902,-0.14119,0.077936,0.910208,0.924385,0
7.467768,0.027573,2.16447,-0.100462,0.114355,0.975518,0.987323,0
7.49909,0.031322,2.174881,0.003879,0.177724,1.022796,1.038129,0
7.526985,0.027895,2.187162,-0.039,0.142276,0.986485,0.997455,0
7.555128,0.028143,2.19676,-0.004937,0.120911,0.869998,0.878373,0
7.58668,0.031553,2.220281,0.061096,0.010683,0.889006,0.891167,0
7.623109,0.036428,2.241163,0.072249,-0.006513,0.849771,0.852862,0
7.658516,0.035408,2.264157,0.118556,-0.040767,0.908746,0.917353,0
7.690139,0.031622,2.278302,-0.040728,0.090562,1.128073,1.132435,0
7.718759,0.02862,2.287887,0.090917,0.050501,1.155367,1.160038,0
7.753507,0.034748,2.294201,-0.012095,0.104886,0.983561,0.989211,0
7.788722,0.035215,2.301033,0.096978,0.068953,0.843678,0.852029,0
7.823755,0.035033,2.296306,-0.121937,0.200789,1.056913,1.082705,0
7.855574,0.031819,2.293496,-0.025671,0.355691,1.019628,1.080192,0
7.883589,0.028015,2.301544,-0.138475,0.348165,1.149031,1.20858,1
7.911477,0.027888,2.312468,-0.219931,0.353749,1.13977,1.213501,0
7.942897,0.03142,2.317857,-0.236222,0.259545,1.114913,1.168844,0
7.971018,0.028121,2.325639,-0.14588,0.092504,0.994039,1.008936,0
8.006047,0.035028,2.347737,-0.090342,0.064826,1.150005,1.155369,0
8.041086,0.03504,2.357542,-0.283614,0.159758,1.275022,1.315918,0
8.07286,0.031774,2.3629,-0.156987,-0.014474,1.225795,1.235892,0
8.103128,0.030268,2.382355,0.029578,-0.004101,1.285014,1.28536,0
8.134587,0.031459,2.399575,0.095524,-0.071885,1.115401,1.121789,0
8.162567,0.02798,2.421423,0.020123,-0.162345,0.876821,0.891951,0
8.197528,0.034961,2.435204,0.008728,-0.138946,0.814679,0.826489,0
8.232562,0.035034,2.448776,0.034427,-0.078157,0.831006,0.835383,0
8.267554,0.034992,2.469351,0.032245,-0.055241,0.929216,0.931415,0
8.299026,0.031472,2.495446,-0.0585,-0.043421,0.873166,0.8762,0
8.328429,0.029402,2.519658,-0.083677,-0.052587,0.884376,0.889881,0
8.362043,0.033614,2.534697,-0.049614,-0.055482,0.995258,0.998037,0
8.389867,0.027825,2.557311,-0.038753,-0.00386,0.967233,0.968017,0
8.420913,0.031045,2.574364,-0.066892,0.028164,0.991846,0.994498,0
8.448333,0.02742,2.594967,-0.071582,0.00437,0.937745,0.940484,0
8.482931,0.034598,2.617597,-0.042209,-0.01568,0.920687,0.921787,0
8.518321,0.035389,2.632947,0.001697,-0.014232,0.90972,0.909833,0
8.546162,0.027842,2.650808,0.007031,-0.008684,0.900947,0.901016,0
8.578173,0.032011,2.665958,0.028609,-0.016886,0.920687,0.921286,0
8.605852,0.027678,2.681242,0.057217,0.001214,0.947493,0.94922,0
8.63351,0.027658,2.697259,0.080492,-0.00386,0.944569,0.948,0
8.664785,0.031276,2.707511,0.099403,-0.024605,0.946275,0.9518,0
8.692544,0.027759,2.715735,0.132618,-0.037149,0.971863,0.981573,0
8.720511,0.027966,2.724119,0.139406,-0.046074,1.024258,1.034728,0
8.752042,0.031531,2.728292,0.149104,-0.054517,1.087863,1.099386,0
8.780517,0.028475,2.730791,0.106434,-0.0591,1.098098,1.104826,0
8.815358,0.034841,2.733882,0.040973,-0.04125,1.128804,1.1303,0
8.851313,0.035955,2.73388,-0.024437,0.032049,1.238467,1.239123,1
8.882683,0.03137,2.738516,-0.065905,0.114841,1.293787,1.300544,0
8.910674,0.027991,2.750457,-0.134279,0.119211,1.337408,1.349408,0
8.945729,0.035056,2.76004,-0.077013,0.160729,1.078359,1.092988,0
8.980844,0.035114,2.770012,-0.070595,0.082064,0.904846,0.911299,0
9.012439,0.031595,2.777544,-0.042456,0.122853,0.854401,0.864232,0
9.041672,0.029233,2.790724,-0.02419,0.057056,0.87804,0.880224,0
9.073528,0.031857,2.79937,-0.065658,0.0539,0.888031,0.892085,0
9.102517,0.028988,2.807796,-0.077013,0.06604,0.854888,0.860887,0
9.137435,0.034918,2.816856,-0.000987,0.075994,0.931409,0.934505,0
9.172229,0.034794,2.825197,0.025457,0.090562,0.889981,0.894939,0
9.207305,0.035076,2.830418,-0.000987,0.031563,0.882914,0.883478,0
9.239059,0.031753,2.828025,0.001697,0.011897,0.893636,0.893717,0
9.267026,0.027967,2.825159,0.059884,0.035933,0.947493,0.950064,0
9.294991,0.027964,2.822485,0.072491,0.043703,0.987947,0.991567,0
9.327318,0.032327,2.816708,0.052126,0.021851,0.988191,0.989806,0
9.356166,0.028848,2.807393,0.074673,0.017967,0.975518,0.978537,0
9.387813,0.031647,2.794899,0.07734,0.011168,0.956754,0.95994,0
9.42224,0.034426,2.782281,0.096493,-0.004583,0.954804,0.959679,0
9.449594,0.027354,2.768095,0.070552,0.017481,1.012073,1.01468,0
9.476931,0.027337,2.750288,0.06546,0.028164,1.074459,1.07682,0
9.508277,0.031347,2.733441,0.054793,0.028407,1.134409,1.136087,0
9.537166,0.028889,2.713751,0.013819,0.040061,1.116619,1.117423,0
9.572933,0.035767,2.691369,-0.09207,-0.00193,1.064955,1.068929,0
9.604739,0.031805,2.668378,-0.127367,-0.008443,1.10419,1.111544,0
9.632648,0.027909,2.648163,-0.119962,0.013839,1.19972,1.205782,1
9.660619,0.027972,2.629723,-0.09676,0.041032,1.173888,1.178583,0
9.692079,0.03146,2.613462,-0.098981,0.036176,1.07519,1.080343,0
9.719937,0.027858,2.58961,-0.137241,-0.0,0.927023,0.937127,0
9.754973,0.035036,2.56862,-0.063437,-0.020263,0.811754,0.814481,0
9.790007,0.035034,2.553784,-0.048133,-0.006513,0.895586,0.896902,0
9.82504,0.035034,2.542371,-0.057513,0.018209,1.040829,1.042576,0
9.856757,0.031717,2.541143,-0.027646,0.005584,1.031081,1.031467,0
9.88473,0.027972,2.542411,-0.087627,-0.010131,0.936283,0.940429,0
9.912669,0.02794,2.54221,-0.115766,-0.007478,0.978199,0.985054,0
9.944107,0.031437,2.540411,-0.11157,0.001457,0.995502,1.001735,0
9.972042,0.027935,2.540205,-0.079481,0.001942,0.977712,0.980939,0
10.007079,0.035037,2.543276,-0.095772,-0.013267,0.94993,0.954838,0
10.042252,0.035174,2.544108,-0.064177,-0.00386,0.955292,0.957453,0
10.074153,0.0319,2.546244,-0.044184,0.009712,0.992577,0.993608,0
10.102413,0.028261,2.547074,-0.06788,-0.010373,0.977712,0.98012,0
10.130447,0.028034,2.544919,-0.041715,-0.014474,0.99209,0.993072,0
10.161931,0.031483,2.547749,0.01188,-0.005066,1.036686,1.036767,0
10.197011,0.03508,2.556384,0.018668,0.010197,1.107115,1.107319,0
10.232038,0.035027,2.563405,-0.057019,0.002671,1.112232,1.113696,0
10.259991,0.027953,2.568117,-0.083184,0.001214,1.058375,1.06164,0
10.291356,0.031365,2.566424,-0.068127,-0.016403,0.943107,0.945706,0
10.321681,0.030324,2.563949,-0.030854,-0.015438,0.901191,0.901851,0
10.356135,0.034454,2.561506,0.013577,-0.009408,0.914107,0.914256,0
10.388407,0.032272,2.55941,0.026184,-0.010614,0.985266,0.985671,0
10.423191,0.034783,2.558203,0.014304,0.000486,1.045947,1.046045,0
10.457907,0.034717,2.55895,0.008001,0.023551,1.056182,1.056475,0
10.485368,0.027461,2.562515,-0.006171,0.027436,1.045216,1.045594,0
10.512329,0.02696,2.565865,-0.031595,0.01651,0.99672,0.997357,0
10.54588,0.033551,2.565323,-0.01876,0.016753,0.972594,0.972919,0
10.572881,0.027001,2.562719,0.000242,0.01044,0.960653,0.96071,0
10.599989,0.027108,2.558897,0.006061,-0.000482,0.964065,0.964084,0
10.630063,0.030074,2.5553,0.0337,0.007769,0.988678,0.989283,0
10.656623,0.026559,2.552996,0.053581,0.034234,1.02109,1.023068,0
10.683172,0.02655,2.552456,0.044852,0.029135,1.02572,1.027114,0
10.709718,0.026546,2.553008,0.021335,0.019423,1.037905,1.038306,0
10.736232,0.026514,2.553582,-0.000987,0.024765,1.013048,1.013351,0
10.769829,0.033596,2.553002,-0.002715,0.006555,0.976493,0.976519,0
10.796342,0.026513,2.551143,-0.018266,0.008983,0.975275,0.975487,0
10.822852,0.02651,2.548135,0.002182,0.033505,0.982829,0.983403,0
10.849702,0.02685,2.546016,0.029821,0.043945,0.987703,0.98913,0
10.883245,0.033543,2.545594,0.028851,0.047102,0.999157,1.000683,0
10.9098,0.026556,2.54569,0.003879,0.037876,1.007443,1.008162,0
10.936303,0.026503,2.545872,0.005819,0.042731,1.026207,1.027113,0
10.969911,0.033608,2.545538,0.000242,0.027193,0.999401,0.999771,0
10.996453,0.026542,2.544567,0.004364,0.019666,0.991115,0.99132,0
11.022957,0.026504,2.543956,0.014304,0.025736,0.998426,0.99886,0
11.049453,0.026497,2.543424,0.016486,0.030835,0.997451,0.998064,0
11.083827,0.034374,2.543578,0.017699,0.02695,0.999888,1.000408,0
11.110616,0.026788,2.542855,-0.002962,0.019909,1.007199,1.0074,0
11.144198,0.033582,2.541238,-0.000741,0.030835,1.003787,1.004261,0
11.170962,0.026764,2.538621,0.004849,0.022094,0.982586,0.982846,0
11.197544,0.026582,2.53591,0.02085,0.030106,0.989653,0.99033,0
11.231101,0.033557,2.534632,0.013335,0.033991,1.008661,1.009322,0
11.257629,0.026529,2.533672,0.01285,0.045888,1.021333,1.022445,0
11.284122,0.026493,2.533273,0.018183,0.042246,0.988922,0.989991,0
11.317937,0.033814,2.534369,0.021093,0.02865,0.982586,0.98323,0
11.347427,0.02949,2.536343,0.002424,0.022337,1.058619,1.058857,0
11.381433,0.034007,2.536932,-0.002222,0.041032,1.005737,1.006576,0
11.407989,0.026556,2.535824,0.006546,0.045159,1.006468,1.007502,0
11.43459,0.0266,2.534756,0.019881,0.041032,0.999644,1.000684,0
11.468087,0.033498,2.53487,0.015274,0.033748,0.991359,0.992051,0
11.494609,0.026521,2.534554,-0.002962,0.027921,1.001594,1.001987,0
11.521109,0.0265,2.534092,0.014062,0.036419,1.013535,1.014287,0
11.547609,0.0265,2.534229,0.012365,0.040061,1.014997,1.015863,0
11.579444,0.031835,2.534658,0.007273,0.034234,0.999401,1.000013,0
11.606044,0.0266,2.534221,0.007273,0.038118,0.994039,0.994797,0
11.639586,0.033541,2.533772,0.007273,0.041275,0.999157,1.000036,0
11.666117,0.026531,2.533064,0.006788,0.04176,0.999157,1.000052,0
11.692654,0.026537,2.531868,0.006304,0.040789,0.996476,0.997331,0
11.719245,0.026591,2.531172,0.022305,0.046859,0.998426,0.999774,0
11.752779,0.033534,2.531535,0.014304,0.051958,1.007199,1.00864,0
11.779357,0.026577,2.532172,0.008728,0.047345,1.007199,1.008349,0
11.805857,0.0265,2.532577,-0.000987,0.038604,0.999157,0.999903,0
11.832362,0.026505,2.532125,-0.001728,0.03909,0.993308,0.994079,0
11.866114,0.033752,2.531838,0.001455,0.04783,0.995989,0.997138,0
11.892624,0.02651,2.531846,0.01188,0.056328,0.994771,0.996435,0
11.919115,0.026491,2.532316,0.019153,0.050986,0.991359,0.992854,0
11.945644,0.02653,2.532626,0.01285,0.051229,1.008417,1.0098,0
11.979202,0.033557,2.53271,0.005819,0.046131,1.020846,1.021904,0
12.005724,0.026522,2.532782,0.012122,0.053414,1.011342,1.012824,0
12.032245,0.026521,2.533317,0.008243,0.045402,0.998182,0.999248,0
12.058886,0.02664,2.534407,0.013092,0.047345,0.99867,0.999877,0
12.09348,0.034595,2.535579,0.010425,0.039575,0.988678,0.989525,0
12.127141,0.033661,2.536364,0.004122,0.037876,0.998913,0.99964,0
12.153743,0.026602,2.536262,0.003152,0.041275,1.001594,1.002449,0
12.180575,0.026832,2.534748,0.004122,0.04176,1.006224,1.007099,0
12.214205,0.03363,2.533552,0.011153,0.04783,1.000132,1.001337,0
12.240759,0.026554,2.533211,0.015517,0.048801,0.997695,0.999008,0
12.267283,0.026524,2.533484,0.012365,0.050744,0.991115,0.99249,0
12.300807,0.033524,2.533923,0.000485,0.040304,0.985754,0.986577,0
12.327321,0.026514,2.534334,0.001455,0.036662,0.995745,0.996421,0
12.357021,0.0297,2.534455,0.003152,0.038361,0.999401,1.000142,0
12.390973,0.033952,2.534529,0.005334,0.035933,0.999401,1.000061,0
12.41753,0.026557,2.534816,0.017214,0.047102,1.016216,1.017453,0
12.451072,0.033543,2.535052,0.013819,0.051958,1.010367,1.011797,0
12.47765,0.026577,2.535187,0.001455,0.035691,0.998426,0.999065,0
12.504167,0.026517,2.534765,-0.0,0.045159,0.93604,0.937128,0
12.530666,0.026499,2.533626,-0.000987,0.045645,0.984535,0.985593,0
12.564341,0.033675,2.533283,-0.0,0.050986,0.99867,0.99997,0
12.591274,0.026934,2.533499,0.004849,0.054871,1.004275,1.005784,0
12.617864,0.02659,2.534555,0.02279,0.054871,1.000863,1.002625,0
12.65139,0.033525,2.535386,0.004364,0.048801,0.998426,0.999627,0
12.677888,0.026499,2.536384,0.000485,0.058513,0.999401,1.001112,0
12.704398,0.026509,2.537853,0.016244,0.025736,0.939208,0.939701,0
12.730927,0.026529,2.539875,-0.007158,0.056571,0.949687,0.951397,0
