timestamp,dt,heading_rad,accel_x,accel_y,accel_z,accel_norm,step_event
0.000494,0.000494,1.778007,-0.0,0.098331,0.983804,0.988706,0
0.135529,0.135035,1.779486,-0.020981,0.165827,0.982829,0.996942,0
0.162345,0.026816,1.777538,-0.008639,0.113627,0.989409,0.99595,0
0.196671,0.034326,1.776581,-0.002962,0.095175,0.994283,0.998832,0
0.235279,0.038608,1.776685,-0.006418,0.132565,0.983073,0.991992,0
0.263814,0.028535,1.776318,-0.019253,0.173839,0.986972,1.00235,0
0.29072,0.026906,1.775872,-0.00469,0.13038,0.988678,0.997249,0
0.324745,0.034025,1.775046,-0.013082,0.138149,0.987216,0.996921,0
0.351715,0.02697,1.774088,-0.011848,0.133536,0.985266,0.994345,0
0.38581,0.034095,1.773123,-0.006171,0.119697,0.990628,0.997852,0
0.412724,0.026914,1.771816,-0.007899,0.134507,0.982342,0.991539,0
0.446611,0.033887,1.770173,0.001212,0.123824,0.997451,1.005108,0
0.473407,0.026796,1.76406,0.024487,0.174325,0.977955,0.993673,0
0.507266,0.033859,1.759682,-0.021228,0.108528,0.98088,0.987094,0
0.534474,0.027209,1.754334,-0.027892,0.12868,0.991846,1.000548,0
0.568454,0.033979,1.75056,-0.017525,0.11824,0.990871,0.998055,0
0.595591,0.027138,1.750019,-0.008392,0.106586,0.985997,0.991777,0
0.629873,0.034282,1.747326,0.008728,0.170926,0.994283,1.008906,0
0.65653,0.026657,1.747891,-0.009627,0.1078,0.988678,0.994584,0
0.690462,0.033931,1.749206,0.040973,0.124795,0.955292,0.964279,0
0.71709,0.026628,1.746365,-0.039,0.140091,0.989897,1.000521,0
0.750755,0.033666,1.747076,-0.012835,0.131594,0.982586,0.991441,0
0.777481,0.026726,1.746952,-0.010367,0.126738,0.991602,0.999723,0
0.80427,0.026789,1.747089,-0.01407,0.137663,0.985023,0.994695,0
0.838015,0.033744,1.747609,-0.011848,0.072352,0.988434,0.99115,0
0.864653,0.026638,1.747829,-0.003209,0.160729,0.98551,0.998536,0
0.891265,0.026612,1.745521,-0.031595,0.158786,0.986485,0.999682,0
0.924901,0.033636,1.744334,-0.008886,0.128437,0.987703,0.996059,0
0.95157,0.026669,1.742197,-0.000987,0.147861,0.993796,1.004736,0
0.978257,0.026687,1.738945,-0.010367,0.138635,0.995745,1.005403,0
1.011946,0.033689,1.73614,-0.000247,0.127223,0.993796,1.001906,0
1.039624,0.027678,1.733851,-0.006171,0.115812,0.950661,0.95771,0
1.066798,0.027174,1.730588,-0.013823,0.179667,1.056913,1.072165,0
1.093532,0.026735,1.729166,-0.019994,0.134993,0.987216,0.996603,0
1.127213,0.033681,1.730295,-0.001975,0.123581,0.984048,0.991779,0
1.15386,0.026647,1.729192,0.008243,0.158301,0.984292,0.996974,0
1.180749,0.026888,1.730219,-0.068867,0.068953,0.992821,0.997592,0
1.214402,0.033653,1.736358,-0.044924,0.062883,0.998426,1.001413,0
1.240844,0.026442,1.738247,0.007273,0.172626,0.989165,1.004142,0
1.276351,0.035507,1.736498,-0.009873,0.159029,0.983804,0.996623,0
1.309581,0.03323,1.735854,0.003394,0.107072,0.989165,0.994949,0
1.337072,0.027492,1.734472,-0.006911,0.120425,0.989653,0.996977,0
1.370769,0.033697,1.735148,-0.013823,0.131351,0.986241,0.995046,0
1.397564,0.026795,1.735392,-0.009627,0.125281,0.990384,0.998323,0
1.424201,0.026637,1.735368,-0.013082,0.125038,0.989897,0.997848,0
1.457858,0.033657,1.735378,-0.009133,0.122125,0.988922,0.996476,0
1.484461,0.026603,1.73544,-0.008392,0.129894,0.976493,0.98513,0
1.511138,0.026677,1.731378,-0.007158,0.112413,0.987703,0.994106,0
1.544979,0.033841,1.729044,-0.010861,0.143005,0.991846,1.002161,0
1.571585,0.026607,1.728493,-0.010861,0.136207,0.990628,1.000007,0
1.598228,0.026643,1.729163,-0.010367,0.124067,0.990871,0.998662,0
1.631985,0.033757,1.730316,-0.011108,0.129894,0.989409,0.997961,0
1.658588,0.026603,1.732019,-0.015551,0.131836,0.99672,1.005522,0
1.685568,0.02698,1.737271,-0.001728,0.118726,0.990628,0.997718,0
1.719357,0.033788,1.73828,-0.001728,0.100273,0.993552,0.998601,0
1.745986,0.02663,1.73862,-0.01012,0.130865,0.985023,0.993729,0
1.779662,0.033676,1.737543,-0.004196,0.121882,0.992334,0.999799,0
1.806302,0.02664,1.735515,-0.004443,0.133536,0.988191,0.997182,0
1.832896,0.026594,1.733126,-0.012589,0.115084,0.995502,1.002211,0
1.859508,0.026612,1.733038,-0.009873,0.14956,0.980636,0.992025,0
1.893113,0.033605,1.732365,-0.028139,0.097603,0.993308,0.998489,0
1.91976,0.026647,1.731564,-0.000741,0.112413,0.990384,0.996744,0
1.946369,0.026608,1.731243,-0.005924,0.13475,0.989165,0.998319,0
1.98039,0.034021,1.730982,-0.003209,0.085706,0.992821,0.996519,0
2.008201,0.027812,1.727839,-0.001975,0.146404,0.983317,0.994158,0
2.043598,0.035397,1.72272,-0.016044,0.103672,0.995989,1.001499,0
2.075089,0.031492,1.745175,0.010183,0.190835,0.795183,0.817825,0
2.110605,0.035516,1.787268,0.037337,0.304705,0.885838,0.937522,0
2.150214,0.039608,1.8062,-0.043196,-0.192981,0.999157,1.018539,0
2.186497,0.036283,1.791273,-0.072817,0.004856,0.998426,1.00109,0
2.230705,0.044208,1.756192,0.041943,0.156116,0.936771,0.950616,0
2.323156,0.092451,1.720713,-0.050354,-0.067784,0.936527,0.940326,0
2.356138,0.032983,1.686433,0.017699,0.147375,0.956754,0.9682,0
2.391809,0.035671,1.669575,-0.000741,0.105372,0.991115,0.996701,0
2.43363,0.041821,1.662134,-0.007652,0.222641,0.989165,1.013941,0
2.482454,0.048824,1.65897,-0.000741,0.247891,0.945056,0.977027,0
2.512223,0.029769,1.648427,-0.053563,0.129166,1.011586,1.021204,0
2.55392,0.041698,1.653647,0.043398,0.099545,0.908746,0.915211,0
2.584824,0.030904,1.653759,-0.073557,0.119454,1.024258,1.03382,0
2.614982,0.030158,1.655715,-0.019747,0.124067,1.000376,1.008233,0
2.649542,0.03456,1.658093,-0.016044,0.121639,0.996476,1.004001,0
2.686215,0.036673,1.659995,-0.015304,0.18258,0.985023,1.001918,0
2.726542,0.040327,1.662582,-0.016538,0.112899,0.993308,0.999841,0
2.755795,0.029253,1.664323,0.024487,0.157572,1.011829,1.024318,0
2.79849,0.042695,1.664047,-0.019253,0.127466,1.0033,1.011548,0
2.834439,0.035949,1.652454,-0.007652,0.09736,0.986972,0.991792,0
2.88198,0.047541,1.633757,-0.054057,0.116055,0.987703,0.995966,0
2.913778,0.031798,1.620605,0.003152,0.113141,1.011098,1.017414,0
2.949281,0.035503,1.634025,-0.002962,0.212686,1.000619,1.022978,0
2.984838,0.035557,1.629864,0.051641,0.175539,1.076653,1.092091,0
3.018521,0.033683,1.631894,0.059157,0.232838,1.165358,1.189863,1
3.05351,0.034989,1.629434,0.050914,0.157087,1.124661,1.136719,0
3.078059,0.024549,1.617814,0.030791,0.194234,1.163165,1.179673,0
3.117542,0.039483,1.625264,0.08825,0.150289,1.051796,1.066137,0
3.152698,0.035156,1.623813,0.02279,0.167041,1.055451,1.068831,0
3.200743,0.048045,1.634271,0.071279,0.197148,0.922393,0.945915,0
3.240099,0.039355,1.634376,-0.023696,0.157815,0.881695,0.896021,0
3.273553,0.033454,1.642517,-0.039741,0.241579,0.998426,1.028005,0
3.302858,0.029306,1.633655,0.046307,0.247891,0.976981,1.009002,0
3.339974,0.037116,1.642103,0.014547,0.297906,1.00525,1.048564,0
3.378542,0.038568,1.638528,-0.250538,0.489713,0.960166,1.106574,0
3.415388,0.036846,1.61633,-0.099228,0.534386,0.95846,1.101844,0
3.444491,0.029103,1.606916,-0.146867,0.020395,1.02572,1.036382,0
3.477368,0.032876,1.603098,-0.265842,0.098088,0.983561,1.023565,0
3.511812,0.034444,1.633169,-0.140943,0.019666,1.018653,1.028545,0
3.547927,0.036115,1.669456,-0.234988,0.109257,0.965527,0.999699,0
3.594996,0.047069,1.688643,-0.045171,0.289409,0.962115,1.005715,0
3.630286,0.03529,1.69881,-0.027152,0.137421,0.977224,0.987213,0
3.664805,0.03452,1.700232,-0.012589,0.005099,0.886082,0.886186,0
3.702414,0.037608,1.720801,-0.08269,-0.044386,0.893393,0.898309,0
3.729724,0.027311,1.752842,-0.029127,0.00437,0.920199,0.92067,0
3.76228,0.032556,1.770761,-0.072323,0.095903,0.928972,0.936706,0
3.792252,0.029972,1.7826,-0.014563,0.055114,0.896561,0.898371,0
3.825352,0.0331,1.793783,-0.041222,-0.017609,0.845141,0.846329,0
3.86111,0.035758,1.801812,-0.035051,-0.006272,0.885351,0.886066,0
3.89483,0.033719,1.815855,-0.0585,0.022337,0.909233,0.911387,0
3.930106,0.035276,1.821967,-0.015551,0.028164,0.931409,0.931965,0
3.96342,0.033314,1.828769,0.00097,0.069196,0.985023,0.987451,0
3.99446,0.03104,1.834659,0.023275,0.034477,0.971376,0.972266,0
4.026427,0.031968,1.843178,0.003637,0.045402,1.022308,1.023322,0
4.063055,0.036628,1.849773,-0.051095,0.152474,1.016216,1.02886,0
4.095019,0.031964,1.856431,-0.027152,0.127223,1.00988,1.018224,0
4.129052,0.034034,1.862127,-0.059241,0.200061,0.975518,0.997582,0
4.158537,0.029485,1.865752,-0.021968,0.230896,0.968451,0.995838,0
4.185557,0.02702,1.872543,-0.025671,0.237694,1.008661,1.036607,0
4.209871,0.024314,1.877313,-0.091823,0.227497,0.977955,1.008257,0
4.240973,0.031102,1.882753,-0.055291,0.18088,0.938964,0.957825,0
4.268192,0.02722,1.892098,0.007516,0.193506,0.959922,0.97926,0
4.296306,0.028114,1.902418,0.022305,0.22167,0.913132,0.939918,0
4.331195,0.034889,1.91506,0.054308,0.163885,0.862199,0.879315,0
4.366726,0.035531,1.938078,0.031033,0.100031,0.879502,0.885716,0
4.402545,0.03582,1.961216,-0.030854,0.141305,0.87804,0.889872,0
4.440564,0.038019,1.970322,-0.018513,0.140577,0.851233,0.862961,0
4.478694,0.03813,1.96923,0.003879,0.142762,0.850502,0.862409,0
4.510571,0.031877,1.971639,0.078795,0.134021,0.909477,0.922669,0
4.546519,0.035948,1.975816,0.053581,0.163885,1.106627,1.119979,0
4.587528,0.041009,1.974348,-0.031348,0.02258,1.22677,1.227378,1
4.620278,0.03275,1.964336,-0.091576,0.068953,1.255039,1.260263,0
4.656942,0.036664,1.952904,-0.0,0.043703,1.26503,1.265785,0
4.691955,0.035013,1.952149,0.067885,-0.109999,1.211173,1.218051,0
4.727868,0.035913,1.961659,-0.096266,-0.084912,1.103947,1.111384,0
4.764028,0.03616,1.966583,-0.049614,-0.033289,1.042535,1.044246,0
4.788387,0.024359,1.970443,-0.020241,-0.000724,0.990871,0.991078,0
4.815455,0.027068,1.973672,-0.010367,-0.050899,0.95188,0.953296,0
4.842467,0.027011,1.977073,-0.022215,-0.054517,0.901191,0.903112,0
4.869425,0.026958,1.981622,-0.037272,-0.080811,0.856107,0.86072,0
4.896333,0.026908,1.986019,-0.01407,-0.027741,0.833443,0.834023,0
4.930383,0.03405,1.989688,-0.05307,-0.015921,0.921661,0.923325,0
4.957409,0.027026,1.998689,-0.100462,-0.075262,0.919712,0.928239,0
4.992165,0.034756,2.010221,-0.101696,-0.00796,0.953342,0.958784,0
5.026678,0.034513,2.015496,-0.087873,0.112413,0.979174,0.989515,0
5.061045,0.034367,2.018621,-0.047639,0.105129,0.948712,0.955707,0
5.088966,0.027921,2.021268,-0.099475,0.057056,0.915082,0.922239,0
5.120069,0.031103,2.014604,-0.081209,0.037633,0.87609,0.88065,0
5.147431,0.027362,2.00921,0.012122,0.019181,0.88462,0.88491,0
5.17492,0.027489,2.010921,0.055763,0.03302,1.000619,1.002716,0
5.207798,0.032878,2.014402,-0.01481,0.161943,1.079333,1.091515,0
5.242576,0.034778,2.006634,-0.005924,0.142034,0.985997,0.996193,0
5.280437,0.037861,2.002002,0.007758,0.106829,0.905334,0.911648,0
5.313076,0.032639,1.99357,0.027154,0.044917,0.847821,0.849444,0
5.348867,0.035791,1.976987,-0.054057,-0.054517,0.845628,0.849106,0
5.38039,0.031523,1.96483,-0.04912,-0.089736,0.883645,0.889547,0
5.407792,0.027402,1.9526,0.058429,-0.026535,0.966989,0.969116,0
5.44222,0.034428,1.949177,0.080007,0.0522,1.0323,1.036711,0
5.469537,0.027317,1.949565,0.014789,0.063126,1.077627,1.079576,0
5.496938,0.027401,1.953705,0.019153,0.040061,1.109795,1.110683,0
5.528399,0.031461,1.957935,0.025699,0.067254,1.099073,1.101428,0
5.555861,0.027462,1.960775,0.000242,0.027678,1.056426,1.056788,0
5.583613,0.027752,1.962524,-0.000741,-0.003377,1.00988,1.009886,0
5.618113,0.0345,1.961862,-0.009873,0.024765,0.956754,0.957125,0
5.645475,0.027362,1.962045,0.079037,0.077208,0.912645,0.919309,0
5.676216,0.030741,1.966914,0.125587,0.091533,0.877065,0.890726,0
5.702747,0.026531,1.974144,0.071279,0.092747,0.87609,0.883865,0
5.729435,0.026688,1.979269,0.013335,0.057056,0.875115,0.877075,0
5.763055,0.033619,1.979882,0.026669,0.05827,0.933359,0.935556,0
5.790141,0.027086,1.980232,0.060127,0.165099,1.031081,1.045945,0
5.816767,0.026626,1.974901,0.086553,0.107314,0.999157,1.008624,0
5.850344,0.033577,1.967605,0.137709,-0.033289,0.946031,0.956581,0
5.877035,0.026692,1.969305,0.140619,-0.091666,1.020115,1.033833,0
5.903587,0.026552,1.971988,0.099403,0.00607,1.133434,1.137801,0
5.937121,0.033534,1.967666,0.063763,0.099302,1.151955,1.157984,0
5.963928,0.026807,1.963946,0.073461,0.057299,1.172669,1.176364,0
5.990508,0.02658,1.963143,-0.029373,-0.031601,1.216535,1.217299,1
6.024091,0.033584,1.963442,-0.134772,-0.086841,1.202644,1.213284,0
6.050686,0.026594,1.969548,-0.261399,0.02695,1.235056,1.262703,0
6.077727,0.027041,1.973923,-0.241899,0.193991,1.111258,1.153708,0
6.111179,0.033452,1.972291,-0.144646,0.236966,0.934577,0.974941,0
6.137892,0.026713,1.975125,-0.113791,0.01651,0.798107,0.806347,0
6.164398,0.026507,1.990226,-0.134525,-0.027982,0.759603,0.771931,0
6.198148,0.03375,2.002632,-0.137981,0.026464,0.790065,0.80246,0
6.224965,0.026817,2.011053,-0.140203,0.096874,0.794939,0.813,0
6.251814,0.026849,2.025276,-0.032089,0.064826,0.822477,0.825651,0
6.285506,0.033692,2.039299,-0.033076,0.102701,0.850258,0.857077,0
6.312026,0.02652,2.049845,-0.036532,0.090076,0.863905,0.869356,0
6.338525,0.026499,2.062364,-0.005184,0.071867,0.834662,0.837766,0
6.374569,0.036044,2.06926,0.025457,0.014568,0.822964,0.823487,0
6.401821,0.027252,2.074307,-0.008146,-0.002653,0.845628,0.845671,0
6.435405,0.033584,2.072617,-0.001728,0.032777,0.901191,0.901788,0
6.462,0.026595,2.067815,0.042913,0.078179,0.923611,0.927907,0
6.48868,0.02668,2.062852,0.095039,0.110471,0.964552,0.975498,0
6.522256,0.033576,2.056186,0.090432,0.114841,1.025476,1.035842,0
6.548804,0.026549,2.049033,0.099403,0.079636,1.130753,1.137904,0
6.575553,0.026749,2.041742,0.042186,0.08692,1.215073,1.218908,1
6.609436,0.033882,2.02769,-0.040728,0.173111,1.269904,1.282296,0
6.635978,0.026542,2.00776,0.046307,0.062883,1.183392,1.185966,0
6.662556,0.026578,1.994253,0.017456,-0.032565,1.212392,1.212955,0
6.689234,0.026679,1.991881,0.000242,-0.080328,1.251627,1.254202,0
6.723128,0.033893,1.992967,-0.108608,0.049287,1.330097,1.335434,0
6.749718,0.02659,1.997944,-0.169329,0.163885,1.275022,1.296615,0
6.783978,0.03426,1.98704,-0.165627,0.101245,1.029132,1.04728,0
6.810731,0.026753,1.965369,-0.074544,0.007769,0.755704,0.759411,0
6.844227,0.033495,1.958568,0.030063,-0.065372,0.793477,0.796733,0
6.870746,0.02652,1.949726,-0.098487,0.015053,0.774469,0.780851,0
6.897228,0.026482,1.932066,-0.102684,0.015296,0.700628,0.708278,0
6.923689,0.026461,1.907965,-0.04912,-0.026776,0.728897,0.731041,0
6.950155,0.026466,1.89246,-0.001728,-0.052828,0.810292,0.812014,0
6.983607,0.033452,1.885296,0.028851,0.072109,0.850258,0.853798,0
7.011192,0.027585,1.872741,0.029094,0.121639,0.890956,0.899691,0
7.044775,0.033583,1.866106,0.040973,0.051229,0.845141,0.847683,0
7.07146,0.026685,1.865825,0.104252,0.072352,0.878771,0.887886,0
7.097991,0.026531,1.86328,0.118071,0.131594,0.995258,1.010839,0
7.131538,0.033547,1.859242,0.162924,0.093718,1.024014,1.041121,0
7.158055,0.026517,1.857179,0.162439,0.000971,1.082501,1.094622,0
7.186109,0.028055,1.854301,0.150559,0.011897,1.105165,1.115437,0
7.217482,0.031372,1.849923,0.145225,0.067254,1.061056,1.073058,0
7.245587,0.028105,1.845044,0.099403,0.034719,1.02767,1.033049,0
7.280958,0.035372,1.839126,0.038791,0.053657,1.063737,1.065795,0
7.312859,0.0319,1.84175,0.037337,0.067011,1.100535,1.103205,0
7.33946,0.026602,1.877713,0.024487,0.096631,1.354954,1.358617,1
7.379112,0.039651,1.91182,-0.390494,0.254932,1.38566,1.46203,0
7.408012,0.0289,1.90418,-0.369019,0.217785,1.061543,1.144762,0
7.434849,0.026837,1.882473,-0.083924,0.055114,0.730116,0.736987,0
7.461452,0.026604,1.895866,0.208988,-0.037149,0.780074,0.808437,0
7.495054,0.033601,1.915097,0.015274,0.168984,0.791771,0.809747,0
7.52163,0.026576,1.918307,-0.009873,0.132322,0.690637,0.703268,0
7.548196,0.026566,1.921632,0.041458,0.040546,0.684057,0.686511,0
7.581795,0.033598,1.935213,0.053581,0.003399,0.783729,0.785566,0
7.608354,0.02656,1.943807,0.029336,0.068953,0.825889,0.829281,0
7.635972,0.027618,1.948932,0.051883,0.098088,0.845872,0.853119,0
7.662573,0.0266,1.957175,0.051156,0.123339,0.90704,0.916815,0
7.689274,0.026701,1.965354,0.028851,0.123581,0.930191,0.938808,0
7.71598,0.026707,1.964872,-0.000247,0.109014,0.936771,0.943093,0
7.749754,0.033774,1.960068,0.069097,0.088619,0.931897,0.938648,0
7.776355,0.026601,1.954348,0.141104,0.116298,0.940426,0.958038,0
7.810345,0.03399,1.948015,0.139164,0.08085,0.977712,0.99087,0
7.836948,0.026603,1.942622,0.091402,0.038847,1.058375,1.063025,0
7.863547,0.026599,1.934764,0.049944,0.117512,1.195577,1.202376,1
7.897208,0.033661,1.920955,0.083159,0.215114,1.251871,1.272938,0
7.923856,0.026648,1.907692,0.109101,0.098331,1.207274,1.216176,0
7.950444,0.026589,1.907241,0.036852,-0.109517,1.306215,1.311316,0
7.976996,0.026552,1.912534,-0.059734,-0.093596,1.321568,1.326224,0
8.010585,0.033588,1.915177,-0.117,0.109014,1.370795,1.380091,0
8.037344,0.026759,1.917486,-0.10688,0.176267,1.227745,1.24493,0
8.064086,0.026742,1.905605,-0.097747,0.094446,1.003787,1.012948,0
8.097871,0.033785,1.89463,-0.030608,-0.058377,0.856351,0.858884,0
8.124528,0.026658,1.891539,-0.008146,-0.059824,0.836368,0.838544,0
8.151129,0.0266,1.882176,-0.042949,0.078422,0.839779,0.844526,0
8.18682,0.035691,1.861053,-0.034063,0.07648,0.713057,0.717955,0
8.217674,0.030855,1.847702,0.007758,-0.00989,0.723536,0.723645,0
8.245335,0.027661,1.841864,0.065218,0.002428,0.724023,0.726959,0
8.272774,0.027439,1.834491,0.089705,0.051958,0.757654,0.764713,0
8.304605,0.031832,1.832624,0.105222,0.121639,0.836124,0.851452,0
8.332481,0.027875,1.835239,0.076128,0.089105,0.842947,0.851056,0
8.360395,0.027914,1.841615,0.111768,0.06604,0.878283,0.887826,0
8.392525,0.03213,1.84646,0.130921,0.126738,0.896561,0.91489,0
8.421716,0.029191,1.850044,0.150074,0.121396,0.92946,0.949292,0
8.454024,0.032308,1.851678,0.160014,0.11387,0.993796,1.013016,0
8.481793,0.027769,1.842849,0.208746,0.163157,1.111258,1.142405,0
8.516249,0.034456,1.832663,0.24778,0.224826,1.184854,1.231187,1
8.550797,0.034548,1.82281,0.101827,0.251533,1.228963,1.258566,0
8.58652,0.035723,1.805678,0.100615,0.235023,1.144644,1.172847,0
8.618226,0.031706,1.807404,0.220868,0.140577,1.155367,1.184659,0
8.646563,0.028336,1.839703,0.059884,0.156116,1.198745,1.21035,0
8.68192,0.035357,1.865148,-0.19031,0.206374,1.146594,1.18046,0
8.713549,0.031629,1.867183,-0.218943,0.234538,0.982586,1.033643,0
8.741874,0.028326,1.867602,-0.043443,0.128194,0.871216,0.881668,0
8.776942,0.035067,1.88158,0.082674,0.097117,0.794695,0.804865,0
8.81238,0.035438,1.900966,0.107888,0.192292,0.778124,0.80876,0
8.843797,0.031417,1.921347,0.085099,0.085463,0.771301,0.780673,0
8.871708,0.02791,1.943256,0.043398,0.084735,0.802981,0.808605,0
8.899775,0.028067,1.960884,0.020123,0.0522,0.817116,0.819028,0
8.931209,0.031434,1.9685,0.063036,0.01044,0.879989,0.882306,0
8.959151,0.027942,1.972741,0.121465,0.086677,0.915325,0.927409,0
8.987068,0.027917,1.97445,0.120253,0.090562,0.860981,0.874043,0
9.018575,0.031507,1.974352,0.132133,0.092261,0.84904,0.864199,0
9.046595,0.02802,1.972009,0.110798,0.096631,0.934334,0.945829,0
9.081784,0.035189,1.969416,0.146437,0.133536,0.937502,0.95822,0
9.116645,0.034861,1.967732,0.108131,0.115812,1.07519,1.086802,0
9.151464,0.03482,1.962465,0.021093,0.1061,1.201425,1.206286,1
9.186878,0.035414,1.950785,0.054308,0.134993,1.184854,1.193755,0
9.218398,0.03152,1.941517,0.118556,0.086434,1.140745,1.150141,0
9.24668,0.028282,1.950455,0.172864,-0.023881,1.189728,1.202458,0
9.281964,0.035285,1.970357,-0.013329,0.084492,1.374938,1.377596,0
9.314403,0.032438,1.982714,-0.179696,0.217785,1.382492,1.41103,0
9.343155,0.028752,1.966045,-0.132057,0.208802,1.082501,1.110336,0
9.374897,0.031743,1.941904,-0.043443,0.019909,0.91825,0.919492,0
9.405626,0.030728,1.931066,0.071522,-0.032807,0.783729,0.787669,0
9.437944,0.032318,1.925645,0.039276,0.063612,0.767401,0.771034,0
9.464685,0.026741,1.916132,-0.0,0.069681,0.767645,0.770801,0
9.491261,0.026576,1.901566,0.003637,0.075994,0.776174,0.779894,0
9.524888,0.033627,1.895007,0.073704,0.039818,0.80225,0.806612,0
9.551455,0.026567,1.894554,0.102797,0.103187,0.915813,0.927323,0
9.578037,0.026582,1.898657,0.074916,0.146404,0.893636,0.908643,0
9.611576,0.033538,1.903728,0.072006,0.048801,0.849284,0.853727,0
9.638067,0.026491,1.911574,0.053581,0.080122,0.883645,0.888886,0
9.664568,0.026501,1.920356,0.05746,0.11217,0.902409,0.911168,0
9.691215,0.026647,1.923591,0.093342,0.123581,0.819065,0.833578,0
9.724872,0.033657,1.923444,0.138679,0.082064,0.818821,0.834527,0
9.751834,0.026962,1.92181,0.162439,0.005827,0.814679,0.830736,0
9.778329,0.026496,1.921249,0.152014,0.024279,0.940913,0.953423,0
9.813653,0.035324,1.916061,0.129709,0.172383,1.107115,1.127938,0
9.843781,0.030127,1.91451,0.162439,0.160971,1.132459,1.155319,0
9.870365,0.026584,1.916518,0.14571,0.058513,1.170476,1.180961,1
9.896988,0.026624,1.919996,0.165591,0.297906,1.229694,1.276055,0
9.92356,0.026571,1.938621,0.201957,0.257117,1.325223,1.364959,0
9.950112,0.026552,1.972524,0.00994,0.220213,1.371282,1.388887,0
9.983652,0.03354,1.989968,-0.209563,0.181123,1.314988,1.343844,0
10.0102,0.026548,1.991093,-0.237703,0.207345,1.107359,1.151407,0
10.036752,0.026552,1.985234,-0.065905,0.148589,0.837586,0.853213,0
10.070399,0.033648,1.988942,0.05649,0.084492,0.818578,0.824863,0
10.097071,0.026672,2.003591,0.024002,0.115569,0.847821,0.855998,0
10.123728,0.026657,2.016869,-0.063684,0.113384,0.866099,0.875807,0
10.150301,0.026573,2.023369,-0.104165,0.18258,0.81809,0.844664,0
10.185242,0.034941,2.026077,-0.008639,0.075266,0.747175,0.751006,0
10.218892,0.03365,2.032487,0.049701,0.06604,0.802981,0.807224,0
10.245844,0.026952,2.039401,0.033458,0.109742,0.87804,0.885504,0
10.279465,0.03362,2.036813,0.035882,0.155387,0.927754,0.941361,0
10.306827,0.027362,2.028215,0.098675,0.143733,0.905578,0.922208,0
10.341314,0.034487,2.028935,0.152983,0.106829,0.942619,0.96091,0
10.367908,0.026594,2.030229,0.116374,0.152474,0.960897,0.979854,0
10.401475,0.033567,2.02759,0.101585,0.166313,0.957485,0.977117,0
10.428773,0.027298,2.018293,0.078795,0.099059,0.917519,0.926208,0
10.462372,0.033599,2.008609,0.106191,0.083521,0.897779,0.907888,0
10.489142,0.02677,1.997791,0.163651,0.081093,0.934577,0.952257,0
10.515738,0.026595,1.983145,0.113707,0.117512,1.044972,1.057689,0
10.549336,0.033598,1.967249,0.046307,0.143733,1.078359,1.08888,0
10.575974,0.026638,1.947472,0.094796,0.093961,1.054233,1.062648,0
10.602545,0.026571,1.932621,0.063036,0.055842,1.164871,1.167911,0
10.636081,0.033536,1.925776,0.022547,0.01481,1.242367,1.242659,1
10.66264,0.02656,1.919293,-0.144893,0.048801,1.321081,1.329898,0
10.689278,0.026638,1.905298,-0.228817,0.086191,1.292324,1.315252,0
10.716792,0.027514,1.884674,-0.151557,0.097117,1.110039,1.124539,0
10.743649,0.026857,1.864086,-0.055785,-0.001689,0.923855,0.925539,0
10.770251,0.026602,1.849299,-0.041715,-0.038355,0.876578,0.878407,0
10.804201,0.03395,1.839052,-0.078987,0.066282,0.952855,0.958418,0
10.83085,0.026649,1.826459,-0.066892,0.134993,0.966502,0.978173,0
10.857455,0.026605,1.811426,-0.06788,0.094204,0.921661,0.928947,0
10.891143,0.033687,1.804572,-0.017525,0.078422,0.87146,0.875157,0
10.917754,0.026612,1.80208,0.014304,0.138635,0.883888,0.894809,0
10.944355,0.026601,1.806703,0.014304,0.152959,0.882426,0.895699,0
10.977953,0.033598,1.812941,-0.011108,0.12261,0.908258,0.916564,0
11.004553,0.0266,1.820409,-0.013329,0.110471,0.946031,0.952553,0
11.031134,0.026582,1.826426,-0.012095,0.144462,0.967233,0.978036,0
11.065612,0.034477,1.829131,0.019153,0.115569,0.958216,0.96535,0
11.092319,0.026708,1.833126,0.08922,0.122125,0.952855,0.964783,0
11.12595,0.03363,1.841403,0.056975,0.134993,1.045216,1.055436,0
11.152575,0.026625,1.850152,-0.018266,0.104401,1.096879,1.101988,0
11.179219,0.026644,1.851548,-0.0585,0.124795,1.080552,1.089306,0
11.213156,0.033937,1.850365,-0.100215,0.117997,1.038636,1.05011,0
11.240137,0.026981,1.847809,-0.065411,0.114355,0.965527,0.974473,0
11.273807,0.033671,1.847406,0.041458,0.054628,0.891199,0.893834,0
11.300707,0.0269,1.847703,-0.004196,0.023308,0.898998,0.89931,0
11.327302,0.026595,1.855064,0.028851,0.00437,0.984292,0.984724,0
11.361185,0.033882,1.86597,0.07928,0.152474,1.024014,1.038334,0
11.387731,0.026546,1.877202,0.038306,0.169955,1.03888,1.053386,0
11.414258,0.026527,1.892258,-0.009627,0.064583,0.997451,0.999586,0
11.448247,0.033988,1.901056,-0.019994,0.044674,0.976981,0.978206,0
11.475984,0.027737,1.923269,0.074188,0.005099,0.895099,0.898182,0
11.506458,0.030474,1.92777,0.012607,0.142276,0.902653,0.913884,0
11.533102,0.026645,1.922123,0.060854,0.22167,0.997207,1.023359,0
11.55979,0.026687,1.906726,0.015759,0.189378,1.085913,1.102415,0
11.593414,0.033624,1.905843,0.027881,0.060455,1.082501,1.084547,0
11.62002,0.026607,1.90694,0.025214,0.108528,1.033275,1.039264,0
11.646615,0.026595,1.910197,0.047762,0.066768,0.959435,0.96294,0
11.680274,0.033659,1.913357,0.063278,0.102458,0.968451,0.97591,0
11.706866,0.026592,1.913539,0.083644,0.173111,0.959922,0.978986,0
11.733822,0.026956,1.911158,0.060127,0.103672,0.960653,0.9681,0
11.760503,0.026681,1.911655,0.077098,0.097603,0.991846,0.999614,0
11.787103,0.0266,1.912423,0.038549,0.119211,1.016216,1.02391,0
11.813927,0.026824,1.913178,0.040731,0.097117,1.007686,1.013175,0
11.840528,0.026601,1.914297,0.019881,0.059241,0.993065,0.995029,0
11.87413,0.033602,1.912764,0.038549,0.092261,0.970401,0.975539,0
11.900814,0.026684,1.908961,0.052126,0.073081,0.952611,0.956831,0
11.927387,0.026573,1.904095,0.056005,0.071138,0.962359,0.966608,0
11.961022,0.033635,1.901792,0.053581,0.078422,0.974544,0.979161,0
11.987572,0.02655,1.900284,0.062309,0.084492,0.979174,0.984786,0
12.014162,0.026589,1.900075,0.03564,0.065554,1.000376,1.003154,0
12.04074,0.026578,1.90183,0.03176,0.072109,0.992821,0.995943,0
12.074366,0.033626,1.904592,0.062309,0.093961,0.96772,0.974266,0
12.101082,0.026716,1.906565,0.056732,0.129651,0.96504,0.975361,0
12.127749,0.026668,1.909199,0.019153,0.069924,0.961872,0.9646,0
