timestamp,dt,heading_rad,accel_x,accel_y,accel_z,accel_norm,gyro_x_rads,gyro_y_rads,gyro_z_rads,step_event
0.000467,0.000467,1.905907,0.02279,0.010683,0.985023,0.985344,-0.007902,0.085109,-0.049172,0
0.143286,0.142819,1.905183,0.087038,0.036904,1.022308,1.02667,-0.001327,0.072708,-0.014507,0
0.192319,0.049033,1.906456,0.080734,0.006313,0.971619,0.974988,-0.082085,-0.021907,0.085737,0
0.234888,0.042568,1.909557,0.052611,0.021609,1.00135,1.002964,0.045318,-0.041284,0.002176,0
0.273044,0.038157,1.910176,0.061581,0.066525,0.973813,0.978023,-0.040128,0.033884,0.056793,0
0.314826,0.041781,1.91136,0.040004,0.004613,1.008905,1.009708,0.03749,-0.050937,-0.078119,0
0.359939,0.045113,1.908042,0.054793,0.011168,0.935796,0.937465,0.103158,-0.049716,-0.081785,0
0.401854,0.041915,1.906216,0.078552,0.039818,1.064224,1.067862,0.027197,-0.023573,-0.0184,0
0.447316,0.045463,1.905602,0.058914,0.048316,0.993552,0.996469,-0.038937,-0.034931,-0.018629,0
0.489104,0.041788,1.906555,0.085826,0.036176,0.962602,0.967098,0.005291,0.058915,0.016141,0
0.53436,0.045256,1.907843,0.05649,0.035933,0.989165,0.991429,-0.023659,0.014337,-0.044303,0
0.576014,0.041654,1.906921,0.041458,0.000486,1.008905,1.009756,0.00022,0.053683,-0.00908,0
0.621191,0.045177,1.907344,0.048004,0.02258,0.989165,0.990587,0.071342,0.036648,-0.024847,0
0.662907,0.041716,1.906545,0.054065,0.021609,1.007199,1.008881,0.00628,-0.002394,-0.026976,0
0.708032,0.045124,1.905594,0.059399,0.035933,1.010611,1.012992,0.006133,-0.089154,-0.11215,0
0.749711,0.041679,1.90268,0.058429,0.024522,0.986972,0.989004,0.008527,-0.078388,-0.062454,0
0.79504,0.04533,1.902077,0.079765,0.029863,0.992821,0.996468,-0.015939,-0.021606,-0.020743,0
0.837228,0.042188,1.902787,0.072006,0.031563,0.982586,0.985726,0.057589,-0.003709,-0.018723,0
0.882523,0.045295,1.902915,0.068855,0.032777,0.999157,1.002063,0.000907,-0.028709,-0.015458,0
0.931301,0.048778,1.902779,0.06934,0.034962,0.979905,0.982977,0.06277,-0.017737,-0.029851,0
0.96979,0.038489,1.902406,0.06934,0.035205,0.983561,0.98663,0.057726,0.015875,-0.008863,0
1.018595,0.048805,1.902905,0.061096,0.036419,0.998913,1.001442,0.044482,-0.01445,-0.013016,0
1.056785,0.03819,1.903148,0.071522,0.038361,0.985023,0.988361,0.029478,-0.001012,-0.017991,0
1.105606,0.048821,1.903318,0.072491,0.040546,0.998913,1.002361,0.006817,-0.00972,-0.032299,0
1.143754,0.038148,1.903234,0.071764,0.035933,0.989165,0.992416,0.01363,-0.012661,-0.050045,0
1.192381,0.048627,1.902593,0.064733,0.040789,0.993552,0.996494,0.034455,-0.028748,-0.057038,0
1.23066,0.038279,1.901642,0.071279,0.048316,0.982586,0.986352,0.031598,0.018208,-0.051563,0
1.280842,0.050182,1.901505,0.074431,0.051229,1.012073,1.016099,-0.027251,-0.054107,-0.014002,0
1.334774,0.053932,1.90296,0.083886,0.045888,0.979905,0.984559,-0.02024,-0.031532,-0.018989,0
1.384351,0.049577,1.90377,0.082432,0.050015,0.988434,0.993126,0.004505,-0.041325,-0.000846,0
1.430034,0.045683,1.904519,0.070552,0.053657,0.991846,0.995799,-0.005629,-0.034852,0.005307,0
1.471983,0.04195,1.905068,0.080007,0.049287,0.994039,0.998471,-0.054779,0.008596,0.005454,0
1.517191,0.045208,1.905541,0.081947,0.044917,0.982098,0.986534,-0.053195,0.026367,-0.011106,0
1.55881,0.041619,1.905494,0.069097,0.036904,0.978687,0.981817,-0.099784,0.065429,0.007192,0
1.604017,0.045207,1.906769,0.050671,0.038118,0.945056,0.947181,-0.122997,0.384301,-0.00808,0
1.645694,0.041677,1.908368,0.078795,0.046616,1.01646,1.020574,-0.059772,0.319243,0.015438,0
1.690832,0.045137,1.910456,0.077098,0.049772,1.017434,1.021565,0.005401,0.016679,0.000916,0
1.732463,0.041631,1.912035,0.09019,0.037147,1.001594,1.006332,0.062813,-0.147325,0.02656,0
1.777604,0.045141,1.914949,0.062551,0.045888,0.997207,1.00022,0.054766,-0.172084,0.036273,0
1.819576,0.041972,1.91818,0.053823,0.040546,0.974787,0.977114,-0.031302,0.007328,0.041471,0
1.864901,0.045325,1.921642,0.061824,0.033263,0.996964,0.999433,-0.022238,0.009443,0.027414,0
1.906914,0.042013,1.923444,0.072006,0.027193,1.001107,1.004061,-0.01388,-0.046762,-0.028708,0
1.952257,0.045343,1.92355,0.074916,0.030349,0.997207,1.000478,0.008268,-0.037076,-0.013833,0
1.994143,0.041887,1.924484,0.071522,0.040546,0.97625,0.979705,0.004801,-0.012411,0.013804,0
2.039393,0.04525,1.926565,0.069582,0.042731,0.97893,0.98233,0.013452,0.055299,0.017859,0
2.081101,0.041708,1.928942,0.073946,0.047102,1.00135,1.005181,0.011149,0.042659,-0.004497,0
2.126199,0.045098,1.93088,0.080492,0.039818,0.936283,0.94058,0.033484,0.003804,0.005789,0
2.167702,0.041503,1.933629,0.069824,0.049044,0.988434,0.992111,0.031472,0.063997,0.000773,0
2.212851,0.045149,1.936573,0.072491,0.046131,0.993308,0.997018,-0.026624,0.062896,0.026272,0
2.254418,0.041567,1.940401,0.06837,0.042489,1.000376,1.003609,0.005575,0.038957,0.025405,0
2.30003,0.045613,1.943368,0.068855,0.043703,0.98551,0.988879,0.007435,0.054128,0.00308,0
2.341771,0.041741,1.945467,0.067885,0.048316,1.001838,1.005297,-0.01453,0.046088,-0.006592,0
2.387001,0.04523,1.947164,0.072249,0.042974,0.979905,0.983504,0.010653,0.058027,0.004159,0
2.428773,0.041772,1.949286,0.06837,0.043945,1.006224,1.009501,0.011023,0.01043,0.020739,0
2.471929,0.043155,1.951149,0.05746,0.038604,0.998913,1.001309,-0.03187,-0.033965,0.000882,0
2.517979,0.046051,1.952746,0.050914,0.021851,0.936527,0.938164,-0.102205,0.056695,-0.005439,0
2.568148,0.050169,1.955352,0.063763,0.027921,1.011829,1.014221,-0.186029,0.010789,0.015825,0
2.611951,0.043803,1.957308,0.078552,0.009954,0.947737,0.951039,0.048934,0.019619,-0.036395,0
2.655608,0.043657,1.961873,0.199048,0.202246,1.137089,1.171963,-0.039031,-0.059183,0.321877,0
2.698587,0.042979,1.974712,-0.015551,-0.105174,0.765452,0.7728,0.299999,0.279542,0.130676,0
2.753519,0.054932,1.984741,0.16656,-0.017368,1.049359,1.062637,0.097301,-0.025776,0.13002,0
2.815106,0.061587,1.994932,0.074916,0.000728,0.968451,0.971345,0.119598,-0.311356,0.142848,0
2.865347,0.050241,2.002375,0.096009,0.075994,0.952611,0.960448,0.078772,-0.071874,0.121452,0
2.909319,0.043972,2.020724,0.172379,0.134993,0.975762,1.000025,-0.156411,0.191103,0.729568,0
2.964184,0.054866,2.052736,0.003152,0.035205,0.912401,0.913085,-0.136863,0.200266,0.613198,0
3.006767,0.042583,2.077312,0.072491,0.042246,1.002569,1.006074,-0.133504,0.283039,0.50477,0
3.048854,0.042087,2.09044,0.059884,0.040304,0.936771,0.939548,-0.32501,0.46019,0.453151,0
3.091799,0.042945,2.102381,0.010183,0.032291,0.971132,0.971722,-0.259647,0.239973,0.358162,0
3.133611,0.041813,2.110459,0.096493,0.048559,1.022552,1.028242,-0.373574,0.498063,0.343807,0
3.178699,0.045088,2.116199,0.046307,0.021851,0.985754,0.987083,0.134361,0.126046,0.245457,0
3.226917,0.048218,2.121626,0.11395,0.042731,1.073241,1.080119,0.084881,0.07229,0.23721,0
3.26691,0.039993,2.125826,0.128739,0.07648,1.014266,1.02526,-0.312487,0.31908,0.253398,0
3.318285,0.051376,2.135044,0.138679,0.04953,0.933115,0.944664,-0.151219,0.091838,0.209722,0
3.369934,0.051649,2.143747,0.126557,0.034477,0.938964,0.948082,-0.077609,-0.112802,0.313569,0
3.425064,0.055129,2.153539,0.144498,0.034234,0.976981,0.988202,-0.179624,-0.060268,0.224382,0
3.464913,0.039849,2.15872,0.101585,0.019666,0.973569,0.979052,0.019352,-0.063472,0.169517,0
3.510422,0.045509,2.16161,0.059642,0.033748,1.065686,1.067887,-0.046736,-0.218934,0.107316,0
3.559933,0.049511,2.158246,0.031033,0.026464,1.135871,1.136603,-0.053528,-0.287227,-0.036552,0
3.599422,0.039488,2.151135,0.015032,0.015782,1.126123,1.126334,-0.021763,-0.350452,-0.011507,0
3.639384,0.039963,2.145483,-0.005677,0.000971,1.110039,1.110054,-0.071853,-0.044103,0.023618,0
3.685141,0.045757,2.139198,-0.080222,-0.062719,1.048628,1.05356,0.335793,-0.241616,-0.132028,0
3.730436,0.045295,2.126917,0.003152,-0.005066,1.002569,1.002587,0.251493,-0.208018,-0.146078,0
3.77021,0.039774,2.115766,0.06837,-0.012303,0.991602,0.994033,0.020576,-0.028231,-0.137484,0
3.814357,0.044147,2.098233,0.01091,-0.036908,0.891687,0.892517,0.139084,-0.166897,-0.306999,0
3.866429,0.052072,2.08325,0.119768,-0.081052,0.881208,0.892996,0.203836,-0.107949,0.014927,0
3.908215,0.041786,2.077533,0.050671,-0.032565,0.950905,0.952811,0.078914,-0.188889,0.063491,0
3.953338,0.045122,2.075721,0.077583,0.001457,0.929216,0.93245,-0.087529,0.001375,0.215958,0
3.99507,0.041732,2.076465,0.042186,0.004127,0.91825,0.919228,0.009228,-0.038891,0.131401,0
4.040268,0.045198,2.075668,0.079037,0.001214,0.926292,0.929658,-0.013486,0.076046,0.155234,0
4.081796,0.041528,2.076073,0.106434,0.01044,0.918981,0.925183,-0.047694,0.179893,0.211434,0
4.126806,0.045011,2.079331,0.139164,0.027921,0.894855,0.906042,0.04699,0.138965,0.288708,0
4.168744,0.041938,2.082201,0.134315,0.026707,0.948224,0.958062,0.072951,0.115753,0.207768,0
4.213861,0.045117,2.0835,0.095524,-0.000241,1.012317,1.016814,0.345397,-0.169827,0.084068,0
4.25535,0.041489,2.078482,0.09116,0.031077,1.154392,1.158403,0.200928,-0.241604,0.012597,0
4.29332,0.03797,2.070808,0.108373,0.036176,1.07714,1.083182,-0.018126,0.039103,-0.067443,0
4.342043,0.048723,2.064315,0.082432,0.014082,1.102241,1.105409,0.067636,-0.133484,-0.011858,0
4.380174,0.038131,2.065171,0.091645,0.012625,1.120762,1.124573,0.237993,0.191469,0.258949,0
4.428995,0.048821,2.0735,-0.038753,0.007769,1.080308,1.081031,0.311908,-0.249576,0.160905,0
4.466987,0.037992,2.074121,0.016971,0.058999,0.937745,0.939753,0.039099,-0.092529,0.082225,0
4.509645,0.042658,2.073605,0.02279,0.042246,0.90314,0.904415,-0.121688,-0.022993,0.010962,0
4.552075,0.04243,2.071514,0.052853,0.008741,0.87341,0.875051,-0.051076,-0.052211,0.085621,0
4.597085,0.04501,2.071962,0.040731,0.012382,0.916788,0.917775,-0.105975,-0.081717,0.117719,0
4.638544,0.041459,2.071724,0.053581,0.024279,0.918493,0.920375,-0.325135,0.074718,0.057221,0
4.683506,0.044962,2.068414,0.080007,-0.001447,0.822233,0.826118,-0.216096,0.140692,-0.058233,0
4.725267,0.041761,2.060986,0.093584,-0.01568,0.871216,0.876368,-0.083843,0.108316,-0.185598,0
4.763266,0.037998,2.048249,0.115404,0.001457,0.948224,0.955222,-0.165088,0.122977,-0.21156,0
4.811792,0.048527,2.03516,0.123647,0.013354,0.967233,0.975196,-0.20174,0.117784,-0.313574,0
4.850478,0.038686,2.013822,0.107404,0.000243,0.973569,0.979475,-0.101558,0.042037,-0.495918,0
4.899172,0.048694,1.991529,0.107404,-0.036425,1.063493,1.069523,0.10583,-0.223384,-0.563418,0
4.937279,0.038108,1.964663,0.107646,-0.004825,1.189241,1.194112,-0.343156,-0.031878,-0.650161,1
4.986123,0.048844,1.937664,0.070309,-0.016162,1.073972,1.076392,-0.291843,0.150466,-0.544176,0
5.031523,0.0454,1.91357,0.045337,-0.099626,1.045703,1.051416,0.238999,0.197808,-0.596099,0
5.073282,0.041758,1.888833,-0.017032,-0.0,1.214098,1.214217,0.31719,-0.074638,-0.778137,0
5.118554,0.045273,1.85629,0.087038,-0.013991,1.092737,1.096287,-0.062158,0.190477,-0.72713,0
5.160253,0.041699,1.833159,0.0674,-0.061995,0.892174,0.896862,0.103998,0.00508,-0.58266,0
5.205708,0.045455,1.813838,0.078795,-0.056447,0.885838,0.891125,0.149507,-0.05448,-0.342285,0
5.247419,0.041712,1.805143,0.071037,-0.030636,0.936771,0.93996,-0.016954,0.175511,-0.237216,0
5.292484,0.045064,1.798817,0.053823,-0.040043,0.901922,0.904413,-0.052869,0.136719,-0.097188,0
5.334113,0.041629,1.797173,0.037337,-0.04728,0.889493,0.891531,0.053985,0.208557,-0.116586,0
5.372961,0.038848,1.791838,0.02085,-0.032565,0.889006,0.889847,0.226249,0.072334,-0.158735,0
5.415625,0.042664,1.788511,0.080734,0.007284,0.913863,0.917451,-0.061744,0.131234,-0.0363,0
5.464479,0.048854,1.790204,0.130193,-0.031601,0.816141,0.827064,0.069343,-0.005713,-0.002955,0
5.502979,0.038501,1.788599,0.108131,-0.012785,0.845141,0.852126,0.070237,-0.068928,-0.134084,0
5.551562,0.048582,1.787458,0.173834,-0.030153,0.932628,0.949169,0.074777,-0.108104,0.065089,0
5.589581,0.03802,1.791748,0.120496,-0.026294,1.099073,1.105971,0.069916,-0.148329,0.00874,0
5.638378,0.048797,1.792459,0.124375,0.006555,1.167795,1.174418,-0.164888,-0.008804,0.06303,0
5.676602,0.038224,1.79606,0.096251,0.00437,1.156098,1.160106,-0.143498,-0.011959,0.059268,0
5.725102,0.0485,1.79756,0.047762,0.013354,1.162921,1.163978,0.063232,0.083911,0.101443,0
5.763167,0.038065,1.804775,0.024245,0.01651,1.187778,1.188141,0.449604,-0.088047,0.285314,1
5.804676,0.041509,1.815874,-0.05307,0.1078,1.140257,1.146571,-0.050389,-0.056588,0.054407,0
5.850003,0.045328,1.818058,0.032973,0.087891,0.847334,0.852518,0.023274,0.030875,0.041041,0
5.891532,0.041528,1.826212,0.117344,0.088376,0.84051,0.853251,-0.011061,0.113968,0.492564,0
5.936597,0.045065,1.851744,0.06837,0.05997,0.866342,0.871103,-0.08803,0.027836,0.575336,0
5.978055,0.041459,1.873993,0.024245,0.033748,0.854401,0.855411,0.057967,0.012564,0.544487,0
6.023616,0.04556,1.898358,0.052611,0.003156,0.85562,0.857241,0.142877,0.015313,0.475765,0
6.065296,0.041681,1.915718,0.049459,0.024036,0.904359,0.906029,0.223206,-0.090061,0.469962,0
6.110324,0.045027,1.936896,0.144013,0.054871,0.984292,0.996283,-0.129875,0.117328,0.51089,0
6.151954,0.04163,1.955499,0.131163,0.054143,0.916544,0.927463,-0.293892,0.09106,0.305639,0
6.190282,0.038327,1.967809,0.166075,0.005827,0.841973,0.858215,-0.075813,-0.014008,0.311442,0
6.239053,0.048771,1.978638,0.16947,0.010197,0.956754,0.971701,-0.002204,0.008594,0.219507,0
6.277194,0.038141,1.986305,0.13286,0.008983,1.107846,1.11582,0.024674,-0.219565,0.175525,0
6.325816,0.048622,1.992533,0.121223,0.02695,1.161703,1.168321,-0.021751,-0.16367,0.155672,0
6.363993,0.038177,1.992443,0.047519,0.077451,1.18461,1.18809,-0.248993,0.025698,-0.107001,1
6.413223,0.04923,1.988698,0.099403,0.034234,1.081039,1.086139,-0.130791,0.088312,0.062515,0
6.458487,0.045265,1.991449,0.082917,-0.012785,1.094686,1.097896,0.252222,0.084036,0.175219,0
6.500453,0.041965,1.998403,0.025457,0.033263,1.152199,1.15296,0.142266,-0.020728,0.207901,0
6.545589,0.045137,2.007365,0.030063,0.027193,1.040829,1.041618,0.065908,0.035777,0.30289,0
6.587226,0.041637,2.018623,-0.01012,0.036419,0.973325,0.974059,0.059188,-0.118466,0.328241,0
6.632551,0.045325,2.033114,0.007273,0.039332,0.929216,0.930077,-0.01717,-0.007289,0.445833,0
6.674212,0.041661,2.048959,-0.007652,0.04783,0.902166,0.903465,-0.13354,0.078232,0.460493,0
6.719421,0.045209,2.064287,-0.021968,0.031563,0.877065,0.877908,-0.070621,0.036388,0.345956,0
6.761043,0.041622,2.076152,0.021093,0.015782,0.868292,0.868691,0.126994,-0.231782,0.502032,0
6.799112,0.038069,2.098231,0.109343,0.066282,0.905821,0.914801,-0.011672,0.168029,0.703312,0
6.847921,0.048809,2.125046,0.107161,0.032049,0.896804,0.903753,0.079347,-0.001791,0.836786,0
6.886099,0.038178,2.151772,0.104252,0.022337,0.940913,0.946935,0.033226,0.078538,0.637339,0
6.93471,0.048611,2.173236,0.199291,-0.011579,0.928485,0.949703,0.082707,0.000958,0.759512,0
6.972888,0.038177,2.196988,0.17747,-0.018092,0.95846,0.97492,0.202131,-0.112663,0.640699,0
7.021846,0.048959,2.217432,0.240021,0.000971,1.03035,1.057938,-0.023889,0.049827,0.769897,0
7.06002,0.038174,2.240521,0.152498,0.007041,1.032787,1.044009,0.005127,-0.087007,0.563119,0
7.108778,0.048758,2.252405,0.093584,0.018209,1.111989,1.116068,0.070795,-0.226284,0.5002,0
7.146834,0.038056,2.270977,0.104979,0.073323,1.180224,1.18715,-0.101775,0.262714,0.708505,1
7.195441,0.048607,2.291644,-0.026658,0.070895,1.147325,1.149822,0.110501,0.063572,0.768064,0
7.233918,0.038477,2.319956,-0.021475,0.117512,1.059838,1.066549,0.244891,0.03089,0.957127,0
7.282632,0.048714,2.353525,0.019881,0.172383,1.001838,1.016755,0.161814,0.213539,1.313261,0
7.320716,0.038084,2.392484,-0.043443,0.142276,1.011829,1.022706,0.054301,-0.003929,1.326089,0
7.36234,0.041624,2.43952,0.000242,0.084249,0.900216,0.90415,-0.064512,0.058379,1.190783,0
7.407541,0.045201,2.468295,0.008486,0.051472,0.812242,0.813915,0.052163,-0.137098,0.926278,0
7.449759,0.042218,2.489453,0.080007,0.040546,0.863418,0.868064,0.071711,-0.026531,0.802578,0
7.492273,0.042514,2.507849,0.159287,0.034962,0.868536,0.883713,-0.082227,0.136264,0.8432,0
7.537688,0.045415,2.527722,0.164621,0.001457,0.855376,0.871074,-0.032442,0.087395,0.748822,0
7.579463,0.041775,2.543243,0.190562,0.003156,0.890468,0.910636,-0.163167,0.131378,0.886572,0
7.624732,0.045269,2.572865,0.187896,0.090076,1.002325,1.023755,-0.529991,-0.23789,1.486136,0
7.666335,0.041603,2.619902,0.115889,0.012625,1.106384,1.112508,-1.388562,0.907176,1.452844,0
7.709451,0.043116,2.63853,-0.162171,-0.172477,0.822964,0.85634,0.060715,-0.560122,0.294643,0
7.753112,0.043661,2.632156,0.044368,-0.019781,1.042779,1.04391,0.816661,-1.068973,0.300752,0
7.79693,0.043818,2.625095,0.018668,0.104644,1.294761,1.299117,0.24031,-0.11419,-0.107306,1
7.841067,0.044137,2.603417,0.23396,-0.227958,1.043754,1.093674,0.021925,0.079454,0.344429,0
7.895739,0.054672,2.600535,-0.069361,-0.042456,1.095661,1.098675,0.403411,-0.08945,-0.054466,0
7.939588,0.043849,2.579237,0.039276,-0.036908,1.08372,1.085059,0.452891,-0.105638,0.12299,0
7.983565,0.043977,2.577324,0.132618,0.007041,1.093711,1.101745,-0.004036,0.209568,0.470573,0
8.031633,0.048068,2.57872,0.005819,-0.10421,0.978687,0.984236,-0.0245,0.255078,0.28884,0
8.075202,0.04357,2.578146,0.015517,-0.09046,0.882183,0.886944,0.424486,-0.223535,0.389022,0
8.118683,0.043481,2.585705,0.084129,0.004856,0.962115,0.965799,0.021315,0.280429,0.69079,0
8.162227,0.043544,2.601324,0.043883,0.011654,0.869998,0.871182,-0.113992,0.200711,0.596716,0
8.205718,0.043491,2.611402,0.017941,-0.020745,0.808099,0.808564,0.200604,-0.242167,0.584804,0
8.249328,0.043611,2.622734,0.097706,0.058513,0.89193,0.899172,0.034754,0.18941,0.649556,0
8.292981,0.043653,2.634457,0.061824,-0.024605,0.89193,0.894409,0.13127,0.061433,0.586332,0
8.336601,0.04362,2.64257,0.06934,-0.036908,0.914107,0.917476,0.191746,0.010121,0.483401,0
8.380362,0.043761,2.649428,0.14668,-0.002653,0.929947,0.941448,0.13463,0.165891,0.465686,0
8.431808,0.051446,2.659365,0.185229,-0.022675,0.954073,0.972152,0.199687,-0.020117,0.546625,0
8.476456,0.044647,2.662436,0.104252,-0.002895,1.060081,1.065199,0.19083,-0.034167,0.226532,0
8.521243,0.044787,2.662359,0.124375,0.000486,1.122955,1.129822,0.069878,-0.150537,0.296171,0
8.571654,0.050412,2.660848,0.052853,0.020152,1.201425,1.202756,0.097367,0.106027,0.293116,1
8.614995,0.043341,2.666199,0.024245,0.038118,1.227501,1.228332,0.152651,0.264241,0.598854,0
8.658322,0.043327,2.678598,-0.091082,0.06871,1.184367,1.189849,-0.014421,0.03761,0.418344,0
8.702353,0.04403,2.683347,-0.056032,0.030835,0.94725,0.949406,0.052163,-0.121521,0.287313,0
8.753561,0.051208,2.68492,0.011153,0.047102,0.913376,0.914657,0.178918,-0.240334,0.480041,0
8.797889,0.044329,2.703956,0.057702,0.069924,0.984048,0.988215,-0.034274,0.074262,0.738132,0
8.849309,0.05142,2.722394,0.000485,0.013354,0.925317,0.925413,0.101033,-0.153286,0.673991,0
8.892744,0.043434,2.73207,-0.016785,0.023551,0.935552,0.935999,0.067129,-0.221703,0.378332,0
8.93631,0.043566,2.731588,0.076613,0.043217,0.883645,0.888012,-0.061763,0.075483,0.244552,0
8.979797,0.043488,2.727478,0.072249,0.020637,0.839536,0.842891,0.038724,-0.199101,0.197821,0
9.024457,0.044659,2.718751,0.101585,0.01481,0.906796,0.912589,0.007386,0.002771,0.011924,0
9.075352,0.050895,2.705923,0.110313,-0.013509,0.932384,0.938984,0.103988,-0.184471,0.056189,0
9.118887,0.043535,2.693847,0.08025,0.023065,1.039854,1.043201,0.058479,-0.277017,-0.078201,0
9.165485,0.046598,2.677148,0.070552,0.035448,1.092737,1.095585,-0.317509,-0.033282,-0.090113,0
9.216166,0.050682,2.660956,-0.010367,-0.000241,0.997939,0.997992,-0.119283,0.22603,-0.142648,0
9.259797,0.04363,2.646975,-0.060475,-0.046798,1.014266,1.017145,0.303741,0.287728,0.013734,0
9.303426,0.043629,2.634679,-0.17081,-0.003136,1.132459,1.145273,0.432939,0.105995,-0.326518,0
9.346889,0.043462,2.608733,-0.070101,0.026222,1.06398,1.06661,-0.015131,0.355228,-0.556203,0
9.390657,0.043769,2.577776,0.000727,-0.048004,0.865368,0.866698,0.133615,0.256879,-0.501836,0
9.434912,0.044255,2.550919,-0.003456,-0.048486,0.901922,0.903231,0.316569,0.018641,-0.359505,0
9.485428,0.050516,2.535695,0.027154,0.020637,1.020602,1.021172,0.023354,0.387909,-0.149978,0
9.537077,0.051649,2.530427,-0.034063,-0.004825,0.990628,0.991225,0.047886,0.091601,-0.044455,0
9.580616,0.043539,2.52648,-0.042209,0.005099,1.006468,1.007366,-0.029611,0.172497,-0.214919,0
9.624918,0.044302,2.519723,-0.02962,0.002428,0.968451,0.968907,-0.007792,0.102931,-0.094191,0
9.668982,0.044064,2.517528,0.002424,0.017481,0.954073,0.954236,0.090963,0.014652,0.030876,0
9.712673,0.043691,2.5191,-0.002715,0.014568,0.999401,0.999511,0.106205,0.059159,0.024829,0
9.7563,0.043627,2.520592,-0.000987,0.01481,1.028401,1.028508,0.076821,-0.007581,0.026986,0
9.799973,0.043672,2.522591,0.005334,0.032049,1.047165,1.047669,0.095434,-0.026707,0.05543,0
9.851054,0.051082,2.526225,-0.001728,0.051472,1.095174,1.096384,0.070197,0.10944,0.213751,0
9.894386,0.043332,2.536801,-0.007158,0.05827,1.034493,1.036158,-0.100953,0.015108,0.116164,0
9.948289,0.053903,2.539067,-0.020241,0.046616,0.93214,0.933525,-0.052779,-0.233154,-0.085468,0
9.999119,0.05083,2.532058,-0.022462,0.043217,0.887057,0.888393,0.074892,-0.343415,-0.096464,0
10.043535,0.044416,2.528419,0.035155,0.051958,0.940182,0.942273,0.058786,0.047435,-0.076646,0
10.087651,0.044116,2.525558,0.024972,0.053657,0.995258,0.997016,0.003808,0.189767,-0.070232,0
10.138716,0.051065,2.525711,0.049217,0.037633,1.006955,1.00886,0.000876,0.139557,0.038783,0
10.181925,0.043209,2.530042,0.047519,0.033748,1.033275,1.034917,-0.095734,-0.020825,0.064658,0
10.225593,0.043668,2.531177,0.048974,0.046131,0.974787,0.977106,-0.010489,0.038944,-0.056589,0
10.2694,0.043808,2.529562,0.047519,0.069196,0.979905,0.983494,-0.035169,0.042696,-0.013834,0
10.313186,0.043786,2.528749,0.038549,0.076722,0.987216,0.990943,-0.04243,0.094189,-0.031428,0
10.364249,0.051063,2.534053,0.071764,0.076237,0.987216,0.992752,0.001254,0.113932,0.188604,0
10.415475,0.051226,2.543137,0.000242,0.038118,0.999888,1.000615,0.018053,0.114238,0.156839,0
10.459469,0.043994,2.548233,-0.032335,-0.001447,1.005493,1.006014,0.012536,0.112532,-0.051711,0
10.504556,0.045087,2.547395,0.004364,0.018938,1.017678,1.017864,0.01487,-0.003679,-0.098821,0
10.54822,0.043664,2.54462,0.07637,0.06264,0.997695,1.002572,-0.017603,0.001572,-0.01802,0
10.591583,0.043362,2.546133,0.084856,0.0539,0.976493,0.981654,0.037016,0.008711,0.064274,0
10.634928,0.043345,2.549984,0.020365,0.043703,1.005006,1.006162,0.056488,-0.109063,0.057235,0
10.678399,0.043471,2.5516,-0.000247,0.019909,0.93872,0.938931,-0.026461,-0.062457,-0.03016,0
10.72279,0.044391,2.549801,0.013335,0.023308,0.976006,0.976375,-0.026521,0.038747,-0.071679,0
10.773434,0.050644,2.54753,0.035882,0.032534,0.992334,0.993515,-0.01748,0.031335,-0.072416,0
10.817153,0.04372,2.545109,0.039761,0.054628,0.993308,0.995604,-0.012104,0.022426,-0.068916,0
10.860853,0.0437,2.543998,0.034912,0.044431,0.985997,0.987615,0.055201,-0.003999,-0.02162,0
10.904561,0.043708,2.543879,0.015759,0.049772,1.013779,1.015122,-0.007918,-0.040184,-0.02798,0
10.948271,0.04371,2.543655,0.020608,0.036662,0.991846,0.992737,-0.000473,-0.036556,-0.028549,0
10.992573,0.044302,2.543558,0.031276,0.039332,0.97625,0.977542,0.003454,0.032365,-0.015083,0
11.036047,0.043474,2.544076,0.031276,0.045888,0.984535,0.9861,0.017647,0.045633,-0.014561,0
11.086522,0.050475,2.543922,0.024972,0.048559,0.999401,1.000891,-0.014298,-0.00442,-0.022178,0
11.130364,0.043842,2.543166,0.024972,0.041275,0.997451,0.998617,-0.002349,-0.022555,-0.125336,0
11.173953,0.043589,2.540688,0.029578,0.044674,0.995258,0.996699,0.001941,-0.013978,-0.036221,0
11.217697,0.043744,2.540103,0.031276,0.046373,0.98551,0.987096,-0.008855,0.001343,-0.032825,0
11.261871,0.044173,2.539463,0.032245,0.036419,0.989165,0.990361,0.000747,0.018311,-0.018601,0
11.313016,0.051145,2.53959,0.022305,0.040546,0.999888,1.000958,0.005268,-0.028386,-0.026977,0
11.357106,0.04409,2.539492,0.030548,0.045402,0.997939,0.999438,-0.010989,-0.025347,-0.010931,0
11.400944,0.043838,2.540435,0.034427,0.043703,0.980149,0.981726,-0.000737,0.034845,0.008353,0
11.451597,0.050653,2.54147,0.021093,0.030592,1.012073,1.012755,-0.000455,-0.002489,-0.015202,0
11.506063,0.054466,2.541735,0.036367,0.039575,0.99209,0.993545,-0.009453,-0.011114,-0.003678,0
11.550717,0.044654,2.54283,0.035155,0.041518,0.993308,0.994797,-0.001517,-0.009972,-0.002755,0
11.598607,0.04789,2.543455,0.027154,0.04346,0.994039,0.995359,-0.005576,-0.018377,-0.012788,0
11.642312,0.043705,2.543538,0.030306,0.042246,0.979174,0.980553,0.003529,0.014714,-0.012575,0
11.686227,0.043916,2.543982,0.028366,0.044917,0.993308,0.994728,-0.008652,0.011892,-0.010145,0
11.730187,0.04396,2.544795,0.035882,0.051958,0.971132,0.973183,0.006876,0.021908,0.008235,0
11.784571,0.054384,2.546001,0.030306,0.045888,0.998426,0.999939,-0.002179,0.014221,-0.0044,0
11.828376,0.043805,2.546128,0.030791,0.043217,0.997207,0.998618,-0.00162,-0.015742,-0.008355,0
11.871696,0.04332,2.546241,0.041943,0.043703,0.985754,0.987613,0.002785,-0.009582,-0.000824,0
11.9153,0.043604,2.546547,0.036852,0.047587,0.997451,0.999265,0.008258,0.001734,-0.004367,0
11.959097,0.043797,2.546391,0.025214,0.045159,0.996233,0.997574,-0.002215,-0.004858,-0.00281,0
12.003223,0.044126,2.546182,0.032488,0.04783,0.988922,0.990611,-0.010674,0.004591,0.014712,0
12.054186,0.050963,2.547416,0.041701,0.043217,1.047165,1.048886,0.004521,0.019529,0.042693,0
12.097697,0.043512,2.54895,0.016001,0.033991,1.006468,1.007169,-0.013953,-0.080479,-0.018689,0
12.141195,0.043498,2.548306,0.048004,0.032049,0.978687,0.980387,-0.004183,-0.036368,-0.006477,0
12.184668,0.043472,2.548377,0.049701,0.053172,0.98088,0.983576,-0.011678,0.023354,0.004834,0
12.228402,0.043735,2.548663,0.041216,0.046373,0.997695,0.999622,-0.001084,0.001572,0.007242,0
12.272058,0.043656,2.548796,0.039034,0.039575,0.990871,0.992429,-0.012431,-0.012776,0.003709,0
12.315636,0.043578,2.5488,0.036367,0.042003,0.985266,0.986832,-0.000295,-0.003544,-0.014036,0
12.359301,0.043665,2.54827,0.039761,0.045159,0.99209,0.993913,-0.011142,-0.093993,-0.000874,0
12.403226,0.043925,2.5488,0.043883,0.050501,0.996233,0.998477,-0.003937,-0.003406,0.015045,0
12.454477,0.051251,2.550002,0.028609,0.035933,0.982829,0.983902,-0.02357,0.034183,0.036774,0
12.498665,0.044188,2.551136,0.003637,0.029135,0.998426,0.998858,-0.041461,0.067911,0.007432,0
12.547748,0.049083,2.550931,0.052126,0.044917,0.989653,0.992042,-0.025831,0.029008,0.016463,0
12.592264,0.044516,2.551552,0.082674,0.050501,0.99014,0.994868,-0.012163,0.020588,-0.039975,0
12.635749,0.043485,2.550987,0.036367,0.030106,1.021333,1.022424,-0.025533,-0.079116,0.006655,0
12.678974,0.043225,2.550451,0.029578,0.020637,0.985023,0.985683,0.000412,-0.04321,-0.002297,0
12.72352,0.044546,2.550488,0.043155,0.03739,0.996233,0.997868,-0.037457,0.026959,0.108772,0
12.77437,0.05085,2.55404,0.046307,0.038847,0.998913,1.00074,-0.041427,-0.007622,0.085861,0
12.826664,0.052295,2.557166,0.048489,0.035205,0.984048,0.985871,-0.014382,0.069884,0.076415,0
12.870214,0.043549,2.559185,0.04267,0.027436,0.993065,0.99436,-0.008725,0.089941,0.044055,0
12.913639,0.043425,2.559791,0.047519,0.026222,0.986485,0.987977,-0.000571,0.070888,0.036185,0
12.957025,0.043386,2.560092,0.025942,0.02258,1.015241,1.015823,0.023734,-0.01702,-0.008081,0
13.011566,0.054541,2.558122,0.03273,0.021366,0.989409,0.990181,0.027767,0.021322,-0.026236,0
13.055417,0.043851,2.55657,0.02279,0.026222,0.998426,0.99903,0.025624,0.00569,-0.02441,0
13.099432,0.044015,2.554954,0.054308,0.038604,0.991359,0.993595,0.032996,0.012299,-0.003812,0
13.150074,0.050642,2.554364,0.03564,0.030106,0.993308,0.994403,0.011948,0.053794,0.008979,0
13.200401,0.050327,2.552996,0.018426,0.025979,1.000376,1.000882,0.00309,0.025084,-0.036225,0
13.25453,0.054129,2.551448,0.047035,0.02695,1.059838,1.061223,0.036071,-0.010773,0.009129,0
13.304923,0.050393,2.550836,0.025457,0.029378,1.013048,1.013793,-0.020007,-0.092332,-0.04272,0
13.359035,0.054113,2.546422,0.030063,0.021609,0.975518,0.976221,0.082411,-0.010611,-0.055977,0
13.409653,0.050617,2.543751,0.027154,0.04346,1.014266,1.01556,0.042923,-0.089295,0.023988,0
13.453318,0.043665,2.542292,0.040488,0.031563,0.991115,0.992444,0.089302,-0.098803,-0.044588,0
13.497028,0.04371,2.539595,0.033215,0.046131,1.006955,1.008559,-0.026521,-0.081279,-0.053156,0
13.540636,0.043608,2.536687,0.041216,0.028407,0.985266,0.986537,-0.010747,-0.031236,-0.034454,0
13.58528,0.044645,2.534566,0.047762,0.040304,0.937502,0.939582,-0.041497,-0.055636,-0.019161,0
13.63603,0.05075,2.533171,0.047035,0.035691,1.006468,1.008198,-0.071589,-0.070742,-0.025852,0
13.679379,0.043349,2.531443,0.072491,0.023794,0.996964,0.999879,0.026698,-0.01159,-0.003831,0
13.722959,0.04358,2.531269,0.056975,0.032049,0.998913,1.00105,-0.053378,-0.066795,-0.041056,0
13.767587,0.044628,2.529761,0.048247,0.023794,0.993065,0.994521,-0.024969,-0.083761,-0.019942,0
13.818369,0.050782,2.526762,0.071764,0.015053,0.995502,0.998198,0.018589,-0.120563,-0.029548,0
13.862346,0.043978,2.524671,0.085826,0.029378,0.987703,0.99186,0.0025,-0.005545,-0.008394,0
13.906138,0.043792,2.521858,0.051883,0.026222,0.98746,0.989169,0.00581,0.060581,-0.052439,0
13.949695,0.043557,2.518448,0.062309,0.026222,0.999401,1.001685,-0.031131,-0.014525,-0.022074,0
13.993906,0.04421,2.515577,0.071037,0.033748,0.993065,0.996174,-0.001287,-1.5e-05,-0.024408,0
14.038416,0.04451,2.512919,0.068127,0.022823,1.003056,1.005626,0.027481,-0.059908,-0.039921,0
14.082014,0.043598,2.50924,0.069824,0.021366,0.999157,1.001822,0.085273,-0.061481,-0.070165,0
