timestamp,dt,heading_rad,accel_x,accel_y,accel_z,accel_norm,gyro_x_rads,gyro_y_rads,gyro_z_rads,step_event
0.000304,0.000304,1.891874,0.065703,0.118968,0.975275,0.984699,0.184977,0.059651,0.326499,0
0.143362,0.143059,1.903204,0.009213,0.101245,0.969182,0.9745,0.144965,0.116156,0.113307,0
0.188407,0.045045,1.908762,-0.012095,0.151745,0.985997,0.997679,-0.060286,0.153113,0.113307,0
0.23217,0.043762,1.91528,0.046792,0.136935,0.99209,1.002588,-0.344338,0.108826,0.381476,0
0.274126,0.041956,1.930328,0.033458,0.136449,1.01646,1.026123,-0.109155,0.080115,0.157594,0
0.319662,0.045536,1.937312,0.03273,0.094689,0.997451,1.00247,-0.026868,0.019698,0.115352,0
0.368469,0.048808,1.942827,0.025214,0.11654,0.99867,1.005763,-0.058421,-0.005197,0.0682,0
0.40654,0.038071,1.945585,0.045822,0.094689,0.993065,0.998621,0.007831,-0.012303,-0.057159,0
0.448142,0.041601,1.946055,0.038064,0.103915,0.994283,1.000423,0.019621,-0.031932,0.006489,0
0.49319,0.045048,1.947864,0.037822,0.121153,0.982829,0.990991,-0.002748,-0.009319,0.01328,0
0.534692,0.041502,1.950208,0.040246,0.120425,0.991359,0.999457,0.034819,-0.024205,0.025839,0
0.579754,0.045061,1.953332,0.051883,0.124795,0.976006,0.985319,-0.002022,0.035777,0.032105,0
0.621248,0.041494,1.956585,0.027396,0.107314,0.993308,0.999464,-0.007554,0.03071,0.026319,0
0.659282,0.038034,1.959211,0.03564,0.124067,1.004762,1.01302,-0.006316,-0.068134,0.019854,0
0.707911,0.04863,1.960348,0.03273,0.106586,0.987703,0.993977,0.020031,-0.047454,-0.00126,0
0.746204,0.038292,1.961715,0.039034,0.108043,0.97625,0.982985,0.034893,0.007196,0.005203,0
0.794734,0.04853,1.963476,0.050429,0.117269,0.980636,0.98891,0.022363,0.003307,-0.017782,0
0.832724,0.037991,1.964058,0.034185,0.118726,0.972594,0.98041,0.01668,0.092609,-0.027115,0
0.87423,0.041506,1.964908,0.037822,0.117754,0.999401,1.007025,0.022748,0.032775,0.000631,0
0.919683,0.045453,1.9663,0.024002,0.121396,0.997207,1.004856,0.020381,0.041126,0.042493,0
0.961303,0.04162,1.968093,0.047035,0.129651,0.988922,0.998493,0.009903,0.03867,0.009605,0
1.006429,0.045126,1.969051,0.025699,0.124067,0.999644,1.007642,-0.030527,-0.01506,-0.02296,0
1.047989,0.04156,1.969153,0.035882,0.112656,0.982829,0.989915,0.002944,-0.020063,-0.034374,0
1.093251,0.045262,1.968404,0.027154,0.122367,0.983804,0.991757,-0.020468,0.009814,-0.057938,0
1.134778,0.041527,1.967143,0.029821,0.126009,0.988922,0.997364,-0.056545,-0.011031,-0.055227,0
1.179748,0.044969,1.966535,0.04267,0.120668,0.985023,0.993303,-0.013453,-0.004759,-0.034377,0
1.221521,0.041773,1.966817,0.03273,0.185008,0.977955,0.995839,-0.011425,0.025351,-0.021487,0
1.260056,0.038535,1.967541,0.039761,0.13038,0.991115,1.000444,-0.010216,-0.006644,0.017519,0
1.302017,0.04196,1.968975,0.028124,0.125281,0.990628,0.998914,0.008969,-0.012321,0.018342,0
1.343792,0.041775,1.970291,0.038064,0.123339,0.966745,0.975325,0.053147,0.048417,0.005762,0
1.389137,0.045345,1.972741,0.037822,0.118726,0.984779,0.992631,0.058665,0.037026,0.019032,0
1.430874,0.041738,1.97493,0.009455,0.067739,0.999644,1.001982,-0.016194,0.028296,-0.009516,0
1.475917,0.045043,1.976162,0.031033,0.132322,0.999888,1.009083,-0.05017,-0.059991,-0.000931,0
1.517518,0.0416,1.976988,0.028124,0.183308,0.972838,0.990357,0.012534,-0.019644,0.009295,0
1.562597,0.045079,1.978803,0.038306,0.143248,0.976981,0.988169,-0.056658,0.032429,0.002807,0
1.604246,0.04165,1.980499,0.032003,0.057785,0.995989,0.998177,-0.009621,0.040371,-0.002996,0
1.642308,0.038062,1.981812,0.03467,0.11217,0.937989,0.945308,0.019669,-0.025773,0.01267,0
1.690886,0.048578,1.982443,0.030548,0.114598,0.985023,0.992137,-0.003368,-0.013538,-0.015642,0
1.729254,0.038368,1.9829,0.026911,0.128437,0.994771,1.003389,0.0025,-0.054424,0.010771,0
1.778312,0.049059,1.98378,0.019638,0.109499,0.987216,0.993464,0.055589,-0.073477,-0.005262,0
1.823612,0.045299,1.984314,0.025942,0.128437,0.988434,0.997082,-0.015548,-0.079863,-0.019064,0
1.865223,0.041612,1.984045,0.039276,0.124067,0.979418,0.988025,0.02449,-0.079782,-0.04507,0
1.903433,0.03821,1.983285,0.042428,0.131594,0.963334,0.973205,0.049506,0.067744,-0.033768,0
1.95245,0.049017,1.983629,0.03467,0.138392,0.991846,1.002054,-0.006554,0.075859,-0.006239,0
1.997884,0.045434,1.985493,0.024487,0.132565,1.000132,1.009176,0.000221,0.007031,0.005366,0
2.039522,0.041638,1.98673,0.040488,0.134021,0.978687,0.98865,-0.021156,0.027246,0.01181,0
2.084738,0.045216,1.988295,0.032973,0.12431,0.986729,0.995075,0.01387,0.024464,0.016219,0
2.126414,0.041676,1.989608,0.03273,0.133293,0.999157,1.00854,-0.013111,-0.003934,-0.001552,0
2.171481,0.045067,1.990938,0.031033,0.128437,0.992334,1.001092,0.016742,-0.004939,0.01497,0
2.213305,0.041824,1.991791,0.03564,0.134993,0.985754,0.995592,0.017006,0.017856,0.001351,0
2.258701,0.045397,1.992203,0.036124,0.129408,0.993065,1.002112,0.03927,0.009554,0.000829,0
2.300942,0.042241,1.992121,0.045337,0.12868,0.977468,0.986944,0.03401,0.028943,-0.020313,0
2.346315,0.045373,1.99198,0.040731,0.131108,0.995014,1.004441,0.005096,0.020976,-0.018845,0
2.387978,0.041663,1.989362,0.024972,0.132808,1.001838,1.010911,0.014911,-0.038796,-0.067776,0
2.433129,0.045151,1.987602,0.035882,0.132322,0.994527,1.003932,0.044701,-0.093382,-0.020652,0
2.474627,0.041498,1.987193,0.053338,0.143005,0.979174,0.990998,0.011081,-0.030692,-0.031606,0
2.519646,0.045019,1.98555,0.057217,0.144947,0.965771,0.978262,0.060282,0.099677,-0.129205,0
2.56122,0.041574,1.979295,0.025942,0.165342,0.97893,0.993134,-0.054561,0.075243,-0.319795,0
2.599218,0.037998,1.969527,-0.027646,0.164371,1.037661,1.050963,-0.159324,0.058138,-0.173188,0
2.647702,0.048484,1.965065,0.058187,0.111927,0.979418,0.987508,-0.130003,0.139994,-0.091332,0
2.691737,0.044034,1.966258,0.055763,0.084977,0.95188,0.957291,-0.934207,-0.062202,0.649343,0
2.737334,0.045598,2.007866,-0.01012,0.49821,1.241148,1.337447,0.201392,-0.168798,0.218988,1
2.793162,0.055828,2.008728,-0.013576,0.091533,1.009149,1.013382,-0.694137,0.307371,-0.115155,0
2.838175,0.045013,2.016553,0.069582,0.072352,0.899485,0.905069,0.179401,-0.454683,0.214712,0
2.886666,0.04849,2.032635,0.161711,0.181609,0.960409,0.990716,-0.02249,0.047143,0.301455,0
2.939548,0.052883,2.05051,0.085826,0.175539,0.93214,0.9524,-0.011189,0.03065,0.352767,0
2.990305,0.050756,2.076075,0.129709,0.192292,0.95188,0.979732,-0.058531,0.442678,0.618799,0
3.045073,0.054769,2.097953,0.125829,0.190835,0.989165,1.015234,-0.223159,0.667477,0.60536,0
3.084385,0.039311,2.121894,0.041216,0.107557,0.998913,1.005532,-0.020352,0.377621,0.351851,0
3.12986,0.045475,2.129635,0.062066,0.082549,0.976493,0.98194,-0.053034,0.21116,0.186612,0
3.178396,0.048536,2.133724,0.115162,0.083763,0.957485,0.968016,-0.129086,0.249034,0.163094,0
3.217113,0.038718,2.135333,0.073219,0.055599,0.941888,0.946365,0.112415,-0.010698,0.131809,0
3.261262,0.044149,2.137398,0.090917,0.101002,0.986972,0.996284,0.060588,0.019497,0.10083,0
3.314572,0.05331,2.140089,0.101342,0.132565,0.998426,1.012274,-0.062819,0.197488,0.226888,0
3.357119,0.042547,2.14707,0.007516,0.143976,1.035224,1.045215,-0.1554,-0.004629,-0.00111,0
3.400805,0.043686,2.146968,0.100615,0.131836,0.971619,0.985671,-0.165589,-0.038772,0.072313,0
3.444809,0.044004,2.148587,0.062066,0.114841,0.979174,0.987837,0.108764,-0.127646,0.13352,0
3.484739,0.039929,2.154027,0.032245,0.174082,1.120274,1.134178,-0.097708,-0.027769,0.199493,0
3.539039,0.0543,2.162355,-0.027399,0.117512,1.117106,1.123604,-0.238513,0.340277,0.28196,0
3.583383,0.044344,2.173431,-0.113791,0.063126,1.131972,1.139427,-0.031124,0.392506,0.247752,0
3.626682,0.043299,2.174154,-0.158468,0.061184,1.108333,1.121275,0.32837,-0.08855,-0.097082,0
3.669922,0.04324,2.165062,-0.006171,0.151988,1.078846,1.089517,0.087689,-0.222941,-0.127625,0
3.71576,0.045838,2.155785,0.033215,0.126252,0.848796,0.858777,-0.300821,-0.248902,-0.20215,0
3.757757,0.041997,2.146116,0.036852,0.012382,0.766427,0.767412,0.419694,-0.334118,-0.000259,0
3.809483,0.051726,2.144524,0.027639,0.093718,0.998182,1.002953,0.263924,-0.1307,0.162536,0
3.853907,0.044425,2.149743,0.015274,0.113627,1.017191,1.023631,-0.085256,-0.028504,0.172117,0
3.901658,0.047751,2.152457,0.005819,0.089833,0.923611,0.927988,0.001369,-0.090156,0.211723,0
3.947011,0.045353,2.154869,0.014789,0.094932,0.896073,0.901209,-0.006621,-0.125895,0.098494,0
3.988588,0.041576,2.152282,0.070067,0.091533,0.868536,0.876152,-0.077695,-0.003343,0.045457,0
4.033651,0.045063,2.147281,0.087281,0.069196,0.857082,0.864289,0.015922,-0.085411,-0.064888,0
4.075238,0.041587,2.138524,0.13286,0.069439,0.914351,0.926559,0.012164,-0.024009,-0.118861,0
4.113266,0.038028,2.124894,0.106434,0.044674,1.043023,1.04939,0.287053,-0.327303,-0.284405,0
4.162036,0.04877,2.108209,0.120981,0.104886,1.108333,1.119839,0.151136,-0.227427,-0.243477,0
4.200239,0.038203,2.093879,0.090917,0.107557,1.134896,1.143601,-0.014103,-0.102199,-0.351906,0
4.242905,0.042666,2.077353,0.036367,0.078908,1.132703,1.13603,0.137086,-0.031339,-0.398026,0
4.287257,0.044352,2.062493,0.034427,0.114598,1.165846,1.17197,0.283388,0.156502,-0.010127,0
4.343028,0.055771,2.061846,-0.076272,0.126252,1.160241,1.169579,0.191453,0.121377,-0.119777,0
4.382968,0.03994,2.054053,-0.059241,0.175053,0.955535,0.973242,-0.427048,0.117712,-0.34427,0
4.433944,0.050976,2.039662,-0.000987,0.073809,0.765208,0.76876,-0.047395,-0.243004,-0.316476,0
4.475589,0.041645,2.029471,0.026427,0.089105,0.831006,0.836187,0.16488,-0.229259,-0.108171,0
4.521751,0.046162,2.028009,0.106919,0.138877,0.962602,0.978428,-0.168282,0.059275,0.213605,0
4.563347,0.041596,2.035482,0.018183,0.090804,0.975275,0.979662,-0.147726,-0.127905,-0.038246,0
4.60864,0.045293,2.030703,0.053096,0.078179,0.908502,0.913404,-0.321212,-0.009091,-0.244108,0
4.650223,0.041583,2.015876,0.084371,0.046373,0.84051,0.846006,-0.191403,-0.077508,-0.441723,0
4.695306,0.045083,1.996334,0.129951,0.075508,0.845628,0.85888,-0.059761,-0.175247,-0.467685,0
4.737842,0.042537,1.975386,0.16753,0.104644,0.921905,0.942829,-0.096413,-0.138595,-0.447221,0
4.779803,0.04196,1.954249,0.119768,0.09566,1.05009,1.061218,-0.137341,-0.231141,-0.635978,0
4.817873,0.038071,1.92416,0.102555,0.104644,1.095905,1.105656,-0.268372,-0.189297,-0.709282,0
4.86641,0.048536,1.893545,0.051883,0.108285,1.114669,1.121118,-0.409787,-0.168833,-0.777393,0
4.904802,0.038392,1.862672,0.064491,0.09736,1.104678,1.110833,-0.480648,0.211736,-0.618874,0
4.94743,0.042628,1.842294,0.00194,0.015296,1.083964,1.084073,-0.200871,0.407213,-0.567867,0
4.988848,0.041418,1.817385,-0.137487,-0.019781,1.145132,1.153525,0.54805,-0.321854,-0.790222,0
5.033919,0.045071,1.781922,-0.000494,0.107314,1.093468,1.098721,0.154347,-0.029861,-0.813434,0
5.075279,0.04136,1.756192,0.071522,0.065554,0.953829,0.958751,0.060885,0.179361,-0.477764,0
5.113203,0.037924,1.742067,0.029821,0.012625,0.919956,0.920525,0.211463,-0.065291,-0.37972,0
5.154637,0.041434,1.727887,0.051641,0.061912,0.933359,0.936834,-0.038036,-0.031161,-0.14451,0
5.199543,0.044906,1.725739,0.053338,0.064583,0.889981,0.893914,-0.328197,0.133773,-0.030278,0
5.241662,0.042119,1.725981,0.039276,0.027921,0.815653,0.817076,-0.10046,-0.005712,-0.002142,0
5.286581,0.044919,1.729128,0.093827,0.063854,0.852452,0.859974,0.0559,0.004548,0.225269,0
5.331686,0.045105,1.744068,0.118556,0.104158,0.928972,0.942281,-0.043671,0.101981,0.328505,0
5.380573,0.048887,1.754749,0.093342,0.090804,0.937258,0.946261,-0.133928,0.041709,0.135898,0
5.425765,0.045192,1.761503,0.195654,0.052443,0.921418,0.94342,-0.052788,-0.105664,0.220339,0
5.467212,0.041447,1.768035,0.189108,0.049044,0.981367,1.000624,-0.018868,-0.114398,0.12114,0
5.505108,0.037896,1.773332,0.199291,0.092504,1.118569,1.139943,-0.313916,0.00075,0.133663,0
5.553492,0.048384,1.776057,0.123163,0.027921,1.138795,1.145776,-0.175249,-0.065835,-0.107018,0
5.59213,0.038638,1.773539,0.073461,0.040061,1.159022,1.162039,-0.00332,-0.001917,-0.038061,0
5.640735,0.048605,1.77756,0.060611,0.04953,1.156342,1.158988,0.192798,0.239987,0.289499,0
5.678691,0.037956,1.792232,-0.032829,0.04783,1.182417,1.183839,0.363535,0.03382,0.219555,1
5.720369,0.041677,1.800452,-0.077506,0.100759,1.006712,1.014706,0.41332,-0.468006,0.112959,0
5.765451,0.045082,1.809514,0.038549,0.138149,0.924586,0.935644,0.189744,0.121784,0.386932,0
5.806947,0.041496,1.829778,-0.000987,0.146161,0.944813,0.956052,0.00343,0.262283,0.309963,0
5.851959,0.045012,1.843994,-0.032829,0.085949,0.87609,0.880908,0.016869,-0.055061,0.132812,0
5.893649,0.04169,1.851874,0.075886,0.060455,0.761553,0.767708,0.099884,0.03163,0.209591,0
5.938909,0.04526,1.864023,0.103767,0.076722,0.800788,0.81112,-0.018611,-0.003737,0.181143,0
5.9814,0.042491,1.870262,0.153711,0.075023,0.796889,0.815038,-0.155576,0.183064,0.040711,0
6.026412,0.045012,1.873966,0.188623,0.057056,0.821989,0.845281,-0.156492,0.125948,0.066673,0
6.067887,0.041475,1.876532,0.211898,0.060455,0.884376,0.911414,-0.164378,0.091732,-0.030236,0
6.112791,0.044904,1.875065,0.225717,0.036419,0.984048,1.01026,0.112086,-0.142934,-0.088689,0
6.154206,0.041415,1.873803,0.20026,0.071381,1.200451,1.219131,0.12919,-0.30634,-0.12473,1
6.192125,0.037919,1.874555,0.182077,0.129408,1.275022,1.294442,-0.333846,-0.258388,0.041425,0
6.234814,0.042689,1.875709,0.071522,0.131594,1.209711,1.218948,-0.514968,-0.030535,-0.19162,0
6.276284,0.04147,1.871958,0.061339,0.054143,1.111745,1.114751,-0.140248,0.009918,-0.013325,0
6.314287,0.038003,1.876672,-0.012095,0.054871,1.125148,1.12655,0.222589,-0.105915,-0.109294,0
6.367246,0.052959,1.87134,-0.026165,0.169955,1.029863,1.04412,-0.15126,0.112164,-0.10624,0
6.409092,0.041846,1.873028,-0.007158,0.070895,0.926535,0.929271,0.026469,0.017517,0.1073,0
6.450619,0.041527,1.881783,-0.007405,0.054386,0.865611,0.86735,0.139785,0.118921,0.13204,0
6.495541,0.044922,1.888713,-0.038013,0.049772,0.883888,0.886104,0.110403,0.118536,-0.011629,0
6.537003,0.041461,1.888453,-0.01012,0.042003,0.852939,0.854033,0.042825,0.148214,-0.178025,0
6.575095,0.038092,1.886724,0.081462,0.032777,0.827838,0.832482,0.102385,0.250534,-0.083341,0
6.623553,0.048458,1.888025,0.11007,0.050015,0.880233,0.888497,0.032667,0.126071,-0.010861,0
6.661474,0.03792,1.893262,0.179652,0.040789,0.898267,0.916963,-0.103862,0.254353,0.048393,0
6.702903,0.041429,1.89957,0.146922,0.013839,0.92288,0.934604,0.175119,-0.237731,-0.026553,0
6.748224,0.045321,1.902237,0.203897,0.044188,0.977955,0.999962,0.201692,-0.102119,-0.01342,0
6.789701,0.041476,1.907809,0.199048,0.071138,1.082989,1.103424,0.123828,0.017014,0.107826,0
6.827682,0.037982,1.914708,0.123647,0.070167,1.142207,1.151021,0.095288,-0.209437,-0.056729,0
6.876265,0.048583,1.915585,0.121708,0.058027,1.144157,1.152074,0.309091,-0.272356,-0.015801,0
6.915773,0.039509,1.917259,0.083159,0.093232,1.124174,1.131094,0.267857,-0.122389,-0.081469,0
6.957197,0.041424,1.918943,0.077825,0.102944,1.102241,1.10977,0.19608,0.186709,0.017186,0
6.998578,0.041381,1.925064,0.017214,0.148832,1.103216,1.113343,-0.02253,0.147535,0.045125,0
7.036596,0.038018,1.930471,-0.028386,0.150774,0.950418,0.962721,-0.04744,0.022404,-0.008926,0
7.085042,0.048446,1.933143,0.028851,0.127952,0.896317,0.905863,-0.054992,0.21734,0.001593,0
7.122931,0.037889,1.938955,0.061581,0.122367,0.892418,0.902871,-0.064461,0.115631,0.128653,0
7.164343,0.041412,1.945994,0.076855,0.104158,0.843922,0.853792,-0.075472,0.058636,-0.029133,0
7.20932,0.044976,1.945909,0.104494,0.097603,0.817359,0.829772,-0.016753,-0.15088,0.060063,0
7.25147,0.04215,1.948046,0.163409,0.119454,0.827351,0.851752,-0.085038,0.036683,0.012032,0
7.296691,0.045221,1.951988,0.170924,0.131594,0.89388,0.91954,-0.137226,-0.032083,0.124071,0
7.338327,0.041636,1.958033,0.167045,0.185494,0.939208,0.971814,-0.065279,-0.119718,0.07191,0
7.384227,0.0459,1.95905,0.168257,0.151503,0.995989,1.0214,-0.139194,-0.168588,-0.118374,0
7.433002,0.048775,1.953,0.181592,0.139849,1.012804,1.038415,-0.112315,-0.153011,-0.177628,0
7.470998,0.037996,1.947532,0.169955,0.129408,1.116132,1.136389,0.082245,-0.18783,-0.138838,0
7.512538,0.041541,1.941603,0.121465,0.164856,1.138795,1.157059,-0.146829,-0.094062,-0.263455,0
7.554743,0.042205,1.930853,0.097948,0.111927,1.087375,1.0975,-0.100404,0.022613,-0.271396,0
7.592699,0.037956,1.923612,0.084371,0.032777,1.069342,1.073166,0.329646,0.145092,-0.123261,0
7.634182,0.041483,1.917958,-0.028386,0.117026,1.164384,1.170594,0.316207,-0.086426,-0.343478,0
7.679169,0.044987,1.906163,0.040004,0.11654,1.036686,1.043983,0.126838,0.055294,-0.34867,0
7.720874,0.041705,1.90041,0.082674,0.07915,0.940426,0.947365,0.208694,0.164945,-0.085998,0
7.76599,0.045116,1.904751,0.037822,0.081821,0.937989,0.94231,0.194339,0.181438,0.028539,0
7.807495,0.041505,1.912623,0.021335,0.090562,0.950418,0.954961,0.064346,0.095506,0.043675,0
7.845461,0.037966,1.916788,0.025699,0.072838,0.89193,0.895269,-0.09721,0.093874,-0.037468,0
7.894175,0.048715,1.918317,0.040973,0.055842,0.817359,0.820289,-0.059926,0.03475,-0.128184,0
7.932377,0.038201,1.9187,0.089705,0.051958,0.795183,0.801912,0.11683,-0.092859,-0.056406,0
7.981126,0.048749,1.922635,0.155893,0.078422,0.853914,0.871563,0.046336,0.070165,0.111229,0
8.019268,0.038142,1.932082,0.159045,0.088134,0.927023,0.944687,-0.147919,0.175845,0.088322,0
8.067801,0.048534,1.938723,0.146922,0.046616,0.985997,0.997973,0.160611,-0.143056,0.041605,0
8.105807,0.038006,1.942201,0.201715,0.10173,1.072997,1.096522,0.149005,-0.19162,0.043743,0
8.147329,0.041522,1.946689,0.203412,0.071624,1.119543,1.140125,-0.070907,0.025237,-0.05766,0
8.192349,0.04502,1.943756,0.102555,0.099059,1.132459,1.1414,0.07004,-0.310306,-0.259765,0
8.234248,0.041899,1.932943,0.108373,0.177724,1.121249,1.140408,0.23986,-0.215622,-0.180964,0
8.279362,0.045114,1.930775,0.106434,0.199575,1.144644,1.166777,0.243831,0.076372,0.14982,0
8.320929,0.041567,1.942534,0.018668,0.216571,1.152686,1.173003,0.031555,0.109359,0.17456,0
8.359016,0.038088,1.950348,-0.036532,0.199575,0.970888,0.991861,-0.132938,0.030043,0.074629,0
8.408851,0.049835,1.958507,0.003879,0.150289,0.875603,0.888415,0.125338,-0.019208,0.315506,0
8.450656,0.041805,1.974926,0.054793,0.218028,0.937989,0.964553,-0.247595,0.268205,0.467917,0
8.488723,0.038066,1.994417,0.023032,0.141548,0.891443,0.902905,-0.327924,0.263318,0.445926,0
8.530209,0.041486,2.009487,0.019396,0.081578,0.830763,0.834984,-0.051813,-0.011877,0.256558,0
8.575557,0.045349,2.017436,0.096493,0.132079,0.866586,0.881888,-0.051507,-0.003936,0.248616,0
8.617097,0.041539,2.025477,0.137467,0.132322,0.881939,0.902343,-0.162685,0.102049,0.150878,0
8.662086,0.044989,2.028994,0.120496,0.092261,0.859031,0.872334,-0.022917,0.007208,0.112205,0
8.703591,0.041505,2.031392,0.156863,0.104644,0.922149,0.94123,0.041334,0.118049,0.169443,0
8.741858,0.038267,2.037244,0.136255,0.129651,1.010123,1.027484,-0.027228,0.035885,0.150078,0
8.790343,0.048485,2.036974,0.125102,0.123339,1.040586,1.055311,-0.10347,-0.042825,-0.091603,0
8.828334,0.037992,2.029678,0.183289,0.085463,0.983073,1.003659,0.02364,-0.154074,-0.065847,0
8.870057,0.041723,2.027626,0.162196,0.129894,1.062762,1.082886,0.035333,-0.08665,0.097863,0
8.915301,0.045244,2.027475,0.060611,0.194234,1.118325,1.136684,-0.322455,0.115355,0.077931,0
8.956939,0.041639,2.029868,0.007758,0.109742,1.103216,1.108688,-0.205474,-0.033696,0.057772,0
9.001825,0.044886,2.027112,0.007031,0.087648,1.110283,1.113759,0.040878,0.013702,-0.039813,0
9.04342,0.041595,2.026323,-0.002468,0.13038,1.152199,1.159555,0.230501,-0.187177,0.202525,0
9.088408,0.044988,2.030914,-0.012835,0.14956,1.053258,1.063901,-0.148541,0.067859,0.208023,0
9.129937,0.04153,2.039863,0.009455,0.08959,0.927023,0.93139,-0.095701,0.333585,0.421826,0
9.167955,0.038018,2.057764,-0.073557,0.104886,0.994283,1.002502,0.130319,0.059307,0.498184,0
9.216695,0.048739,2.074398,-0.054798,0.13912,0.955048,0.966682,0.122378,0.02632,0.607834,0
9.25484,0.038146,2.101238,-0.021228,0.17044,0.956266,0.971569,-0.029422,0.201027,0.884862,0
9.303353,0.048512,2.133907,-0.049367,0.169955,0.967476,0.983531,0.061902,0.132305,1.039716,0
9.341411,0.038059,2.168325,-0.031348,0.206616,0.984779,1.006709,0.09611,-0.012775,1.314605,0
9.384253,0.042842,2.23098,-0.000494,0.208559,0.986729,1.008529,0.015476,0.091377,1.47679,0
9.437033,0.05278,2.297101,-0.011354,0.174082,0.974056,0.989555,0.27265,-0.204893,1.732743,0
9.488264,0.051231,2.356264,0.048732,0.174082,0.970401,0.987095,0.249743,-0.075084,1.926081,0
9.531464,0.0432,2.420103,0.024972,0.116783,0.962359,0.96974,0.30075,-0.0198,2.060777,0
9.574919,0.043455,2.488766,-0.000247,0.062398,0.955292,0.957327,0.316633,0.024182,2.068413,0
9.618993,0.044074,2.556831,-0.008146,0.031806,0.960653,0.961214,0.440333,5.3e-05,2.114228,0
9.662864,0.043871,2.622038,-0.016044,0.038604,1.007686,1.008553,0.496838,-0.233909,2.10537,0
9.706613,0.043749,2.706535,0.062551,0.045402,1.016947,1.01988,0.366113,0.221491,2.464254,0
9.75782,0.051207,2.784498,-0.039494,0.071624,1.102485,1.105514,0.360004,0.108176,2.283743,0
9.801445,0.043625,2.852479,-0.000987,0.144704,1.071535,1.081262,0.285479,0.166514,2.472806,0
9.845171,0.043726,2.928091,-0.005184,0.183551,1.063737,1.079469,0.061902,0.434378,2.371708,0
9.889236,0.044065,3.008151,-0.065658,0.187679,0.954561,0.975049,-0.037975,0.26639,2.06994,0
9.940259,0.051023,3.07706,0.014547,0.181852,0.954561,0.971837,-0.088676,0.212634,2.102927,0
9.991144,0.050885,3.129564,-0.004443,0.151745,0.970645,0.982445,0.027388,0.139941,2.065359,0
10.034944,0.0438,-3.105361,-0.051342,0.122367,0.984779,0.99368,0.2192,-0.043319,1.950516,0
10.078674,0.04373,-3.0613,-0.018266,0.124795,0.991602,0.999591,0.212175,-0.002391,1.96029,0
10.122352,0.043678,-3.017387,0.010425,0.147618,0.959191,0.970539,0.149561,0.141163,2.00305,0
10.166045,0.043693,-2.968959,0.038306,0.14349,0.927267,0.939085,0.147728,0.231265,2.201276,0
10.209691,0.043645,-2.901921,-0.005924,0.152474,0.928485,0.94094,0.057626,0.281967,2.083379,0
10.260939,0.051249,-2.856772,-0.020981,0.090319,0.88267,0.887527,0.394213,0.147882,2.043673,0
10.304764,0.043825,-2.810484,0.007758,0.178695,0.958947,0.975485,0.358172,0.316786,2.186005,0
10.348597,0.043832,-2.760127,-0.015304,0.132079,1.010611,1.01932,0.129708,0.561132,2.083074,0
10.393198,0.044601,-2.715292,-0.065411,0.087405,1.03035,1.036118,0.149867,0.27708,1.800243,0
10.436952,0.043754,-2.685981,-0.008886,0.062398,0.982829,0.984848,0.287922,0.073662,1.612402,0
10.481355,0.044403,-2.648137,0.064976,0.070167,0.947493,0.952307,0.281508,0.024793,1.660355,0
10.532308,0.050953,-2.621406,0.125345,0.06434,0.943594,0.954055,0.002037,0.464005,1.590411,0
10.576036,0.043729,-2.594718,0.080007,0.020152,0.974056,0.977544,0.022501,0.214772,1.558951,0
10.619908,0.043872,-2.573064,0.096493,0.01481,1.018653,1.02332,-0.077986,0.225157,1.339345,0
10.663623,0.043714,-2.556,0.075886,0.008012,1.05009,1.052859,-0.258497,0.090155,0.928538,0
10.714419,0.050797,-2.558303,0.082189,-0.006031,1.006955,1.010322,-0.162896,-0.151747,0.622495,0
10.765562,0.051143,-2.580054,0.118556,-0.061271,0.999644,1.008513,0.016087,-0.110208,0.430989,0
10.809337,0.043774,-2.602341,0.102797,0.035205,1.079333,1.084789,0.109549,-0.169768,0.487188,0
10.85305,0.043713,-2.62374,0.072249,0.080607,1.10419,1.109484,-0.081041,0.084658,0.39342,0
10.896794,0.043744,-2.648156,0.007516,0.018938,1.066905,1.067099,0.084285,-0.074122,0.074197,0
10.940637,0.043842,-2.688272,-0.051589,0.0017,1.042535,1.043812,0.480736,-0.39055,-0.13533,0
10.995035,0.054398,-2.730868,0.039761,0.061912,1.081039,1.08354,0.284954,-0.173999,-0.15335,0
11.038885,0.04385,-2.765263,0.057702,0.048559,0.971619,0.974542,0.18631,-0.037367,0.014036,0
11.082545,0.04366,-2.789641,0.051156,0.05997,0.908746,0.912158,0.100597,-0.029231,0.099385,0
11.126135,0.043589,-2.813316,0.028609,0.044431,0.874384,0.87598,0.046932,-0.082007,0.04517,0
11.169776,0.043641,-2.835258,0.047519,0.055114,0.889493,0.892465,-0.076718,0.042138,0.052441,0
11.213495,0.04372,-2.854523,0.087281,0.036662,0.853426,0.858661,-0.225769,0.236088,0.074127,0
11.264678,0.051182,-2.871038,0.077583,0.026222,0.852695,0.856619,-0.077531,0.053142,0.109217,0
11.308737,0.04406,-2.887414,0.113222,0.02695,0.852695,0.860601,-0.052153,0.19622,0.140541,0
11.360082,0.051345,-2.895132,0.184986,0.073323,0.967476,0.987728,-0.224417,0.381312,0.169862,0
11.41086,0.050778,-2.911311,0.059642,0.00607,1.044728,1.046447,0.23654,-0.419479,-0.115666,0
11.454994,0.044133,-2.93641,0.169955,0.099302,1.098342,1.11584,0.151324,-0.375802,-0.045722,0
11.499233,0.04424,-2.958117,0.151771,0.123339,1.112232,1.129295,0.129333,-0.183074,0.118601,0
11.543541,0.044308,-2.964764,0.085826,0.09299,1.199232,1.20589,0.232264,0.113196,0.49917,1
11.587534,0.043993,-2.959625,-0.153285,0.144462,1.302316,1.319239,0.273192,-0.16261,0.40082,0
11.63811,0.050576,-2.967628,-0.219437,0.133779,1.093711,1.123501,-0.029492,-0.197735,-0.056412,0
11.688795,0.050685,-2.982075,-0.058253,0.091533,0.859275,0.866098,0.452175,-0.182463,0.056598,0
11.743145,0.054349,-2.990761,0.026911,0.169469,0.868048,0.884846,0.337638,-0.205371,0.217866,0
11.786479,0.043335,-2.98909,0.111768,0.186465,0.758872,0.789397,-0.216417,0.233231,0.30186,0
11.836851,0.050372,-2.984781,0.087038,0.096874,0.740595,0.751958,-0.026438,-0.008672,0.186712,0
11.890922,0.054071,-2.987399,0.122678,0.104886,0.862199,0.877177,0.004106,-0.126264,0.199235,0
11.93486,0.043938,-2.989372,0.158802,0.096146,0.827838,0.848397,0.162625,-0.064566,0.309496,0
11.978892,0.044032,-2.986809,0.138921,0.126252,0.956023,0.974278,0.251811,-0.020889,0.278647,0
12.029898,0.051007,-2.987493,0.142558,0.184765,1.032544,1.058587,-0.304687,0.24667,-0.094897,0
12.080796,0.050898,-3.003217,0.124375,0.109499,0.999888,1.013526,-0.15136,-0.140924,-0.312365,0
12.124683,0.043887,-3.026954,0.179168,0.128437,1.024014,1.047474,0.143077,-0.347091,-0.297093,0
12.16867,0.043987,-3.049633,0.19129,0.194477,1.131241,1.163666,-0.310185,0.086012,-0.272048,0
12.219475,0.050805,-3.061939,0.160257,0.096146,1.049115,1.06563,-0.266508,0.431456,0.098137,0
12.273801,0.054326,-3.059592,0.044125,0.044431,1.148543,1.150249,0.18034,0.677941,0.123793,0
12.317587,0.043786,-3.066052,-0.098981,0.128194,1.207274,1.21809,0.082296,-0.035856,-0.312365,1
12.361586,0.043999,-3.090528,0.003394,0.107072,0.96967,0.975569,-0.220693,0.062188,-0.421404,0
12.405154,0.043568,-3.111979,0.044852,0.017238,0.83588,0.83726,0.266778,-0.104578,-0.214015,0
12.448616,0.043462,-3.122663,0.063521,0.068468,0.935796,0.940445,0.39231,0.158094,-0.02984,0
12.492767,0.044151,-3.128024,0.035155,0.122367,1.005981,1.014005,-0.07714,0.270799,-0.075654,0
12.543612,0.050845,-3.136631,0.023032,0.057542,0.909477,0.911586,-0.046291,0.08479,-0.243032,0
12.58726,0.043647,3.131456,0.079522,0.046373,0.803469,0.808725,0.047477,-0.015086,-0.271437,0
12.630789,0.04353,3.119632,0.152983,0.059241,0.829057,0.845132,0.152685,0.055137,-0.118227,0
12.674344,0.043555,3.112885,0.132618,0.080364,0.906552,0.919719,0.063077,-0.098177,-0.164614,0
12.717901,0.043557,3.104615,0.157347,0.081578,0.944082,0.960574,0.105995,-0.144968,-0.078088,0
12.769805,0.051904,3.098823,0.101342,0.107314,1.116375,1.126091,0.313078,-0.34014,-0.042352,0
12.813423,0.043618,3.094492,0.061824,0.157572,1.180224,1.1923,-0.07024,-0.248815,-0.137952,1
12.856757,0.043334,3.088581,0.052126,0.159029,1.147325,1.159466,-0.203408,0.061199,-0.038076,0
12.900087,0.04333,3.094328,0.047519,0.126252,1.103703,1.111916,0.022917,0.365104,0.303703,0
12.944766,0.044679,3.107234,-0.052576,0.127709,1.149518,1.157785,0.158224,0.145193,0.171451,0
12.987888,0.043122,3.109516,-0.096019,0.149803,1.083476,1.09799,0.093105,-0.168907,-0.068587,0
13.030872,0.042984,3.103513,-0.016291,0.152717,0.979905,0.991868,0.189927,-0.273976,0.009909,0
13.0739,0.043028,3.110074,0.052126,0.185251,0.896073,0.916506,0.28339,-0.04765,0.372457,0
13.124158,0.050258,3.130865,0.070794,0.219727,0.897292,0.926512,-0.226988,0.183562,0.360545,0
13.178041,0.053883,-3.138238,0.058187,0.156116,0.808099,0.825095,-0.308539,0.008855,0.173315,0
13.228957,0.050916,-3.134648,0.113707,0.101245,0.731334,0.747014,0.045763,-0.089189,0.177591,0
13.272817,0.04386,-3.127814,0.163651,0.126981,0.778124,0.805222,0.113264,0.089795,0.377955,0
13.316285,0.043468,-3.116315,0.148134,0.154902,0.918737,0.943407,-0.24226,0.320396,0.057862,0
13.359809,0.043524,-3.120342,0.102797,0.09736,1.019384,1.029169,-0.272192,0.13225,-0.379212,0
13.403253,0.043443,3.138475,0.131163,0.066282,1.071535,1.081566,-0.080075,-0.302992,-0.611341,0
13.447684,0.044431,3.101321,0.170439,0.130137,1.125148,1.145401,0.033546,-0.25229,-0.491306,0
13.50144,0.053756,3.07905,0.176501,0.190107,1.203131,1.230779,-0.318313,0.104455,-0.343171,1
13.54519,0.04375,3.067483,0.119526,0.115569,1.107602,1.120011,-0.264862,0.27336,-0.253985,0
13.595833,0.050643,3.051699,0.013335,0.053414,1.070073,1.071488,0.300494,0.051005,-0.428998,0
13.646388,0.050555,3.024166,-0.008146,0.128194,1.013535,1.021643,0.080888,-0.103239,-0.731682,0
13.701086,0.054698,2.99144,0.059642,0.073323,0.850258,0.855496,0.305992,-0.158217,-0.58599,0
13.750332,0.049246,2.977262,0.122435,0.084735,0.868048,0.880726,0.307824,0.194253,-0.163882,0
13.793782,0.043449,2.985541,0.100858,0.136692,0.991359,1.005808,0.038433,0.433101,0.157127,0
13.836895,0.043114,2.997765,0.018183,0.133536,0.972107,0.981404,-0.256615,0.265113,-0.000476,0
13.879962,0.043067,3.002765,0.032488,0.007769,0.854888,0.855541,-0.11957,0.118015,-0.075543,0
13.925352,0.04539,3.005162,0.074188,0.048559,0.833687,0.838389,-0.004502,0.091968,-0.069916,0
13.969518,0.044165,3.00789,0.081947,0.066282,0.867561,0.87394,0.091059,-0.057712,-0.010698,0
14.020795,0.051277,3.012774,0.123647,0.061669,0.93409,0.944254,-0.042873,-0.007447,0.044714,0
14.064458,0.043663,3.018189,0.095039,0.059484,0.994283,1.000585,-0.037834,-0.028721,-0.007597,0
14.107935,0.043477,3.020515,0.069097,0.083035,1.069829,1.075269,-0.083731,-0.215424,-0.131702,0
14.151514,0.043579,3.019142,0.1011,0.074537,1.072266,1.079598,-0.012585,-0.130612,-0.015777,0
14.195113,0.043599,3.022359,0.059642,0.07648,1.124417,1.128592,0.110915,0.046042,-0.078006,0
14.238924,0.043811,3.028912,0.052611,0.13038,1.295005,1.302615,0.348541,0.312074,0.347462,1
14.282853,0.043929,3.050923,-0.11626,0.229439,1.327904,1.352586,0.145734,-0.067579,-0.008673,0
14.333763,0.05091,3.05038,-0.080962,0.15733,1.010855,1.026223,-0.308139,-0.146686,-0.294252,0
14.388079,0.054316,3.04449,-0.001234,0.154416,0.794695,0.80956,0.304254,-0.410885,-0.09511,0
14.432237,0.044158,3.0561,0.12389,0.242064,0.848065,0.890594,0.052577,-0.097816,0.464137,0
14.483259,0.051022,3.095134,0.129709,0.202732,0.835636,0.869605,-0.219869,0.45013,0.593335,0
14.527435,0.044176,3.128667,0.042913,0.13475,0.835636,0.847518,-0.088227,0.207922,0.378005,0
14.57127,0.043835,-3.131965,0.064006,0.121639,0.865124,0.875975,0.048912,0.046042,0.244836,0
14.614994,0.043724,-3.113143,0.134315,0.160971,0.908014,0.931903,-0.232697,0.338036,0.212766,0
14.658613,0.043619,-3.097328,0.090917,0.116298,0.880477,0.892766,-0.202154,0.217085,0.041724,0
14.702097,0.043484,-3.091615,0.094554,0.064583,0.929216,0.936245,-0.102008,-0.007915,-0.187197,0
14.753253,0.051155,-3.09734,0.134073,0.082549,0.977712,0.990308,-0.196387,-0.039069,-0.317312,0
14.796929,0.043677,-3.105657,0.147165,0.054143,0.972838,0.985394,-0.144158,-0.174071,-0.47522,0
14.840538,0.043609,-3.120131,0.170924,0.06604,0.981855,0.998807,-0.094067,-0.234852,-0.525922,0
14.884131,0.043592,-3.133248,0.148134,0.1061,1.10614,1.121047,-0.097732,-0.294106,-0.587619,0
14.928253,0.044122,3.128303,0.056247,0.133779,1.165115,1.174118,-0.344827,-0.114817,-0.809974,0
14.971848,0.043595,3.115266,0.092129,0.082307,1.151711,1.158318,-0.025345,0.060502,-0.174675,0
15.022885,0.051036,3.120014,-0.087627,0.116055,1.198257,1.207049,-0.183559,0.152742,-0.268748,1
15.066526,0.043641,3.11786,-0.164393,0.040789,1.012073,1.026148,-0.070549,-0.09252,-0.461476,0
15.109918,0.043392,3.106594,-0.106386,0.043703,0.968939,0.975741,0.080946,-0.047622,-0.459032,0
15.160484,0.050566,3.101016,-0.036285,0.060698,0.921174,0.923885,0.07667,0.167403,-0.207967,0
15.204149,0.043665,3.104409,-0.050354,0.056571,0.939695,0.942742,0.029328,0.20772,-0.118475,0
15.247949,0.043799,3.107695,-0.07257,0.067011,0.982098,0.987053,-0.10995,0.223908,-0.181089,0
15.291723,0.043775,3.11058,-0.043196,0.049772,0.963577,0.965828,-0.182337,0.214134,-0.056167,0
15.33551,0.043787,3.117776,-0.048627,0.023551,0.877065,0.878728,-0.022817,-0.054028,0.124056,0
15.386236,0.050726,3.132153,0.014789,0.046859,0.963821,0.965073,0.034605,0.17749,0.296015,0
15.440657,0.054421,-3.130817,-0.006911,0.087163,0.979174,0.98307,0.000396,0.201924,0.43071,0
15.484328,0.043671,-3.111704,-0.015057,0.063854,0.965771,0.967996,0.095691,0.20284,0.325642,0
15.528602,0.044274,-3.095279,-0.001234,0.087648,1.002813,1.006636,0.182129,0.173214,0.373289,0
15.57237,0.043768,-3.079291,0.014547,0.107072,1.040586,1.046181,-0.147433,0.255069,0.244702,0
15.623063,0.050693,-3.0649,0.02279,0.062883,1.024258,1.026439,0.089583,0.218418,0.258141,0
15.673698,0.050635,-3.055686,-0.027646,0.007041,0.968451,0.968871,0.086834,-0.20705,0.134441,0
15.71726,0.043563,-3.05246,0.025214,0.038604,1.00135,1.002411,0.034919,0.017412,0.14117,0
15.761301,0.04404,-3.050765,-0.042209,0.008498,0.999401,1.000328,0.120745,-0.165236,-0.079963,0
15.804818,0.043518,-3.058899,0.005819,0.079393,0.95846,0.96176,0.023197,-0.087589,-0.126244,0
15.848521,0.043703,-3.064318,0.043155,0.085463,0.969913,0.974627,0.337901,-0.010033,0.088051,0
15.892033,0.043512,-3.065655,0.036852,0.061184,0.96967,0.972297,0.396544,-0.015531,-0.034733,0
15.936037,0.044003,-3.066811,0.11007,0.117997,0.950418,0.964019,0.142424,0.407798,0.152192,0
15.986593,0.050557,-3.062507,0.034912,0.088376,1.024258,1.028656,0.046213,0.31739,0.043152,0
