timestamp,dt,heading_rad,accel_x,accel_y,accel_z,accel_norm,gyro_x_rads,gyro_y_rads,gyro_z_rads,step_event
0.001195,0.001195,2.175714,0.083159,0.077208,0.931409,0.938296,-0.122594,0.201372,0.091315,0
0.150704,0.149508,2.180501,0.065703,0.104158,0.954317,0.96223,-0.043182,0.192209,0.103533,0
0.192255,0.041551,2.184889,0.058187,0.130622,0.999157,1.009338,-0.059675,0.211757,0.061383,0
0.238004,0.04575,2.188785,0.070794,0.105858,0.99209,1.00023,-0.014471,0.199539,0.077876,0
0.279681,0.041677,2.191958,0.056975,0.096874,0.986241,0.992624,0.026484,0.152186,0.037276,0
0.324686,0.045004,2.193753,0.047035,0.102944,0.990871,0.997314,0.02505,0.150608,0.031545,0
0.366117,0.041432,2.194887,0.060854,0.105372,0.970401,0.978,0.001227,0.24407,0.020854,0
0.404029,0.037912,2.195763,0.052611,0.094446,0.962359,0.968412,0.068727,0.221163,0.019633,0
0.452591,0.048562,2.196151,0.062793,0.111199,1.000376,1.008494,0.004892,0.244987,-0.012438,0
0.490702,0.038111,2.195798,0.078068,0.095175,0.980636,0.988332,0.009473,0.233075,-0.006024,0
0.532294,0.041592,2.197045,0.086553,0.105615,0.997695,1.006996,-0.01374,0.221468,0.004666,0
0.577299,0.045004,2.198231,0.080734,0.1078,1.00135,1.010367,-0.047948,0.24071,0.002223,0
0.618756,0.041458,2.199278,0.076613,0.102944,1.006224,1.014374,-0.049475,0.182678,-0.002969,0
0.663725,0.044969,2.200695,0.073219,0.111685,0.996476,1.005385,-0.10598,0.196117,0.023909,0
0.705278,0.041552,2.20247,0.065218,0.103672,0.975275,0.982936,-0.098955,0.235518,0.000696,0
0.743519,0.038241,2.203195,0.053581,0.112413,0.971132,0.979084,-0.087349,0.200699,-0.016408,0
0.792404,0.048886,2.203137,0.064006,0.121882,0.976493,0.98615,-0.074521,0.251095,0.007721,0
0.830549,0.038145,2.20419,0.062551,0.118726,0.982829,0.991949,-0.053446,0.237656,-0.000526,0
0.879099,0.04855,2.204769,0.073946,0.115812,0.988922,0.998422,-0.044283,0.235824,0.000696,0
0.917119,0.03802,2.205238,0.077825,0.114598,0.99209,1.001714,-0.040007,0.234296,0.001918,0
0.965833,0.048714,2.205284,0.083159,0.109499,0.999401,1.008815,-0.060165,0.21933,0.028185,0
1.005069,0.039236,2.205049,0.070794,0.104401,0.986241,0.994275,-0.040923,0.210473,0.020854,0
1.052716,0.047647,2.206398,0.058914,0.117754,0.995258,1.00393,-0.076353,0.225133,-0.005107,0
1.091438,0.038722,2.208093,0.05649,0.10173,0.969913,0.976869,0.000921,0.195506,-0.002358,0
1.140556,0.049118,2.209588,0.068127,0.113141,0.993308,1.00205,-0.058027,0.246819,-0.025571,0
1.185876,0.04532,2.209977,0.065945,0.094689,0.979418,0.986192,-0.012518,0.209251,-0.017325,0
1.227859,0.041983,2.209233,0.074916,0.114598,1.007443,1.016703,-0.088571,0.236129,-0.018546,0
1.271976,0.044116,2.208308,0.067158,0.101973,0.980636,0.988208,-0.071466,0.217498,-0.019463,0
1.317659,0.045683,2.207935,0.075158,0.107557,0.96309,0.971987,-0.037869,0.247735,0.000696,0
1.366249,0.04859,2.208108,0.063036,0.108771,0.989409,0.997364,-0.044894,0.251706,-0.018852,0
1.404296,0.038047,2.206839,0.066188,0.101002,0.99014,0.997477,-0.033593,0.208335,-0.024655,0
1.452891,0.048595,2.205155,0.083644,0.108528,0.998913,1.008267,-0.069634,0.255982,-0.006329,0
1.491134,0.038243,2.204564,0.066188,0.101487,0.987703,0.995107,-0.052224,0.21597,0.001001,0
1.539913,0.048779,2.203852,0.067642,0.110228,0.977224,0.985745,-0.058944,0.241016,0.006194,0
1.577783,0.03787,2.203523,0.060854,0.105372,0.976981,0.984529,-0.026873,0.238267,0.004972,0
1.619167,0.041384,2.203307,0.06643,0.110471,0.995502,1.003813,-0.040312,0.247125,0.002834,0
1.664058,0.044891,2.203031,0.068127,0.102216,0.993552,1.001117,-0.054057,0.238878,0.001918,0
1.709362,0.045304,2.203777,0.065945,0.101245,0.98551,0.992889,-0.057111,0.237045,-0.011827,0
1.751518,0.042156,2.203667,0.06934,0.101245,0.980392,0.988042,-0.03512,0.22605,0.003445,0
1.793368,0.04185,2.203541,0.066915,0.107072,0.988922,0.99695,-0.040007,0.241932,-0.017936,0
1.838672,0.045305,2.203111,0.0674,0.10343,0.995989,1.003611,-0.043672,0.228493,-0.017936,0
1.880292,0.04162,2.202721,0.066188,0.100759,0.985754,0.993098,-0.044894,0.219941,-0.013049,0
1.925437,0.045145,2.202677,0.069097,0.112413,0.986972,0.995754,-0.057722,0.244681,-0.00358,0
1.967294,0.041857,2.203631,0.061581,0.105615,0.974544,0.982182,-0.040923,0.24743,-0.00694,0
2.013155,0.04586,2.203917,0.0674,0.112413,0.988678,0.997328,-0.047643,0.256288,-0.004191,0
2.062059,0.048904,2.203502,0.065703,0.102458,0.984779,0.992272,-0.036952,0.242848,-0.013965,0
2.100209,0.038151,2.202549,0.068855,0.100273,0.989897,0.997342,-0.046726,0.231853,-0.009078,0
2.148846,0.048637,2.201787,0.071037,0.104644,0.992577,1.000603,-0.054057,0.237351,-0.011216,0
2.1871,0.038254,2.201088,0.066673,0.110228,0.992334,1.00066,-0.043977,0.222384,-0.009078,0
2.235959,0.048859,2.200396,0.060127,0.111442,0.977468,0.985636,-0.044588,0.218719,-0.018546,0
2.277873,0.041914,2.200024,0.068127,0.114841,0.991359,1.000311,-0.060471,0.234296,0.001307,0
2.323546,0.045673,2.200224,0.072249,0.113141,0.990628,0.999682,-0.064136,0.238878,0.011997,0
2.368681,0.045135,2.200267,0.071037,0.111927,0.979661,0.98859,-0.057111,0.251401,0.010164,0
2.41028,0.041599,2.199969,0.062551,0.105615,0.980392,0.988047,-0.032066,0.239183,0.004666,0
2.455498,0.045217,2.199733,0.0674,0.107557,0.989653,0.99776,-0.055889,0.251095,0.004361,0
2.498498,0.043,2.199754,0.0674,0.099545,0.98746,0.99475,-0.041534,0.246208,0.004666,0
2.540207,0.041709,2.199922,0.06643,0.109014,0.993552,1.00172,-0.048559,0.2401,-0.005413,0
2.578285,0.038078,2.199746,0.063036,0.103672,0.983073,0.990532,-0.056806,0.232769,-0.005413,0
2.619886,0.041601,2.199713,0.068855,0.104401,0.988434,0.996315,-0.058333,0.239794,-0.00358,0
2.665002,0.045116,2.199898,0.063278,0.110471,1.054233,1.061892,-0.061693,0.21597,0.006804,0
2.706684,0.041682,2.20017,0.065218,0.105372,0.977712,0.985534,-0.063525,0.240405,0.003445,0
2.749155,0.042471,2.200981,0.069097,0.100031,0.971376,0.978954,-0.040007,0.253233,-0.000831,0
2.787328,0.038174,2.201237,0.057945,0.110471,0.985997,0.993857,-0.058333,0.281028,-0.008467,0
2.83603,0.048701,2.201156,0.052368,0.101002,0.984048,0.990603,-0.044894,0.260564,-0.019768,0
2.874151,0.038122,2.200541,0.056732,0.100273,0.988434,0.995126,-0.04581,0.257509,-0.033513,0
2.922788,0.048637,2.199217,0.057945,0.10173,0.988434,0.995344,-0.050697,0.267283,-0.037178,0
2.961137,0.038349,2.197751,0.059157,0.102701,0.989409,0.996483,-0.036342,0.226355,-0.033818,0
3.010034,0.048897,2.196493,0.074431,0.112413,0.996964,1.006038,-0.067801,0.258426,-0.020684,0
3.048056,0.038022,2.196224,0.074188,0.109257,0.987703,0.996493,-0.054668,0.232769,0.007415,0
3.089572,0.041516,2.197238,0.06643,0.111199,0.97893,0.987463,-0.03848,0.24407,0.0178,0
3.134545,0.044973,2.19822,0.048732,0.11217,0.989409,0.996939,-0.048253,0.245292,0.003139,0
3.175994,0.041449,2.198952,0.052611,0.1061,0.994039,1.001069,-0.050392,0.249568,-0.002358,0
3.22116,0.045166,2.198853,0.056005,0.10343,0.988678,0.99565,-0.045199,0.25476,-0.011827,0
3.262731,0.041571,2.198382,0.061339,0.104158,0.985997,0.993379,-0.051308,0.252011,-0.020074,0
3.311983,0.049252,2.198097,0.064248,0.103915,0.98551,0.993054,-0.050086,0.248652,-0.007856,0
3.350653,0.03867,2.198757,0.059884,0.109257,0.997695,1.005444,-0.071466,0.233991,-0.000831,0
3.395784,0.045131,2.19902,0.060369,0.101002,0.990384,0.99735,-0.054973,0.221774,-0.001748,0
3.437579,0.041795,2.199225,0.061096,0.107314,0.970888,0.97871,-0.051613,0.246208,0.013524,0
3.483105,0.045526,2.200389,0.056732,0.099545,0.980636,0.987307,-0.030538,0.238878,0.008026,0
3.531801,0.048696,2.200656,0.058672,0.104401,0.999401,1.00655,-0.060471,0.252928,-0.00694,0
3.569867,0.038067,2.200588,0.056247,0.096389,0.99209,0.998347,-0.050392,0.237351,-0.015187,0
3.611494,0.041627,2.199976,0.057702,0.102701,0.993796,1.000753,-0.052224,0.240405,-0.015492,0
3.656743,0.045249,2.199518,0.059399,0.104644,0.98088,0.988233,-0.054668,0.245597,-0.004497,0
3.698382,0.041639,2.199613,0.057702,0.104886,0.988434,0.995657,-0.047032,0.242848,0.00039,0
3.743901,0.04552,2.19968,0.048247,0.096874,0.989165,0.995068,-0.036342,0.238267,-0.008773,0
3.792623,0.048722,2.199117,0.042186,0.100516,0.996233,1.002179,-0.047948,0.241627,-0.019768,0
3.830904,0.038281,2.19846,0.043883,0.096389,0.98551,0.991184,-0.036952,0.25812,-0.034429,0
3.879612,0.048708,2.197105,0.042428,0.085949,0.995014,0.99962,-0.010685,0.214138,-0.065583,0
3.917783,0.038171,2.19465,0.056975,0.112413,1.006468,1.014328,-0.055584,0.223606,-0.077189,0
3.959723,0.04194,2.192528,0.062551,0.11824,0.977468,0.986579,-0.053446,0.237045,-0.048784,0
4.005138,0.045415,2.192615,0.068127,0.122367,0.966502,0.976596,-0.034509,0.2401,-0.006329,0
4.053929,0.048791,2.193611,0.069097,0.131594,0.977712,0.988945,-0.033287,0.27217,0.019633,0
4.092146,0.038217,2.196664,0.061581,0.119211,1.056913,1.065396,-0.050086,0.253844,0.023603,0
4.140997,0.048851,2.197928,0.05455,0.105372,0.997939,1.004968,-0.061082,0.237962,0.011081,0
4.179129,0.038132,2.198454,0.052853,0.097603,0.985997,0.992225,-0.04917,0.241932,-0.004802,0
4.228222,0.049093,2.198389,0.046307,0.1061,0.995258,1.001968,-0.073299,0.258731,-0.012743,0
4.273582,0.045359,2.197798,0.040246,0.106343,0.981611,0.988174,-0.040618,0.230937,-0.02832,0
4.316647,0.043066,2.197192,0.062066,0.114355,0.985997,0.994545,-0.040923,0.247735,-0.019463,0
4.358489,0.041842,2.197558,0.064491,0.116298,0.978443,0.987438,-0.042145,0.245292,0.012608,0
4.396599,0.03811,2.199147,0.067642,0.110713,0.983804,0.992322,-0.03848,0.25812,0.020244,0
4.445498,0.048898,2.200155,0.052853,0.102216,0.998426,1.005035,-0.048253,0.234907,-0.000831,0
4.483906,0.038408,2.200226,0.051883,0.101973,0.991359,0.997939,-0.040618,0.228493,-0.012743,0
4.532677,0.048772,2.199867,0.047762,0.109742,0.993065,1.000251,-0.05253,0.227882,-0.02099,0
4.570643,0.037966,2.199765,0.049459,0.117512,0.98551,0.993723,-0.068412,0.258731,-0.016714,0
4.619148,0.048505,2.199832,0.055035,0.112413,0.978443,0.986416,-0.045505,0.244376,-0.009994,0
4.657192,0.038044,2.200226,0.062066,0.114355,0.981124,0.989713,-0.039701,0.237656,0.005583,0
4.698655,0.041463,2.201441,0.054793,0.113627,0.994771,1.002737,-0.064747,0.248346,0.00375,0
4.744179,0.045525,2.201921,0.050186,0.106343,0.982342,0.989355,-0.040618,0.246514,-0.013049,0
4.78587,0.04169,2.201928,0.051883,0.109985,0.988922,0.996371,-0.051002,0.256898,-0.007245,0
4.831033,0.045164,2.202082,0.051883,0.108771,0.993065,1.00035,-0.047643,0.250484,-0.023433,0
4.872561,0.041528,2.201459,0.056005,0.111199,0.993308,1.001081,-0.040618,0.2401,-0.017019,0
4.917751,0.04519,2.201529,0.056975,0.11387,0.991846,0.999986,-0.048559,0.23002,-0.016408,0
4.959512,0.041761,2.201808,0.064976,0.114113,0.984535,0.993254,-0.051002,0.234296,0.01444,0
5.004503,0.044991,2.202216,0.052126,0.110956,0.97625,0.983916,-0.044588,0.234602,0.011386,0
5.045972,0.04147,2.202668,0.053581,0.113384,0.98088,0.988864,-0.046726,0.25079,0.017495,0
5.090902,0.044929,2.203751,0.046307,0.113141,0.989165,0.996691,-0.048864,0.256288,0.001307,0
5.132443,0.041542,2.203876,0.051156,0.106586,0.985266,0.992334,-0.026568,0.237656,-0.017019,0
5.170939,0.038496,2.203801,0.062793,0.114113,0.994039,1.002536,-0.061082,0.255066,0.00375,0
5.219653,0.048713,2.204311,0.059642,0.104644,0.989165,0.996472,-0.070245,0.246819,-0.010605,0
5.257852,0.038199,2.204467,0.059642,0.107072,0.973082,0.98077,-0.044894,0.242543,0.009859,0
5.3065,0.048648,2.204717,0.048004,0.114598,0.990871,0.998631,-0.060776,0.249568,-0.015798,0
5.345728,0.039228,2.203829,0.053823,0.105858,0.980392,0.987559,-0.008547,0.230631,-0.020379,0
5.38764,0.041912,2.203666,0.060611,0.122367,1.002569,1.011826,-0.072688,0.253844,-0.000526,0
5.429343,0.041704,2.204318,0.053338,0.104886,0.984292,0.9913,-0.049781,0.231547,-0.001137,0
5.4747,0.045357,2.204308,0.05649,0.105372,0.978443,0.98572,-0.054362,0.237962,-0.009078,0
5.516148,0.041448,2.204587,0.061096,0.106586,0.987703,0.995315,-0.05253,0.247735,0.001307,0
5.561298,0.04515,2.204605,0.050914,0.107072,0.985997,0.9931,-0.048253,0.238267,-0.011521,0
5.602863,0.041565,2.204232,0.05649,0.111685,0.98746,0.99536,-0.059555,0.247735,-0.007856,0
5.647935,0.045072,2.204069,0.048489,0.110713,0.98551,0.992894,-0.062609,0.260869,-0.010605,0
5.689641,0.041707,2.204025,0.051156,0.105858,0.983073,0.990078,-0.047032,0.241932,-0.008162,0
5.735404,0.045762,2.20349,0.061096,0.113384,0.991846,1.000174,-0.058333,0.25812,-0.006024,0
5.777117,0.041714,2.203129,0.056732,0.105858,0.990628,0.997882,-0.040923,0.236129,-0.008773,0
5.822169,0.045052,2.203128,0.059884,0.112899,0.995014,1.003188,-0.058027,0.239794,-0.005107,0
5.863771,0.041602,2.203331,0.051641,0.105858,0.977712,0.984781,-0.025041,0.230937,-0.008467,0
5.909033,0.045262,2.203866,0.055278,0.114598,0.999157,1.007225,-0.066274,0.239794,-0.00358,0
5.951246,0.042213,2.204231,0.055278,0.107314,0.98746,0.994811,-0.060471,0.233685,-0.010605,0
5.996388,0.045142,2.203842,0.056732,0.107557,0.977712,0.985245,-0.044588,0.241627,-0.015492,0
6.038851,0.042464,2.203768,0.05649,0.107072,0.985023,0.992434,-0.047643,0.251706,-0.009078,0
6.080502,0.041651,2.204047,0.05746,0.108771,0.988922,0.996544,-0.054057,0.245597,-0.011521,0
6.118591,0.038089,2.204342,0.056005,0.11387,0.980636,0.988812,-0.051308,0.257815,-0.003275,0
6.167289,0.048697,2.204967,0.056005,0.110228,0.978687,0.986465,-0.051919,0.272781,-0.006635,0
6.205408,0.038119,2.205103,0.054793,0.101245,0.982586,0.989306,-0.026873,0.234602,-0.018852,0
6.254905,0.049498,2.204579,0.06934,0.110713,1.000376,1.008869,-0.047032,0.253844,-0.006329,0
6.300364,0.045458,2.204583,0.05455,0.109014,1.002081,1.009469,-0.07055,0.225133,-0.005107,0
6.342051,0.041688,2.204334,0.059399,0.110228,0.981855,0.989807,-0.069634,0.2401,-0.013354,0
6.387517,0.045465,2.204596,0.053581,0.107314,0.969426,0.976818,-0.049781,0.261785,-0.005718,0
6.437083,0.049567,2.205338,0.048974,0.11217,0.991602,0.999128,-0.050392,0.265145,-0.008162,0
6.481434,0.04435,2.204893,0.050914,0.109014,0.999401,1.006617,-0.068717,0.246514,-0.019768,0
6.526973,0.04554,2.204095,0.064491,0.107314,0.991602,0.999475,-0.061387,0.245292,-0.009689,0
6.577751,0.050777,2.203961,0.062551,0.106829,0.977712,0.985518,-0.047032,0.267589,0.006499,0
6.631433,0.053682,2.204433,0.049217,0.108043,1.001107,1.008122,-0.057111,0.227882,-0.012438,0
6.682091,0.050658,2.203358,0.05746,0.105858,0.976006,0.98341,-0.069634,0.253233,-0.015492,0
6.733228,0.051137,2.203004,0.061339,0.105858,0.968451,0.976149,-0.057722,0.276446,-0.000831,0
6.777096,0.043868,2.202903,0.060127,0.103915,0.984779,0.99207,-0.047948,0.278279,-0.005107,0
6.820801,0.043705,2.202285,0.058187,0.108285,0.991602,0.999193,-0.071161,0.259953,-0.007551,0
6.864566,0.043766,2.201775,0.0674,0.104158,0.979661,0.987486,-0.049475,0.255371,-0.012132,0
6.908368,0.043802,2.20173,0.068612,0.104158,0.981855,0.989745,-0.069328,0.269421,0.010164,0
6.959424,0.051056,2.20189,0.063763,0.102944,0.979905,0.987359,-0.054973,0.291412,0.005888,0
7.003027,0.043603,2.202537,0.059157,0.105129,0.999157,1.006413,-0.043367,0.255677,-0.002053,0
7.046679,0.043652,2.202903,0.073219,0.105129,0.99867,1.006854,-0.06322,0.277057,0.012913,0
7.090298,0.043619,2.202982,0.05455,0.099302,0.99209,0.998538,-0.050697,0.247735,-0.001748,0
7.134078,0.043779,2.202615,0.059884,0.102458,0.996476,1.003518,-0.058333,0.274919,-0.001748,0
7.177904,0.043826,2.202747,0.060611,0.107557,0.985023,0.99273,-0.049475,0.266061,-0.011827,0
7.229114,0.051211,2.202609,0.069097,0.105129,0.970888,0.979005,-0.029317,0.280417,0.002223,0
7.273168,0.044054,2.202938,0.068612,0.099302,0.983804,0.991181,-0.030538,0.28286,-0.001748,0
7.316891,0.043723,2.20311,0.058429,0.101973,0.999157,1.006045,-0.035731,0.26545,-0.002664,0
7.36061,0.043719,2.203274,0.058429,0.10173,0.993796,1.000696,-0.04917,0.261785,0.004056,0
7.414301,0.05369,2.202575,0.048004,0.095175,1.0033,1.008947,-0.073299,0.24407,-0.03901,0
7.465059,0.050758,2.199901,0.059642,0.09299,0.966989,0.973279,-0.049781,0.252011,-0.048173,0
7.518893,0.053834,2.197463,0.072249,0.111927,0.976006,0.985056,-0.070856,0.283166,-0.030458,0
7.569215,0.050322,2.196368,0.062066,0.106829,0.984048,0.991774,-0.058944,0.272475,-0.017325,0
7.623111,0.053896,2.195945,0.059642,0.1078,0.988191,0.995841,-0.069328,0.285914,-0.013354,0
7.674093,0.050982,2.195862,0.059642,0.099302,0.993065,0.999798,-0.060165,0.266978,-0.021601,0
7.717834,0.043742,2.194869,0.062309,0.101973,0.991115,0.998293,-0.071466,0.268505,-0.028626,0
7.761167,0.043333,2.193979,0.063521,0.108528,0.981124,0.989149,-0.061998,0.276446,-0.016103,0
7.804575,0.043408,2.193841,0.060127,0.111685,0.977712,0.985905,-0.036952,0.256898,-0.002664,0
7.848125,0.04355,2.194395,0.068612,0.114355,0.99209,1.001013,-0.066274,0.292939,0.009553,0
7.893035,0.044909,2.195174,0.062066,0.098574,0.984779,0.991644,-0.028706,0.274308,0.004972,0
7.943585,0.05055,2.195629,0.061824,0.105129,1.005981,1.013347,-0.069939,0.270948,-0.002969,0
7.986516,0.042931,2.195981,0.057217,0.095417,0.988434,0.994676,-0.058027,0.260564,-0.00694,0
8.029573,0.043057,2.196252,0.059399,0.098088,0.979661,0.98635,-0.072688,0.272475,0.001001,0
8.072944,0.043371,2.196114,0.054793,0.097603,0.977955,0.98434,-0.045199,0.283471,-0.009078,0
8.116296,0.043352,2.195428,0.057217,0.096389,0.989165,0.995496,-0.047643,0.282249,-0.017936,0
8.159596,0.0433,2.194779,0.060369,0.107557,1.002569,1.010127,-0.076659,0.285914,-0.018546,0
8.206435,0.046838,2.193804,0.060611,0.088862,0.975275,0.981189,-0.04245,0.269116,-0.014576,0
8.2506,0.044165,2.192545,0.063036,0.099059,0.978443,0.985463,-0.056806,0.267283,-0.025877,0
8.294026,0.043426,2.191108,0.068855,0.108285,0.98551,0.993829,-0.054668,0.291107,-0.010605,0
8.337395,0.043369,2.190498,0.052611,0.104644,1.000376,1.007209,-0.041839,0.24407,-0.007551,0
8.383055,0.04566,2.189481,0.053096,0.100031,0.98746,0.993933,-0.054668,0.253233,-0.012132,0
8.424105,0.04105,2.188406,0.060854,0.095903,0.978687,0.985255,-0.035425,0.258731,-0.015492,0
8.476413,0.052307,2.187568,0.06934,0.104158,0.993308,1.001159,-0.060776,0.28958,-0.007856,0
8.519634,0.043222,2.186901,0.059399,0.10173,0.984048,0.991074,-0.057722,0.272475,-0.000526,0
8.563092,0.043458,2.18682,0.054308,0.101002,0.983561,0.990223,-0.041839,0.265756,-0.005718,0
8.606774,0.043681,2.186334,0.06643,0.097117,0.990384,0.997349,-0.053446,0.288663,-0.006635,0
8.650564,0.043791,2.18588,0.056247,0.097845,0.993065,0.999457,-0.0565,0.27217,-0.016103,0
8.693831,0.043267,2.185587,0.052126,0.101487,0.986972,0.993545,-0.055278,0.267894,-0.015798,0
8.737873,0.044042,2.186124,0.055035,0.099788,0.981855,0.988446,-0.050697,0.266061,-0.016408,0
8.78168,0.043807,2.186743,0.063521,0.098817,0.984048,0.991035,-0.053446,0.277973,-0.011521,0
8.832662,0.050982,2.186929,0.05455,0.099545,0.992334,0.998805,-0.055278,0.264534,-0.013965,0
8.876636,0.043974,2.187528,0.052853,0.098574,0.982586,0.988931,-0.056195,0.272781,-0.019768,0
8.919851,0.043216,2.18772,0.05746,0.101002,0.99014,0.996936,-0.057722,0.280722,-0.019768,0
8.963766,0.043915,2.187483,0.059399,0.103672,0.986729,0.993936,-0.047948,0.27553,-0.00022,0
9.007112,0.043345,2.187437,0.05746,0.099302,0.993065,0.99967,-0.03848,0.266061,-0.009689,0
9.050435,0.043323,2.187222,0.047277,0.098088,0.992821,0.998774,-0.052835,0.256898,-0.025877,0
9.094243,0.043808,2.186596,0.047762,0.10173,0.978687,0.985118,-0.058638,0.287442,-0.01427,0
9.138093,0.043849,2.186339,0.04267,0.103672,0.983561,0.989929,-0.058638,0.27889,-0.000831,0
9.188677,0.050585,2.186629,0.05455,0.107072,0.988434,0.995712,-0.051002,0.289885,-0.005413,0
9.239451,0.050774,2.186852,0.06837,0.092261,0.998182,1.004766,-0.044283,0.248652,-0.004497,0
9.284067,0.044616,2.186685,0.063278,0.096389,1.001107,1.007725,-0.071466,0.243459,-0.0103,0
9.327893,0.043826,2.185707,0.048732,0.091533,0.976981,0.982468,-0.046115,0.246514,-0.030764,0
9.378563,0.05067,2.185144,0.056005,0.103187,0.988922,0.995867,-0.058333,0.267283,-0.004191,0
9.432595,0.054031,2.185912,0.049944,0.097603,0.992334,0.998372,-0.060776,0.24407,-0.015492,0
9.479083,0.046488,2.186431,0.058187,0.098088,0.975275,0.981921,-0.044283,0.243765,-0.013965,0
9.526757,0.047675,2.187207,0.065703,0.099302,0.981611,0.988806,-0.038174,0.263007,-0.006329,0
9.570427,0.04367,2.187992,0.064733,0.105615,0.998913,1.006565,-0.07055,0.273392,-0.006024,0
9.613762,0.043334,2.188761,0.05746,0.095903,0.991602,0.997885,-0.060471,0.267894,-0.005718,0
9.657419,0.043658,2.188847,0.048004,0.097603,0.978199,0.984228,-0.059249,0.273697,-0.015187,0
9.701758,0.044339,2.188851,0.047762,0.100516,0.983073,0.989352,-0.044283,0.276446,-0.02099,0
9.746507,0.044749,2.188748,0.063278,0.108285,0.99672,1.00458,-0.053446,0.198866,0.000696,0
9.790186,0.043679,2.188428,0.057217,0.100516,0.991359,0.998083,-0.05314,0.260258,-0.01427,0
9.833481,0.043294,2.188029,0.061096,0.097845,0.981855,0.988608,-0.047337,0.266672,-0.002664,0
9.877705,0.044224,2.188634,0.058429,0.098574,0.987216,0.993844,-0.049781,0.277362,0.005277,0
9.928528,0.050823,2.189236,0.055763,0.096631,0.991359,0.997617,-0.049475,0.263618,-0.003886,0
9.972334,0.043806,2.18912,0.056247,0.09299,0.986485,0.992453,-0.046726,0.253844,-0.013354,0
10.01574,0.043406,2.189113,0.061339,0.102216,0.984535,0.991726,-0.047032,0.268199,-0.006024,0
