timestamp,dt,heading_rad,accel_x,accel_y,accel_z,accel_norm,gyro_x_rads,gyro_y_rads,gyro_z_rads,step_event
0.00031,0.00031,2.015314,-0.022215,0.077208,0.969182,0.972507,0.057435,0.110907,0.060604,0
0.139073,0.138762,2.018042,0.000727,0.084492,1.000863,1.004423,-0.011101,0.042299,0.025146,0
0.187605,0.048532,2.019962,-0.026411,0.078908,1.008417,1.011845,0.002041,-0.032711,0.023663,0
0.226319,0.038714,2.021978,-0.00938,0.084977,0.999888,1.003537,-0.016132,-0.049392,0.034865,0
0.275263,0.048944,2.023394,-0.032582,0.071138,0.987703,0.990798,0.024012,-0.027539,-0.019128,0
0.320556,0.045293,2.021964,-0.035051,0.084977,0.994771,0.999009,-0.031058,-0.023836,-0.021108,0
0.362175,0.041619,2.021387,-0.015797,0.078422,0.992334,0.995553,0.024453,-0.007185,0.002801,0
0.400263,0.038088,2.020978,-0.045911,0.083763,0.937258,0.942113,-0.005988,-0.019376,0.000652,0
0.448864,0.048601,2.021039,-0.016538,0.100759,0.992577,0.997815,0.023104,0.00269,0.029819,0
0.486883,0.038019,2.019804,-0.029867,0.093961,1.006712,1.011528,-0.02949,-0.049871,-0.018603,0
0.535548,0.048665,2.01835,-0.022709,0.08522,0.986485,0.990419,-0.024331,-0.049842,-0.052049,0
0.574013,0.038464,2.015476,-0.024684,0.072109,0.989653,0.992583,0.004576,0.009053,-0.056101,0
0.622879,0.048867,2.013466,-0.002468,0.074052,0.986729,0.989506,-0.092765,0.046105,-0.026922,0
0.665792,0.042912,2.011967,-0.026165,0.088376,1.008905,1.013106,-0.064904,0.015929,-0.027739,0
0.703923,0.038131,2.010539,-0.022462,0.097117,0.997695,1.002662,-0.012833,-0.025684,-0.0229,0
0.745742,0.041819,2.00919,-0.02419,0.094204,1.000863,1.005578,-0.032059,-0.025785,-0.001866,0
0.791015,0.045273,2.008804,-0.013823,0.096631,0.984048,0.988878,-0.014866,0.003166,-0.015987,0
0.833018,0.042003,2.008736,-0.013082,0.093961,1.002325,1.006805,-0.002581,-0.028699,0.020815,0
0.878192,0.045174,2.009441,-0.007899,0.090804,0.988678,0.992871,0.011936,0.004454,0.030668,0
0.91988,0.041687,2.010732,-0.012342,0.081821,0.994771,0.998206,-0.022981,0.048527,0.036514,0
0.965069,0.045189,2.011645,-0.016291,0.076965,1.005981,1.009052,-0.017088,-0.014092,0.038482,0
1.006663,0.041595,2.012194,-0.007652,0.06604,0.991846,0.994072,0.020506,-0.004756,-0.015942,0
1.051758,0.045095,2.010467,-0.026411,0.069924,0.979905,0.982752,-0.002591,0.020772,-0.063355,0
1.093378,0.04162,2.008169,-0.014563,0.082549,0.989653,0.993197,0.002296,0.001529,-0.077099,0
1.138471,0.045093,2.006138,-0.013823,0.071624,0.999157,1.001816,0.013211,-0.008736,-0.045086,0
1.180068,0.041597,2.005561,-0.003703,0.079393,0.998182,1.001342,0.024683,0.018938,-0.035671,0
1.225404,0.045335,2.003998,-0.026905,0.085463,0.997695,1.00171,-0.022482,-0.056348,-0.077869,0
1.267675,0.042271,2.000128,-0.021722,0.086191,0.99672,1.000676,0.023341,-0.064259,-0.0849,0
1.309638,0.041964,1.997002,-0.012835,0.073323,0.982098,0.984915,0.048166,0.008276,-0.070631,0
1.347699,0.038061,1.994281,-0.02493,0.077451,0.98746,0.990806,-0.008485,0.041994,-0.060923,0
1.389152,0.041453,1.993575,-0.009627,0.094932,1.006468,1.010981,-0.030967,-0.003938,-6.7e-05,0
1.434082,0.04493,1.995276,-0.007899,0.081093,0.986729,0.990087,0.024926,0.022753,0.030606,0
1.475521,0.041439,1.998061,-0.008392,0.081821,0.994283,0.997679,-0.017428,0.058389,0.066584,0
1.513428,0.037907,2.000938,-0.019006,0.086677,0.999401,1.003332,-0.013971,0.028278,0.051363,0
1.554941,0.041513,2.003568,-0.02419,0.077936,0.994527,0.997869,0.002447,0.00532,0.039978,0
1.600119,0.045178,2.00511,-0.0195,0.077208,0.993796,0.996981,0.036137,0.024575,0.038122,0
1.641764,0.041645,2.007056,-0.013823,0.080364,0.987947,0.991307,0.02089,0.050392,0.029822,0
1.686975,0.045211,2.008698,-0.01876,0.090319,1.008174,1.012385,-0.022477,-0.019445,0.029975,0
1.728698,0.041723,2.010395,-0.011848,0.09129,0.997451,1.00169,0.008525,-0.029647,0.040985,0
1.773818,0.045119,2.011924,-0.035051,0.082307,0.997451,1.001455,0.004045,-0.020569,0.021824,0
1.815365,0.041547,2.013196,-0.023449,0.089348,0.999644,1.003903,0.017262,-0.006385,0.033368,0
1.860345,0.04498,2.0152,-0.006418,0.086434,0.991115,0.994898,0.026365,-0.010974,0.039616,0
1.902123,0.041779,2.01755,-0.008146,0.092747,0.995014,0.999361,-0.028211,-0.013388,0.033798,0
1.940186,0.038062,2.018742,-0.022215,0.084977,0.937258,0.941365,-0.016025,-0.02097,0.022419,0
1.988762,0.048576,2.019562,-0.006665,0.080122,0.987216,0.990484,0.001366,0.00794,0.017599,0
2.026787,0.038025,2.0198,-0.008146,0.083278,0.995502,0.999012,0.0093,0.030972,-0.010498,0
2.075333,0.048546,2.019471,-0.018266,0.095175,1.008174,1.012821,0.000557,-0.053533,0.007674,0
2.113358,0.038025,2.019139,-0.001975,0.083763,0.969426,0.97304,0.049682,0.053901,0.004492,0
2.154865,0.041507,2.01985,-0.011354,0.098817,0.998913,1.003853,-0.012796,0.019199,-0.011331,0
2.199843,0.044979,2.019008,-0.01407,0.085463,0.985754,0.989552,0.011295,0.048191,-0.005209,0
2.241579,0.041735,2.020236,-0.01012,0.087405,0.993552,0.997441,-0.00527,0.034321,0.023221,0
2.288079,0.0465,2.022286,-0.009873,0.086191,0.985023,0.988836,-0.004738,0.047257,0.021479,0
2.330574,0.042495,2.024275,-0.023696,0.089833,0.989409,0.993762,-0.017431,0.030051,0.019103,0
2.372303,0.041729,2.025324,-0.017032,0.083035,0.993065,0.996676,-0.00933,0.012856,-0.029021,0
2.417405,0.045102,2.024166,-0.020487,0.077694,0.99867,1.001897,0.028915,0.003745,-0.035189,0
2.459081,0.041676,2.021887,-0.001481,0.090319,1.008661,1.012698,0.019025,-0.002672,-0.077565,0
2.50417,0.045089,2.018562,-0.022956,0.099302,1.008905,1.01404,0.014524,-0.094815,-0.106351,0
2.545925,0.041754,2.013938,-0.044184,0.106829,0.97893,0.985733,0.00381,-0.003851,-0.180965,0
2.59119,0.045266,2.007742,-0.036038,0.110228,0.991115,0.997877,-0.088736,0.059679,-0.193183,0
2.633008,0.041817,2.002964,-0.029867,0.097117,1.024014,1.029043,-0.008708,-0.043431,-0.081656,0
2.678143,0.045135,2.002233,0.054065,0.084977,0.943838,0.949197,0.049887,0.082514,-0.016361,0
2.721193,0.04305,2.00907,-0.015057,0.087405,0.969182,0.973232,-0.351452,-0.235747,0.97996,0
2.766464,0.045271,2.040537,-0.134279,-0.012061,0.889737,0.899894,0.061188,-0.082725,0.119862,0
2.830791,0.064327,2.043332,-0.032335,0.100273,1.038636,1.043966,-0.267152,-0.092499,0.081072,0
2.880847,0.050056,2.054988,0.120738,0.114598,1.007443,1.021103,-0.11016,0.07274,0.428654,0
2.93193,0.051083,2.078143,0.056247,0.108043,1.009149,1.016473,-0.357561,0.388252,0.455227,0
2.985566,0.053637,2.093945,-0.048873,0.077694,0.999401,1.003607,-0.180715,0.186361,0.236537,0
3.033053,0.047487,2.098889,0.06546,0.085706,0.975518,0.981462,0.17206,0.385503,0.179116,0
3.071204,0.038151,2.104754,0.048974,0.213172,1.182417,1.202477,-0.184991,0.303953,0.246922,1
3.120003,0.048798,2.109565,0.002667,0.07648,1.033518,1.036348,-0.159029,0.17842,0.208437,0
3.158076,0.038074,2.113401,0.026427,0.067254,0.997939,1.000551,-0.214313,0.226067,0.216379,0
3.208052,0.049976,2.120064,0.029094,0.076965,0.992821,0.996225,-0.209731,0.198273,0.258834,0
3.249889,0.041837,2.130476,0.087523,0.079393,0.982829,0.989908,-0.132457,0.089233,0.36207,0
3.299596,0.049707,2.149714,0.094796,0.063612,0.978199,0.984838,-0.014865,-0.053098,0.403609,0
3.348804,0.049208,2.16473,0.043398,0.059727,0.96772,0.970532,-0.027082,-0.118766,0.365124,0
3.399103,0.050299,2.177774,0.074673,0.047345,0.965527,0.969567,-0.20515,0.073656,0.385894,0
3.443201,0.044098,2.187334,-0.008146,-0.000724,0.966502,0.966536,0.150068,-0.156029,0.267691,0
3.487144,0.043943,2.191489,-0.062696,0.046616,1.119056,1.12178,0.248418,-0.455964,0.037701,0
3.529944,0.0428,2.183572,-0.056279,0.079879,1.151955,1.156092,-0.063429,-0.254989,-0.059122,0
3.575429,0.045485,2.178636,0.01091,0.07648,1.059594,1.062406,-0.157917,0.106296,0.180828,0
3.626673,0.051244,2.182322,-0.032829,0.038604,1.022065,1.02332,0.073295,0.241908,0.277345,0
3.669517,0.042844,2.193699,-0.136253,0.064583,1.097367,1.107678,0.247087,-0.143243,0.533603,0
3.714023,0.044506,2.210999,-0.100462,0.126981,1.087375,1.099364,-0.211062,0.189984,0.385163,0
3.758649,0.044626,2.217393,-0.145386,0.059484,0.909964,0.923423,-0.196096,0.009474,0.139595,0
3.802163,0.043514,2.216395,-0.10688,0.003156,0.934821,0.940916,0.259915,-0.405915,0.23825,0
3.845728,0.043565,2.22842,-0.011108,0.069196,0.963334,0.965879,0.009765,0.047653,0.723582,0
3.895784,0.050056,2.252566,-0.071829,0.069924,0.97893,0.984049,-0.225418,0.232439,0.814906,0
3.937543,0.041759,2.274688,-0.138722,0.03909,0.95188,0.962729,-0.126763,-0.063525,0.654249,0
3.975667,0.038124,2.294901,-0.016044,0.036904,0.904846,0.905741,-0.121876,0.106907,0.749238,0
4.024317,0.04865,2.315154,-0.002222,0.03132,0.890225,0.890778,-0.040631,0.099576,0.787417,0
4.062465,0.038148,2.332006,0.016244,0.050744,0.887788,0.889385,0.000908,0.020164,0.778865,0
4.10453,0.042065,2.352952,0.054065,0.052929,0.901678,0.904847,0.011293,0.023829,0.868052,0
4.147555,0.043025,2.377596,0.020365,0.045645,0.997207,0.998459,0.029619,0.017415,0.663106,0
4.194123,0.046568,2.391898,0.026427,0.026222,1.075922,1.076566,0.105366,-0.139577,0.688152,0
4.237674,0.043551,2.406848,0.008486,0.057299,1.145863,1.147326,-0.102939,-0.122779,0.613321,0
4.28142,0.043746,2.417811,-0.036532,0.050501,1.095661,1.097432,-0.084002,-0.16615,0.587359,0
4.332488,0.051067,2.431238,-0.061709,0.058999,1.109552,1.112832,-0.030246,-0.001217,0.601409,0
4.375995,0.043507,2.447603,-0.103671,0.090562,1.107846,1.116365,0.043058,-0.125222,0.860721,0
4.426423,0.050428,2.469823,-0.082443,0.131108,1.03693,1.048432,-0.091027,0.114542,0.934025,0
4.470951,0.044529,2.49759,-0.130082,0.14956,0.992821,1.012415,-0.225112,-0.003049,1.029931,0
4.514452,0.0435,2.532133,-0.081703,0.169226,0.914838,0.933939,-0.332319,0.092246,1.18448,0
4.568464,0.054012,2.577301,-0.085158,0.134264,0.891443,0.905511,-0.144783,0.146613,1.3149,0
4.612386,0.043922,2.613594,-0.11157,0.124795,0.960653,0.975129,-0.128596,0.09133,1.131945,0
4.659915,0.047529,2.637365,-0.089848,0.099059,0.928972,0.938549,-0.122487,0.019858,0.911423,0
4.703416,0.043501,2.654865,-0.00938,0.057785,0.894367,0.896281,-0.105688,-0.008547,0.841174,0
4.747299,0.043883,2.67153,0.036609,0.042974,0.904846,0.906606,-0.125541,-0.018015,0.878131,0
4.790816,0.043517,2.687547,0.034185,0.03739,0.900704,0.902127,-0.126458,-0.014656,0.786501,0
4.834456,0.04364,2.702003,0.049944,0.04953,0.93214,0.934791,-0.266957,0.034519,0.785279,0
4.878182,0.043726,2.71478,0.030791,0.024765,0.960166,0.960978,-0.237635,-0.061692,0.671964,0
4.921883,0.043701,2.719959,0.003394,0.024522,1.022552,1.022852,-0.076977,-0.220517,0.453274,0
4.965522,0.043639,2.72171,0.025457,0.060941,1.144644,1.146548,-0.174716,-0.139577,0.388217,0
5.01998,0.054458,2.720286,-0.021228,0.081336,1.155123,1.158178,-0.335068,0.021996,0.190602,0
5.063481,0.043501,2.711723,-0.014563,-0.022193,1.031325,1.031667,-0.098358,0.181432,0.291395,0
5.10706,0.043579,2.714777,-0.074544,-0.034013,1.128804,1.131774,0.477994,0.020775,0.722971,0
5.15062,0.04356,2.72506,-0.216722,0.101245,1.185585,1.209475,0.009155,-0.094984,0.261462,1
5.194089,0.043469,2.719941,-0.12169,0.017238,0.907771,0.916053,-0.141424,0.001838,0.335988,0
5.237785,0.043696,2.719566,-0.104905,-0.002653,0.834905,0.841474,0.174699,-0.193028,0.352176,0
5.281237,0.043452,2.725737,-0.05776,0.055357,0.937745,0.941152,0.098035,0.015888,0.612099,0
5.325571,0.044334,2.741467,-0.110336,0.054143,0.981611,0.989275,-0.087057,0.117902,0.609961,0
5.376605,0.051034,2.754221,-0.163899,0.011654,0.959191,0.973163,-0.040631,-0.014961,0.402267,0
5.420155,0.04355,2.759064,-0.099968,0.009954,0.916788,0.922276,0.096814,-0.163401,0.452663,0
5.4637,0.043545,2.766281,-0.02888,0.058999,0.916544,0.918895,-0.101107,0.063535,0.443806,0
5.507203,0.043503,2.771428,-0.021475,0.013596,0.861468,0.861843,0.094981,-0.094068,0.470378,0
5.550801,0.043598,2.781618,0.064976,0.02695,0.929947,0.932604,0.099868,-0.103536,0.54918,0
5.594205,0.043405,2.793778,0.084371,0.023065,0.976737,0.980646,0.020761,-0.019542,0.622484,0
5.638151,0.043946,2.811688,0.087038,0.00607,1.049602,1.053222,0.085513,-0.168899,0.787417,0
5.689831,0.05168,2.836816,0.05552,0.052443,1.122711,1.125306,-0.169218,-0.070855,0.687846,0
5.733841,0.04401,2.846736,-0.025177,0.007284,1.062518,1.062842,-0.061095,-0.265416,0.397074,0
5.777461,0.04362,2.848527,-0.019253,-0.023399,1.072022,1.072451,0.281906,-0.071466,0.513139,0
5.82127,0.043809,2.859152,-0.038013,0.046131,1.185341,1.186848,0.216238,0.063535,0.719,1
5.872114,0.050844,2.874271,-0.194753,0.085706,1.098585,1.119001,-0.170745,-0.024735,0.45419,0
5.922911,0.050797,2.875249,-0.136994,0.017724,0.93409,0.944249,-0.086446,0.000311,0.358285,0
5.966859,0.043947,2.876451,-0.084665,0.074537,0.934334,0.941118,0.001519,5e-06,0.711059,0
6.010665,0.043806,2.888057,-0.084171,0.100273,0.972107,0.980883,-0.299027,0.252293,0.710143,0
6.054206,0.043542,2.896302,-0.114532,0.029621,0.821258,0.829735,-0.086446,0.062924,0.435864,0
6.097729,0.043522,2.894701,-0.081949,0.030349,0.852452,0.856919,0.132244,-0.119724,0.273069,0
6.141425,0.043696,2.886335,-0.033323,0.099545,0.811511,0.818272,-0.112621,0.007813,0.112324,0
6.192209,0.050785,2.875538,0.052611,0.042003,0.839048,0.841745,-0.047251,0.074053,0.188097,0
6.244217,0.052008,2.864104,0.024972,0.037876,0.89193,0.893083,0.037089,0.015949,0.067954,0
6.287854,0.043637,2.84842,0.042913,0.042974,0.972594,0.974488,-0.107926,-0.005842,-0.047583,0
6.342597,0.054743,2.829479,0.076128,0.02258,0.991359,0.994534,-0.037167,-0.001153,-0.061446,0
6.394518,0.051921,2.809352,0.024002,0.019666,1.102241,1.102677,0.022088,-0.101133,-0.184214,0
6.438481,0.043964,2.784719,-0.03357,0.034719,1.181442,1.182429,-0.02953,-0.259958,-0.500031,1
6.481981,0.0435,2.745633,-0.035791,0.02258,1.124174,1.12497,-0.108637,-0.062343,-0.685429,0
6.52565,0.043669,2.707946,-0.050108,-0.016403,1.088838,1.090113,0.135098,-0.105104,-0.518968,0
6.569251,0.043601,2.680563,-0.096019,0.000971,1.07519,1.07947,0.380055,-0.232775,-0.300278,0
6.61283,0.043579,2.660916,-0.099722,0.03739,1.034006,1.039476,0.081037,-0.015001,-0.160695,0
6.655776,0.042946,2.647389,-0.125886,-0.001206,0.936283,0.944709,-0.115051,0.175283,-0.174745,0
6.699157,0.043382,2.6304,-0.193025,-0.05307,0.907283,0.929106,0.078898,0.094343,-0.334181,0
6.74332,0.044163,2.611541,-0.161184,-0.05307,0.939939,0.955134,0.148232,0.016764,-0.2453,0
6.787013,0.043693,2.595764,-0.120456,-0.007237,0.96504,0.972555,-0.135515,0.230566,-0.196126,0
6.837761,0.050749,2.586563,-0.06319,0.000971,0.913132,0.915316,-0.085424,0.250725,0.033865,0
6.888064,0.050303,2.585215,-0.074544,0.000728,0.94067,0.943619,-0.002335,0.10515,0.049995,0
6.931621,0.043557,2.579306,-0.14193,0.003885,1.037418,1.047089,0.070355,-0.173932,-0.080012,0
6.986142,0.054521,2.574136,-0.072817,0.029378,1.041073,1.04403,0.013946,-0.174302,0.057192,0
7.029959,0.043817,2.573317,-0.058747,0.041032,1.009392,1.011933,-0.064918,-0.046766,0.071227,0
7.073879,0.04392,2.572615,-0.080222,0.012868,0.968451,0.971853,0.050783,-0.314675,0.144647,0
7.117535,0.043656,2.573773,-0.030361,0.020637,0.977468,0.978157,0.025005,-0.140919,0.138012,0
7.161343,0.043808,2.573485,-0.054304,0.01214,1.007199,1.008735,0.093534,-0.082492,0.014633,0
7.212326,0.050983,2.571437,-0.033323,0.017238,1.042048,1.042723,0.04992,-0.100925,0.120994,0
7.256448,0.044122,2.572212,-0.020241,0.033263,0.971132,0.971912,-0.112395,0.069277,0.126367,0
7.300455,0.044007,2.573758,-0.055044,-0.001447,0.876578,0.878305,0.125537,-0.103903,0.131254,0
7.351116,0.050661,2.575173,-0.036532,0.04176,0.906309,0.908005,0.00299,0.135265,-0.044263,0
7.402285,0.051169,2.570762,-0.034557,0.025493,0.936771,0.937755,0.104141,0.10086,0.04627,0
7.445684,0.043399,2.567575,-0.027399,0.026222,0.998913,0.999633,0.109382,0.051322,-0.034359,0
7.488931,0.043248,2.562695,-0.000741,0.033263,1.008905,1.009453,0.014142,0.042465,-0.086334,0
7.532484,0.043552,2.557223,0.02182,0.01044,0.98088,0.981178,0.106367,0.015826,-0.073716,0
7.576547,0.044064,2.553125,0.01285,0.028892,1.000376,1.000875,0.09835,0.025847,0.001625,0
7.62045,0.043902,2.54754,-0.025177,0.069196,1.037661,1.040271,-0.07747,-0.005381,-0.179763,0
7.671217,0.050767,2.535771,-0.003456,0.065554,0.959435,0.961678,0.004997,-0.059748,-0.175182,0
7.725729,0.054512,2.531062,0.094311,0.116783,0.984048,0.995431,-0.030297,0.104035,0.123,0
7.76984,0.044111,2.538055,0.010425,0.062883,1.008661,1.010673,-0.045494,0.035364,0.178879,0
7.813853,0.044013,2.542086,-0.065658,-0.002412,1.004518,1.006665,-0.001443,-0.082194,-0.061264,0
7.864567,0.050714,2.535608,-0.011601,0.009954,0.962359,0.96248,0.051677,-0.001147,-0.113811,0
7.915215,0.050647,2.532207,0.060611,0.08959,0.982342,0.988279,-0.011398,0.101423,0.024217,0
7.958714,0.0435,2.534966,0.014062,0.058999,1.005737,1.007564,0.003572,-0.012764,0.033253,0
8.002418,0.043704,2.535599,-0.025918,0.030106,0.999401,1.00019,-0.010314,-0.029758,-0.030604,0
8.046178,0.04376,2.532146,0.008001,0.034719,0.964796,0.965453,-0.000403,0.043406,-0.08571,0
8.089687,0.043509,2.529961,0.040488,0.071624,0.979174,0.982625,-0.034737,0.086677,0.088609,0
8.133274,0.043586,2.532084,0.001455,0.057785,1.018165,1.019805,-0.015292,-0.038676,-0.054061,0
8.176926,0.043652,2.530801,0.016244,0.052443,0.999401,1.000908,-0.020081,-0.050152,0.007082,0
8.220497,0.043571,2.530655,0.021335,0.047102,0.976737,0.978105,-0.014195,0.018468,-0.000174,0
8.271755,0.051258,2.529745,0.013577,0.049287,0.99014,0.991459,-0.015564,0.016987,-0.014706,0
8.322761,0.051006,2.528679,0.012122,0.049772,0.993552,0.994872,-0.024817,0.019643,-0.016535,0
8.366425,0.043664,2.527391,0.018183,0.044917,0.979661,0.980859,-0.023362,0.058792,-0.03589,0
8.411153,0.044728,2.526462,0.002667,0.047587,0.999401,1.000537,-0.003486,-0.003629,-0.00529,0
8.454598,0.043445,2.525961,0.006304,0.048801,1.00135,1.002559,0.010861,-0.018834,-0.024657,0
8.497671,0.043073,2.523859,0.00994,0.046373,0.978687,0.979835,0.021635,-0.032864,-0.035836,0
8.55201,0.054339,2.522688,0.009698,0.055599,0.977224,0.978853,0.035137,-0.001205,-0.011179,0
8.59588,0.04387,2.523148,0.018911,0.05997,0.998913,1.000891,-0.020055,0.120807,0.014834,0
8.639936,0.044055,2.525251,0.005576,0.063369,1.003787,1.005801,-0.034741,-0.002995,0.031571,0
8.683456,0.04352,2.526622,0.015759,0.054386,0.995014,0.996624,-0.045221,-0.012844,0.034655,0
8.728001,0.044545,2.52772,0.015759,0.04346,0.983317,0.984403,-0.049077,0.030382,0.007202,0
8.775247,0.047246,2.526815,0.009455,0.046131,0.995014,0.996128,-0.022855,0.054633,-0.040801,0
8.819031,0.043785,2.523105,-0.0,0.045645,1.011098,1.012128,0.007757,-0.041864,-0.060017,0
8.862157,0.043125,2.520034,0.011153,0.039575,0.976737,0.977602,-0.007727,-0.019885,-0.029549,0
8.908685,0.046528,2.517878,-0.001234,0.045402,0.993065,0.994103,-0.029825,0.004095,-0.025896,0
8.959303,0.050618,2.516757,0.023275,0.047102,0.990384,0.991777,-0.012506,-0.007486,0.006624,0
9.003035,0.043733,2.517754,0.02085,0.0539,1.012317,1.013965,-0.059278,-0.014909,0.023962,0
9.046626,0.043591,2.519145,0.008486,0.036904,0.987216,0.987942,-0.042756,-0.035456,0.003197,0
9.089027,0.042401,2.518978,0.004849,0.036662,0.982829,0.983525,-0.012871,-0.018824,-0.018057,0
9.132634,0.043607,2.518672,0.005576,0.046616,0.979174,0.980299,-0.024115,0.014964,-0.004535,0
9.175799,0.043164,2.518433,0.011153,0.053414,1.006468,1.007946,-0.03343,-0.008305,0.014973,0
9.219012,0.043213,2.518687,0.009213,0.044674,0.999401,1.000441,0.013048,-0.075485,0.017042,0
9.263177,0.044165,2.518948,0.028609,0.048559,0.978443,0.980065,0.013648,0.001155,0.031426,0
9.307078,0.043901,2.519871,0.006546,0.04176,0.993552,0.994451,-0.013432,0.029812,0.022647,0
9.361471,0.054394,2.519843,0.011395,0.044431,0.994039,0.995097,0.000918,0.03984,0.022715,0
9.405275,0.043804,2.519778,0.019638,0.047345,0.991846,0.99317,0.009565,-0.005039,0.029626,0
9.455646,0.050371,2.51975,0.009213,0.03909,0.999888,1.000694,0.032829,-0.020189,-0.003839,0
9.500073,0.044427,2.518566,0.00994,0.034234,0.990384,0.991025,0.151107,-0.047335,-0.016865,0
9.550765,0.050692,2.516014,-0.0,0.044431,1.058132,1.059064,0.162408,-0.041532,-0.078868,0
9.594985,0.04422,2.512002,0.034912,0.054143,1.051552,1.053524,0.251289,-0.003047,-0.052295,0
