timestamp,dt,heading_rad,accel_x,accel_y,accel_z,accel_norm,step_event
0.000801,0.000801,1.889684,0.059642,0.011168,0.991846,0.9937,0
0.140063,0.139261,1.889945,0.057945,0.014082,0.992577,0.994367,0
0.181785,0.041722,1.889399,0.061339,0.005827,0.985997,0.987921,0
0.209786,0.028002,1.88831,0.054065,0.006313,0.993796,0.995285,0
0.242988,0.033202,1.88738,0.058429,0.008012,0.999401,1.001139,0
0.275409,0.03242,1.886127,0.059642,0.01651,0.999157,1.001072,0
0.303287,0.027878,1.883832,0.061824,0.011654,0.995989,0.997974,0
0.337193,0.033907,1.881358,0.056005,0.010926,0.995502,0.997136,0
0.363949,0.026755,1.878584,0.055035,0.005827,0.992821,0.994362,0
0.397835,0.033887,1.875808,0.05552,0.011168,0.994039,0.995651,0
0.424456,0.02662,1.872981,0.050671,0.006313,0.999157,1.000461,0
0.451195,0.026739,1.869987,0.062793,0.016024,0.99672,0.998825,0
0.484987,0.033792,1.867562,0.065945,0.012382,0.998913,1.001164,0
0.511765,0.026778,1.86507,0.052368,0.011897,1.003544,1.004979,0
0.545519,0.033754,1.862367,0.047277,0.009712,0.997695,0.998862,0
0.572217,0.026698,1.859884,0.053338,0.009954,0.983317,0.984813,0
0.599036,0.026819,1.856953,0.053823,0.00607,0.991359,0.992837,0
0.632759,0.033724,1.854047,0.081219,0.062155,0.978199,0.983531,0
0.659545,0.026786,1.850073,0.032488,0.027193,0.999644,1.000542,0
0.693457,0.033912,1.845467,0.046307,0.014325,1.024258,1.025404,0
0.720151,0.026694,1.839324,0.062551,0.007041,1.01914,1.021082,0
0.74756,0.027409,1.83408,0.093584,0.000728,1.001838,1.006199,0
0.774318,0.026758,1.828933,0.093342,0.009954,0.985754,0.990213,0
0.801212,0.026894,1.822786,0.093099,0.020152,0.979905,0.984524,0
0.835014,0.033802,1.817611,0.092372,0.021851,0.983804,0.988373,0
0.861703,0.02669,1.813038,0.096736,0.011654,0.986241,0.991043,0
0.888603,0.026899,1.809268,0.116132,0.024522,0.98746,0.994567,0
0.922325,0.033723,1.806607,0.102555,0.017481,0.978199,0.983716,0
0.949193,0.026868,1.802956,0.095766,0.022337,1.059594,1.064147,0
0.982997,0.033803,1.79996,0.115889,0.001457,0.999644,1.006341,0
1.009725,0.026729,1.797686,0.124617,-0.000724,0.997939,1.005689,0
1.037723,0.027997,1.796195,0.107646,0.002185,0.993308,0.999127,0
1.067998,0.030276,1.794179,0.094311,0.000243,0.991359,0.995835,0
1.094703,0.026705,1.791907,0.104009,0.000971,0.987216,0.99268,0
1.128356,0.033653,1.790186,0.102312,0.006313,0.99867,1.003917,0
1.15485,0.026495,1.788498,0.108131,0.002914,0.98746,0.993367,0
1.181757,0.026907,1.786998,0.104252,0.001214,0.992334,0.997795,0
1.215308,0.033551,1.785934,0.10304,0.009226,0.998913,1.004256,0
1.241862,0.026554,1.785117,0.100858,0.003642,0.993552,0.998665,0
1.268321,0.026459,1.784085,0.100858,0.003885,0.988191,0.993332,0
1.295321,0.027,1.782975,0.107161,0.008498,0.992821,0.998624,0
1.32203,0.026709,1.782069,0.11007,0.008741,0.990384,0.99652,0
1.348753,0.026723,1.781184,0.10304,0.005099,0.991115,0.99647,0
1.375379,0.026625,1.78102,0.10207,0.007769,0.993552,0.998811,0
1.40931,0.033931,1.780684,0.1011,0.000728,0.991846,0.996986,0
1.435981,0.02667,1.780345,0.095766,0.001214,0.986485,0.991123,0
1.462684,0.026704,1.779957,0.096736,0.001942,0.995014,0.999707,0
1.496394,0.03371,1.779388,0.100615,0.002428,0.998913,1.003971,0
1.523048,0.026654,1.779076,0.096978,0.004856,0.994771,0.999498,0
1.54964,0.026592,1.778873,0.096978,0.00437,0.985023,0.989795,0
1.583276,0.033636,1.77819,0.084614,0.000971,0.985754,0.989379,0
1.609993,0.026717,1.77769,0.074431,0.010926,1.005737,1.008546,0
1.636624,0.02663,1.778175,0.084371,0.019909,0.936771,0.940773,0
1.670574,0.03395,1.77691,0.087281,0.004613,0.999888,1.003701,0
1.697269,0.026695,1.773049,0.069824,0.021123,1.002081,1.004733,0
1.730911,0.033642,1.76744,0.114434,-0.004342,0.992821,0.999404,0
1.75765,0.02674,1.758321,0.085826,0.000243,1.054476,1.057963,0
1.784644,0.026994,1.741204,0.079522,0.005827,1.00988,1.013023,0
1.818294,0.03365,1.729035,0.114434,0.024279,0.998182,1.005014,0
1.845151,0.026856,1.713892,0.117101,-0.007237,0.879015,0.88681,0
1.878988,0.033837,1.703241,0.093827,-0.004583,0.96772,0.972269,0
1.905643,0.026655,1.694653,0.114919,0.008983,0.936283,0.943352,0
1.932314,0.026672,1.686174,0.144983,0.001942,0.937014,0.948167,0
1.966013,0.033699,1.679688,0.178925,0.019909,0.979661,0.996066,0
1.992707,0.026694,1.672521,0.15468,0.040304,1.008661,1.021248,0
2.019339,0.026631,1.667996,0.134073,0.001942,1.049602,1.058132,0
2.053345,0.034006,1.664351,0.141104,-0.006031,0.966745,0.977007,0
2.081194,0.027849,1.656339,0.091402,-0.013267,0.997451,1.001718,0
2.111932,0.030738,1.665761,0.176258,0.11217,0.867561,0.892363,0
2.147847,0.035915,1.694866,0.361002,0.255903,0.794939,0.909801,0
2.17538,0.027534,1.72647,0.130436,-0.009167,0.8293,0.839546,0
2.211732,0.036352,1.746199,0.105222,-0.261971,0.993065,1.032414,0
2.248415,0.036682,1.761974,0.165348,-0.071162,1.09298,1.107705,0
2.288061,0.039646,1.773992,0.126314,-0.114341,1.086644,1.09992,0
2.326244,0.038183,1.780436,0.093342,-0.063684,0.943107,0.949852,0
2.359975,0.033731,1.78062,0.121465,0.019181,0.93214,0.940217,0
2.3935,0.033525,1.781322,0.047519,0.072838,0.883888,0.888157,0
2.428881,0.035382,1.788903,0.135285,0.084977,0.917519,0.931324,0
2.464043,0.035161,1.801548,0.145468,0.033263,0.93409,0.945934,0
2.495007,0.030964,1.815073,0.130436,-0.000241,0.982098,0.990722,0
2.523987,0.02898,1.83319,0.0337,-0.025329,1.029619,1.030482,0
2.558926,0.034938,1.845946,0.040731,-0.071885,0.998426,1.001839,0
2.592537,0.033611,1.852302,0.042428,-0.082258,1.055695,1.059744,0
2.61907,0.026533,1.859181,0.139891,-0.077916,1.015485,1.028032,0
2.645533,0.026463,1.866673,0.080492,-0.095043,0.880233,0.889001,0
2.672572,0.027039,1.875473,0.04267,-0.098179,0.981124,0.986946,0
2.712663,0.040091,1.878136,0.01188,-0.087083,1.011829,1.015639,0
2.747767,0.035105,1.879364,0.04655,-0.031118,1.011829,1.013377,0
2.774346,0.026578,1.886222,0.132618,-0.013991,0.999401,1.008259,0
2.80865,0.034305,1.892973,0.112737,0.058756,1.003787,1.011806,0
2.836219,0.027569,1.898552,0.050914,-0.017127,1.002813,1.00425,0
2.864941,0.028722,1.903883,0.066188,-0.025087,1.023039,1.025485,0
2.896618,0.031677,1.907557,0.015517,-0.024364,1.008417,1.008831,0
2.923755,0.027137,1.910479,0.048974,-0.034013,1.033031,1.03475,0
2.951226,0.027471,1.912917,0.009455,-0.02364,1.040586,1.040897,0
2.98261,0.031384,1.913116,0.055763,-0.028223,1.015728,1.017649,0
3.010246,0.027636,1.914293,0.070309,-0.034254,0.975275,0.978406,0
3.038639,0.028393,1.917329,0.056732,-0.050899,0.948468,0.951526,0
3.069541,0.030902,1.918472,0.051883,-0.042938,0.956023,0.958392,0
3.098399,0.028858,1.917497,0.02182,-0.040526,0.976737,0.977821,0
3.130108,0.031709,1.917314,0.044125,-0.059824,0.970888,0.97373,0
3.158276,0.028167,1.916257,0.037822,-0.001206,0.953829,0.95458,0
3.1915,0.033224,1.91507,0.043155,0.003399,0.977712,0.97867,0
3.219961,0.028461,1.913068,-0.032089,-0.012544,0.94725,0.947876,0
3.254312,0.034351,1.910857,0.018668,0.078665,1.046678,1.049796,0
3.284631,0.030319,1.911358,0.04558,-0.031842,0.969913,0.971506,0
3.312778,0.028147,1.907129,-0.088614,0.04346,0.986972,0.991895,0
3.343178,0.030401,1.899025,-0.005924,0.056085,1.127585,1.128995,0
3.373298,0.03012,1.897089,0.079522,-0.024364,1.109064,1.112179,0
3.399936,0.026638,1.89717,-0.006911,0.051472,1.086401,1.087641,0
3.42646,0.026524,1.897062,0.027396,-0.013509,1.022308,1.022764,0
3.459979,0.033519,1.900465,-0.0,0.006798,0.996964,0.996987,0
3.486754,0.026775,1.904461,-0.020241,0.021609,1.013535,1.013968,0
3.513366,0.026612,1.9122,0.012122,-0.047039,0.999401,1.000581,0
3.539976,0.02661,1.917302,-0.068127,-0.047522,0.96309,0.966665,0
3.57356,0.033583,1.918067,-0.066152,-0.019057,0.991115,0.993503,0
3.600254,0.026695,1.91555,-0.003703,-0.029912,1.000376,1.000829,0
3.626881,0.026627,1.914884,-0.021475,-0.048004,0.964065,0.965498,0
3.660468,0.033587,1.914682,-0.017278,-0.047039,0.979661,0.980942,0
3.687906,0.027438,1.911849,0.000242,-0.031118,0.945056,0.945569,0
3.721533,0.033627,1.91296,-0.007158,-0.013267,0.952124,0.952243,0
3.74844,0.026906,1.916333,0.020365,-0.022916,0.932384,0.932888,0
3.77519,0.02675,1.919358,-0.049367,-0.022916,0.896073,0.897725,0
3.808814,0.033624,1.924498,-0.017032,-0.027259,0.924098,0.924657,0
3.835509,0.026695,1.931816,-0.015057,0.004127,0.985754,0.985877,0
3.869292,0.033783,1.937891,0.034912,0.035448,1.017922,1.019137,0
3.896203,0.026911,1.944493,0.041701,-0.056447,1.010855,1.013288,0
3.922776,0.026573,1.950835,-0.098981,-0.048245,1.019384,1.025314,0
3.956555,0.033779,1.95479,-0.041222,0.05997,1.140501,1.142821,0
3.983169,0.026614,1.950935,-0.018266,0.062883,1.199476,1.201262,1
4.009817,0.026648,1.952646,0.00994,-0.058377,1.163409,1.164915,0
4.043755,0.033938,1.956706,-0.098241,-0.056929,1.113938,1.11971,0
4.070418,0.026663,1.958174,-0.226842,-0.024846,1.083476,1.107247,0
4.104086,0.033668,1.957181,-0.247576,-0.022434,1.079821,1.108066,0
4.130801,0.026715,1.95278,-0.213019,0.013354,1.030594,1.052464,0
4.157463,0.026662,1.949635,-0.188582,-0.011096,0.919956,0.939151,0
4.191965,0.034502,1.945878,-0.177475,-0.014956,0.892662,0.910256,0
4.218567,0.026602,1.948366,-0.198209,-0.040043,0.923855,0.945726,0
4.2521,0.033534,1.955528,-0.180684,-0.010373,0.969913,0.986654,0
4.281268,0.029167,1.963415,-0.133785,0.053172,0.983561,0.994041,0
4.308071,0.026803,1.978713,-0.10688,0.020395,0.919468,0.925884,0
4.341777,0.033706,1.989781,-0.203146,0.0539,0.91167,0.935583,0
4.368325,0.026548,1.996276,-0.119222,0.034962,0.934334,0.942558,0
4.394839,0.026514,2.005376,-0.070842,0.000486,0.89851,0.901299,0
4.428627,0.033789,2.011378,-0.103671,0.013111,0.817359,0.824012,0
4.45514,0.026513,2.01421,-0.066152,0.001214,0.818578,0.821247,0
4.481664,0.026524,2.01558,-0.007652,0.008012,0.856107,0.856179,0
4.515153,0.033489,2.01661,0.017456,-0.024846,0.882183,0.882705,0
4.541667,0.026514,2.01595,-0.033076,-0.047039,0.899485,0.901321,0
4.568164,0.026497,2.012448,-0.013576,-0.0,0.961384,0.96148,0
4.595788,0.027624,2.013552,0.099888,-0.075745,1.02572,1.033352,0
4.625754,0.029966,2.015543,0.048732,-0.033289,1.015241,1.016955,0
4.652196,0.026442,2.015006,0.018426,-0.079605,1.02377,1.027026,0
4.678863,0.026667,2.012473,0.012607,-0.087324,1.06788,1.071518,0
4.705347,0.026484,2.011418,0.026911,-0.028465,1.163652,1.164312,0
4.731761,0.026414,2.004925,-0.061215,-0.064407,1.239442,1.242623,1
4.765363,0.033602,1.993912,-0.067139,-0.063684,1.186316,1.18992,0
4.791816,0.026452,1.986496,-0.031595,-0.144012,1.176568,1.18577,0
4.818274,0.026459,1.988123,-0.145386,-0.164999,1.175837,1.196225,0
4.844874,0.026599,1.982187,-0.177475,-0.060548,1.180955,1.19575,0
4.878562,0.033689,1.975266,-0.146867,-0.074056,1.130266,1.142171,0
4.905,0.026438,1.966536,-0.142918,-0.123025,1.03888,1.055856,0
4.931414,0.026413,1.954325,-0.095279,-0.004101,0.931409,0.936279,0
4.958011,0.026597,1.940829,-0.044677,-0.114824,0.831006,0.84009,0
4.985259,0.027248,1.928818,-0.074791,-0.102039,0.805418,0.815294,0
5.011688,0.026429,1.918799,-0.109101,-0.066096,0.84441,0.85399,0
5.038781,0.027093,1.907923,-0.052082,-0.010131,0.914107,0.915645,0
5.072154,0.033373,1.898288,-0.007899,-0.012303,0.923124,0.923239,0
5.098712,0.026558,1.890315,-0.034063,-0.055241,0.902166,0.904497,0
5.125323,0.026611,1.887814,-0.025177,-0.07671,0.819065,0.823035,0
5.151864,0.026541,1.88355,-0.02962,-0.040043,0.86025,0.861691,0
5.185587,0.033723,1.877544,-0.013329,-0.038114,0.901922,0.902825,0
5.212148,0.026561,1.872446,0.014789,-0.023399,0.898998,0.899424,0
5.239043,0.026895,1.868923,0.036852,-0.02943,0.88462,0.885876,0
5.272823,0.033781,1.866271,0.002667,-0.045833,0.87804,0.879239,0
5.299358,0.026534,1.86422,0.037822,-0.030394,0.903628,0.90493,0
5.331012,0.031654,1.86103,0.053823,-0.026052,0.938233,0.940136,0
5.357771,0.026759,1.858417,0.076128,-0.00193,0.973569,0.976543,0
5.384338,0.026567,1.857002,0.06546,-0.051864,1.006224,1.009684,0
5.418008,0.03367,1.855297,-0.049367,-0.051864,1.066174,1.068575,0
5.445448,0.02744,1.848383,-0.115519,-0.035219,1.210199,1.21621,1
5.479025,0.033577,1.837444,-0.113544,-0.016886,1.214585,1.219998,0
5.505564,0.02654,1.826463,-0.07726,-0.004101,1.211661,1.214128,0
5.532074,0.02651,1.820315,-0.057513,-0.074298,1.22677,1.230363,0
5.558669,0.026595,1.815006,-0.121196,-0.064166,1.211904,1.219639,0
5.592162,0.033494,1.812301,-0.144152,-0.03739,1.151955,1.161541,0
5.618829,0.026667,1.802941,-0.177228,0.02525,1.021333,1.036904,0
5.645325,0.026496,1.789108,-0.108608,-0.000241,0.877065,0.883764,0
5.679074,0.033749,1.783662,-0.086146,-0.054276,0.845141,0.851252,0
5.705647,0.026573,1.784198,-0.132551,-0.057653,0.871216,0.883126,0
5.732163,0.026516,1.787036,-0.169823,0.014568,0.933115,0.948555,0
5.758729,0.026566,1.79324,-0.052329,0.039332,0.944082,0.946348,0
5.79242,0.033692,1.796796,-0.074051,0.046616,0.876578,0.880934,0
5.818979,0.026558,1.799077,-0.103671,0.004613,0.832956,0.839395,0
5.845683,0.026705,1.801194,-0.095525,-0.034013,0.844653,0.850718,0
5.879372,0.033689,1.805671,-0.06319,-0.052587,0.873653,0.877513,0
5.905941,0.026569,1.808857,-0.056279,0.054871,0.900947,0.904369,0
5.933217,0.027276,1.80783,0.017456,-0.007237,0.914838,0.915033,0
5.959702,0.026485,1.812112,0.039761,-0.089254,0.904115,0.90938,0
5.986176,0.026474,1.822558,0.001697,-0.054758,0.916544,0.91818,0
6.012681,0.026506,1.831965,-0.034557,0.005099,0.965527,0.966159,0
6.039869,0.027188,1.834037,-0.018513,0.01214,0.997939,0.998184,0
6.073334,0.033465,1.834286,0.018668,-0.01375,0.924586,0.924877,0
6.099856,0.026522,1.834712,0.030063,-0.022434,0.815897,0.816759,0
6.126512,0.026656,1.832995,0.01188,-0.007478,0.889006,0.889117,0
6.159973,0.033461,1.832298,-0.006418,-0.015921,1.001107,1.001254,0
6.186643,0.02667,1.833704,-0.052082,-0.017127,1.098098,1.099466,0
6.213147,0.026504,1.831502,-0.091329,-0.016403,1.194602,1.1982,1
6.239622,0.026475,1.824465,-0.117,-0.081293,1.219459,1.227753,0
6.27323,0.033608,1.823419,-0.210304,-0.154626,1.200451,1.228503,0
6.299708,0.026478,1.822855,-0.263867,-0.155591,1.219215,1.257108,0
6.332216,0.032508,1.818108,-0.20438,0.039575,1.185829,1.203963,0
6.358869,0.026652,1.812745,-0.039,0.029621,1.13514,1.136196,0
6.385347,0.026479,1.808244,0.053096,0.053172,0.964552,0.967475,0
6.418918,0.033571,1.80726,-0.000741,-0.010131,0.837342,0.837404,0
6.445365,0.026447,1.807885,-0.035297,-0.036184,0.789578,0.791194,0
6.471837,0.026472,1.810697,-0.073557,-0.027259,0.840998,0.844648,0
6.498295,0.026458,1.813984,-0.08812,0.046616,0.950661,0.955874,0
6.531737,0.033442,1.816227,-0.04369,0.082792,0.997451,1.001834,0
6.558175,0.026438,1.820738,-0.024437,0.043217,0.958947,0.960231,0
6.584616,0.026441,1.828747,-0.057513,-0.044627,0.927754,0.930606,0
6.611113,0.026496,1.837219,-0.095279,-0.020504,0.884376,0.88973,0
6.637555,0.026442,1.8476,-0.099228,-0.01182,0.883401,0.889035,0
6.671442,0.033887,1.855807,-0.085405,0.008255,0.921174,0.925162,0
6.697954,0.026513,1.863656,-0.041962,0.009712,0.921905,0.922911,0
6.724403,0.026449,1.877191,-0.013329,-0.016403,0.944325,0.944562,0
6.757886,0.033483,1.884944,-0.045171,0.006313,0.937258,0.938367,0
6.784547,0.02666,1.889957,-0.022956,-0.01182,0.940182,0.940537,0
6.811071,0.026524,1.899784,0.028609,-0.045592,0.947737,0.949264,0
6.837737,0.026666,1.912212,0.029821,-0.018816,0.946762,0.947419,0
6.871259,0.033522,1.917332,0.016729,0.009712,0.967964,0.968157,0
6.898053,0.026794,1.922503,0.074188,-0.041732,0.984292,0.987965,0
6.92451,0.026457,1.931011,0.02376,-0.037149,1.036199,1.037137,0
6.958711,0.034201,1.937409,-0.033323,-0.029671,1.105165,1.106066,0
6.983887,0.025176,1.937899,-0.04369,-0.014715,1.153661,1.154582,0
7.010426,0.026539,1.935121,0.006788,-0.033048,1.146837,1.147334,0
7.037846,0.02742,1.929096,-0.150817,-0.031118,1.101753,1.112463,0
7.071531,0.033685,1.919603,-0.172291,-0.013267,1.116375,1.12967,0
7.098168,0.026637,1.916747,-0.115766,-0.013991,1.159022,1.164873,0
7.124945,0.026778,1.918516,-0.137241,0.083035,1.130022,1.14135,0
7.158724,0.033779,1.920386,-0.141437,0.101245,1.019871,1.034598,0
7.185664,0.02694,1.922201,-0.118975,0.057785,0.867804,0.877826,0
7.219305,0.033641,1.927698,-0.138475,0.011411,0.834662,0.846148,0
7.245915,0.02661,1.934945,-0.201665,0.003399,0.866099,0.889273,0
7.272654,0.026739,1.945706,-0.144152,0.057542,0.941888,0.954591,0
7.306591,0.033937,1.961473,-0.096019,0.057299,0.938477,0.945114,0
7.336257,0.029666,1.983505,-0.154766,0.052443,0.925804,0.940115,0
7.367122,0.030865,1.998731,-0.187101,0.064583,0.935065,0.955785,0
7.393784,0.026662,2.010941,-0.168589,0.041518,0.922636,0.938831,0
7.420426,0.026642,2.021637,-0.130823,0.069196,0.951392,0.962835,0
7.446945,0.026519,2.034078,-0.080962,0.054386,0.942376,0.947409,0
7.480455,0.03351,2.043159,-0.090836,0.04953,0.916544,0.922365,0
7.506978,0.026522,2.054305,-0.062943,0.04176,0.921174,0.924266,0
7.533452,0.026474,2.068694,-0.045911,0.050744,0.933359,0.935864,0
7.566918,0.033466,2.07881,-0.047639,0.044188,0.930435,0.932701,0
7.59339,0.026472,2.087651,-0.084418,0.038847,0.935796,0.940399,0
7.620009,0.026619,2.09607,-0.074051,0.040304,0.956754,0.960461,0
7.646472,0.026463,2.10491,-0.049367,0.032291,0.973813,0.975598,0
7.673337,0.026865,2.115606,-0.038013,0.063612,0.984048,0.986834,0
7.707035,0.033698,2.122997,-0.033323,0.032049,1.005006,1.006069,0
7.733655,0.026621,2.133689,-0.108361,0.012382,1.051796,1.057435,0
7.767489,0.033834,2.139457,-0.123911,0.054871,1.116132,1.124328,0
7.794089,0.0266,2.14474,-0.094291,0.0522,1.159022,1.164022,0
7.8207,0.026611,2.151954,-0.110582,0.019181,1.169258,1.174632,0
7.854463,0.033762,2.162033,-0.143658,-0.025087,1.176325,1.18533,1
7.8812,0.026737,2.180544,-0.212032,-0.034978,1.229694,1.24833,0
7.90778,0.02658,2.204922,-0.195247,0.040304,1.158047,1.175083,0
7.941348,0.033568,2.218675,-0.142671,0.060213,0.99672,1.008678,0
7.967907,0.026559,2.232529,-0.15526,-0.014715,0.842216,0.856534,0
7.994637,0.02673,2.246934,-0.231779,-0.048969,0.81346,0.847252,0
8.021246,0.026609,2.273053,-0.193272,-0.04728,0.88462,0.90672,0
8.055069,0.033824,2.295633,-0.160443,0.022337,0.971863,0.985271,0
8.081825,0.026755,2.33168,-0.182165,0.034962,0.999401,1.016469,0
8.115407,0.033582,2.357928,-0.206108,0.011897,0.962846,0.984731,0
8.142107,0.026701,2.38624,-0.196975,-0.021228,0.919956,0.941046,0
8.170101,0.027993,2.418998,-0.178462,-0.028223,0.921418,0.938965,0
8.198293,0.028192,2.458503,-0.166614,-0.018092,0.961628,0.976123,0
8.230114,0.031821,2.503376,-0.159456,-0.032324,0.969426,0.982984,0
8.265283,0.035169,2.534348,-0.147855,-0.013267,0.964065,0.975427,0
8.293098,0.027815,2.577325,-0.100956,-0.020987,0.948712,0.954299,0
8.327761,0.034663,2.612177,-0.062696,-0.042938,0.962359,0.965354,0
8.360683,0.032922,2.639616,-0.089108,-0.081776,0.959191,0.966786,0
8.385839,0.025155,2.675396,-0.081456,-0.077675,0.997451,1.003781,0
8.414477,0.028638,2.717367,-0.066399,-0.024846,1.008905,1.011393,0
8.449753,0.035276,2.753818,-0.001234,-0.052828,0.98551,0.986926,0
8.480908,0.031155,2.78329,-0.020487,-0.042215,0.937502,0.938675,0
8.508561,0.027653,2.81831,-0.050601,-0.04921,0.917031,0.919744,0
8.543201,0.03464,2.852782,-0.033323,-0.079846,0.944569,0.948523,0
8.578138,0.034936,2.885431,0.001212,-0.068026,0.959191,0.961601,0
8.613311,0.035174,2.904192,0.025457,-0.089254,0.946519,0.951058,0
8.641426,0.028115,2.926407,0.031518,-0.112652,0.915813,0.923253,0
8.673413,0.031986,2.941643,0.021093,-0.109275,0.900704,0.907553,0
8.701685,0.028272,2.955621,0.042428,-0.058377,0.994771,0.997385,0
8.737021,0.035336,2.963068,0.106919,-0.084912,0.918493,0.928586,0
8.768832,0.031811,2.964601,0.077098,-0.103245,0.90314,0.912286,0
8.796767,0.027935,2.963754,0.034185,-0.096732,0.956754,0.962239,0
8.824661,0.027893,2.960562,-0.001481,-0.074298,1.06788,1.070462,0
8.856445,0.031785,2.95346,-0.003209,-0.052346,1.132703,1.133916,0
8.891608,0.035162,2.939125,-0.055044,-0.030877,1.135871,1.137623,0
8.919519,0.027912,2.924784,-0.137487,-0.056688,1.109308,1.119232,0
8.951284,0.031765,2.912825,-0.157481,-0.044868,1.167064,1.178496,0
8.979637,0.028352,2.904893,-0.152791,-0.002895,1.210686,1.220292,1
9.014628,0.034992,2.889916,-0.143905,0.096146,1.221652,1.23385,0
9.049887,0.035258,2.875288,-0.0195,0.060698,1.060081,1.061997,0
9.084872,0.034986,2.871509,-0.085899,0.03909,0.926292,0.931087,0
9.116617,0.031745,2.871105,-0.139462,0.053172,0.90972,0.921883,0
9.144793,0.028176,2.869687,-0.178956,0.033991,0.990628,1.007236,0
9.173036,0.028243,2.873005,-0.172044,0.060213,0.998182,1.014688,0
9.204671,0.031635,2.877522,-0.124158,0.079879,0.966258,0.977471,0
9.23975,0.035079,2.875433,-0.112557,0.078179,0.896561,0.906974,0
9.267658,0.027909,2.87201,-0.102437,0.046859,0.861712,0.869044,0
9.299228,0.03157,2.866707,-0.091082,0.01481,0.888031,0.892813,0
9.327085,0.027857,2.860686,-0.043196,0.032049,0.902653,0.904254,0
9.355203,0.028117,2.850716,-0.017278,0.053172,0.931166,0.932843,0
9.387235,0.032032,2.841028,0.010183,0.008498,0.925804,0.925899,0
9.422554,0.035319,2.829766,-0.030854,-0.005789,0.908989,0.909531,0
9.450426,0.027872,2.81721,-0.014563,-0.004825,0.915569,0.915698,0
9.481998,0.031572,2.801389,-0.020241,-0.002653,0.921661,0.921888,0
9.509881,0.027884,2.783491,0.022305,-0.008925,0.940913,0.94122,0
9.537786,0.027904,2.758483,0.025214,-0.000482,0.945544,0.94588,0
9.569474,0.031688,2.735162,0.040488,-0.033289,0.941157,0.942616,0
9.597306,0.027833,2.70776,-0.039494,-0.001206,1.056182,1.056921,0
9.625231,0.027924,2.67394,-0.097006,-0.030153,1.111989,1.116619,0
9.656711,0.03148,2.640341,-0.119468,-0.022434,1.100779,1.10747,0
9.685248,0.028538,2.609303,0.000242,-0.00386,1.151468,1.151474,0
9.717545,0.032297,2.604928,0.01091,0.005584,1.247728,1.247788,1
9.745943,0.028398,2.600559,-0.067139,0.024522,1.323274,1.325203,0
9.780435,0.034493,2.594067,-0.153038,-0.011096,1.163409,1.173484,0
9.807003,0.026568,2.587234,-0.121443,-0.087806,0.949443,0.961197,0
9.840799,0.033796,2.581826,-0.086639,-0.098179,0.833931,0.844148,0
9.868175,0.027375,2.573386,-0.136747,-0.036184,0.783729,0.796392,0
9.902009,0.033834,2.562197,-0.152544,-0.018333,0.832956,0.847007,0
9.928632,0.026624,2.55515,-0.100956,-0.034495,0.899485,0.90579,0
9.962282,0.03365,2.556066,-0.046652,-0.053793,0.949687,0.952352,0
9.988898,0.026615,2.559771,-0.05381,-0.022675,0.977955,0.979697,0
10.015508,0.026611,2.561752,-0.078987,-0.0275,0.975762,0.97934,0
10.042364,0.026856,2.56989,-0.091576,-0.055241,0.964796,0.970705,0
10.075996,0.033632,2.578679,-0.075285,-0.082499,0.960166,0.966639,0
10.102631,0.026635,2.583913,-0.123418,-0.060306,0.953098,0.962946,0
10.136461,0.033831,2.584218,-0.073557,-0.055482,0.960409,0.964819,0
10.163117,0.026656,2.587615,-0.019006,-0.069473,0.978199,0.980847,0
10.190023,0.026906,2.59315,-0.031348,-0.013991,0.982829,0.983429,0
10.223777,0.033754,2.595472,-0.026658,-0.04125,0.956266,0.957527,0
10.250405,0.026628,2.598096,-0.04369,-0.034254,0.93409,0.935738,0
10.277212,0.026808,2.604499,-0.046158,-0.06489,0.895099,0.898634,0
10.310891,0.033679,2.609903,-0.075285,-0.040285,0.915082,0.919057,0
10.338295,0.027404,2.612163,-0.030608,-0.02364,0.977468,0.978233,0
10.372423,0.034128,2.616176,-0.063684,-0.044144,0.937014,0.940213,0
10.406412,0.033989,2.62171,-0.060722,-0.045833,1.010367,1.013227,0
10.433205,0.026793,2.627147,-0.109348,-0.015921,1.064468,1.070188,0
10.459867,0.026662,2.631002,-0.143412,0.021366,1.104434,1.113911,0
10.493635,0.033768,2.631963,-0.074791,0.021366,1.068611,1.071438,0
10.520263,0.026628,2.638967,-0.081703,0.004127,1.031812,1.03505,0
10.553885,0.033622,2.642872,-0.136006,0.026707,1.005981,1.015484,0
10.580462,0.026577,2.644091,-0.127861,0.008741,0.968939,0.977378,0
10.607051,0.026589,2.644722,-0.133044,0.015539,0.958216,0.967533,0
10.6337,0.026649,2.646173,-0.129342,0.022823,0.954804,0.963795,0
10.667307,0.033607,2.64747,-0.097994,0.024765,0.944082,0.949477,0
10.700158,0.032851,2.649618,-0.117247,0.027193,0.951636,0.959217,0
10.726719,0.026561,2.652285,-0.137487,0.022823,0.985754,0.995557,0
10.753261,0.026542,2.656005,-0.133044,0.04783,1.002325,1.012247,0
10.786908,0.033646,2.655804,-0.123665,0.060213,0.986485,0.996028,0
10.813432,0.026524,2.656224,-0.119222,0.032534,0.961628,0.969536,0
10.840222,0.02679,2.657965,-0.113544,0.026707,0.955292,0.962386,0
10.873831,0.033609,2.656933,-0.09207,0.046373,0.95846,0.963988,0
10.900568,0.026737,2.655815,-0.084911,0.035448,0.974787,0.97912,0
10.927116,0.026548,2.656686,-0.078494,0.024522,0.999888,1.003264,0
10.960636,0.03352,2.656076,-0.089601,0.036419,0.999888,1.004555,0
10.987164,0.026528,2.655255,-0.093798,0.036904,0.989409,0.99453,0
11.013701,0.026537,2.654934,-0.102684,0.01481,0.975762,0.981262,0
11.04046,0.026758,2.652768,-0.124158,0.022823,0.989409,0.99743,0
11.074084,0.033624,2.648112,-0.123911,0.030106,0.995258,1.003394,0
11.10059,0.026505,2.644059,-0.083184,0.018695,0.98088,0.984578,0
11.12837,0.02778,2.640304,-0.100462,0.017481,0.961872,0.967262,0
11.154955,0.026586,2.635823,-0.090342,0.033505,0.970645,0.975415,0
11.181844,0.026889,2.631816,-0.067386,0.036904,0.99867,1.001621,0
11.215461,0.033617,2.629877,-0.068373,0.019909,1.002813,1.005338,0
11.242028,0.026567,2.626757,-0.104165,0.035933,1.006224,1.012239,0
11.268539,0.026512,2.619253,-0.078,0.042246,1.003544,1.007456,0
11.302971,0.034431,2.615546,-0.068867,0.023308,0.999401,1.002042,0
11.329732,0.026762,2.611441,-0.065905,0.023794,0.999157,1.001611,0
11.363287,0.033554,2.605466,-0.090342,0.021609,0.990628,0.994973,0
11.390049,0.026762,2.596684,-0.059981,0.006555,0.975762,0.977626,0
11.424965,0.034916,2.592349,-0.052329,0.005827,0.963577,0.965015,0
11.451679,0.026714,2.586245,-0.049614,0.033748,0.979418,0.981254,0
11.485248,0.033569,2.581284,-0.045665,0.025979,0.980636,0.982042,0
11.511817,0.026569,2.577005,-0.05307,0.022094,0.966745,0.968453,0
11.538385,0.026568,2.570997,-0.055785,0.041518,1.05472,1.05701,0
11.569751,0.031366,2.56675,-0.020981,0.032534,1.008905,1.009647,0
11.596246,0.026495,2.563735,-0.030608,0.028407,0.993552,0.994429,0
11.62287,0.026624,2.56101,-0.055291,0.016024,0.991846,0.993515,0
11.649406,0.026536,2.557412,-0.029867,0.018695,0.997939,0.99856,0
11.683184,0.033778,2.556505,-0.038013,0.011654,0.982098,0.982903,0
11.709757,0.026572,2.556024,-0.042209,0.018938,0.985023,0.986108,0
11.736243,0.026486,2.555,-0.052576,0.019423,0.999644,1.001215,0
11.769793,0.03355,2.552906,-0.035297,0.02525,1.008417,1.009351,0
11.796493,0.0267,2.551234,-0.025671,0.007769,0.97625,0.976618,0
11.823085,0.026592,2.550648,-0.046158,0.002185,0.96967,0.97077,0
11.849868,0.026783,2.548484,-0.021722,0.034234,1.009636,1.01045,0
11.883594,0.033727,2.547745,-0.017278,0.034719,1.003787,1.004536,0
11.910166,0.026572,2.548149,-0.028633,0.024279,0.997695,0.998401,0
11.936671,0.026505,2.547781,-0.061462,0.026707,0.993796,0.996053,0
11.970177,0.033505,2.54569,-0.045418,0.037633,0.993552,0.995301,0
11.996712,0.026535,2.54577,-0.011354,0.023794,0.986485,0.986837,0
12.024431,0.027719,2.54649,-0.025424,0.028892,0.980392,0.981147,0
12.051204,0.026773,2.54635,-0.036532,0.032291,0.992577,0.993774,0
12.077768,0.026564,2.546545,-0.015057,0.019181,0.984779,0.985081,0
12.104338,0.02657,2.548704,-0.032582,0.012868,0.976737,0.977365,0
12.137981,0.033643,2.549856,-0.04369,0.027436,0.998913,1.000245,0
12.164606,0.026625,2.550073,-0.036779,0.024765,0.996964,0.997949,0
12.191466,0.02686,2.551808,-0.026658,0.015782,0.983804,0.984292,0
12.225095,0.033629,2.552919,-0.029373,0.017238,0.978199,0.978792,0
12.251652,0.026557,2.553315,-0.043443,0.008741,0.971132,0.972142,0
12.278401,0.026749,2.553744,-0.047639,0.001214,0.978443,0.979603,0
12.311945,0.033545,2.553284,-0.027646,0.022094,0.994283,0.994913,0
12.338472,0.026527,2.552921,-0.028633,0.025008,0.988434,0.989165,0
12.364997,0.026525,2.553457,-0.029127,0.024522,0.999644,1.000369,0
12.39873,0.033733,2.55295,-0.030854,0.013354,0.987216,0.987788,0
12.425821,0.027091,2.551166,-0.035051,0.032291,1.00135,1.002484,0
12.45253,0.026709,2.550031,-0.022215,0.006313,1.007443,1.007707,0
12.486105,0.033575,2.548059,-0.025177,0.011168,0.995989,0.99637,0
12.512685,0.026581,2.545746,-0.026905,0.025008,0.980149,0.980837,0
12.539206,0.02652,2.542862,-0.030361,0.015539,0.959435,0.960041,0
12.572743,0.033538,2.54061,-0.029867,0.034234,0.988434,0.989478,0
12.599291,0.026548,2.5386,-0.044184,0.037147,0.994283,0.995957,0
12.625891,0.0266,2.537331,-0.013082,0.007527,0.978199,0.978316,0
12.652532,0.026641,2.536928,-0.011601,0.020152,0.980149,0.980425,0
12.686359,0.033827,2.536746,-0.031101,0.041275,1.012317,1.013635,0
12.712924,0.026565,2.536725,-0.016785,0.016267,0.973813,0.974093,0
12.739441,0.026517,2.538555,-0.006911,0.027436,0.991846,0.99225,0
12.773168,0.033727,2.539838,-0.003456,0.038604,0.995014,0.995769,0
12.799718,0.02655,2.540022,-0.023943,0.038361,0.968208,0.969263,0
12.826277,0.026559,2.538641,-0.040481,0.005827,0.968208,0.969071,0
12.860029,0.033751,2.536956,-0.040728,0.031806,0.981124,0.982483,0
12.886715,0.026686,2.534753,-0.003456,0.02865,0.982342,0.982766,0
12.913334,0.026619,2.536001,-0.008392,0.025493,0.971863,0.972234,0
12.946867,0.033533,2.535505,-0.030854,0.018695,0.981855,0.982517,0
12.973643,0.026776,2.53441,-0.02888,0.037633,0.998913,1.000039,0
13.000141,0.026497,2.535344,-0.025671,0.008741,0.985023,0.985396,0
