t,dt,acc_x_g,acc_y_g,acc_z_g,acc_mag_g,gyro_x_rads,gyro_y_rads,gyro_z_rads,gyro_mag_rads,yaw_rate_used,gyro_bias,hp,state,step,step_count,heading_rad,pos_x_m,pos_y_m,walkable,sf_yaw_deg
0.000418,0.000418,0.032245,-0.001689,1.017922,1.018434,0.013482,0.011262,-0.005403,0.018379,-0.005403,0.000000,0.016590,MOVE,0,0,-0.000002,1.000000,0.250000,1,50.384
0.155711,0.155293,0.036367,-0.012544,1.007443,1.008177,0.018689,0.011634,-0.004275,0.022425,-0.004275,0.000000,0.022291,MOVE,0,0,-0.000666,1.000000,0.250000,1,50.369
0.200474,0.044763,0.024002,0.058027,1.019628,1.021559,0.015641,0.006829,-0.004493,0.017648,-0.004493,0.000000,0.039465,MOVE,0,0,-0.000867,1.000000,0.250000,1,50.352
0.242816,0.042342,0.031033,-0.001206,1.020359,1.020831,0.013184,0.010639,-0.004245,0.017465,-0.004245,0.000000,0.054267,MOVE,0,0,-0.001047,1.000000,0.250000,1,50.355
0.299634,0.056818,0.032488,-0.000482,1.023283,1.023799,0.008677,0.007479,-0.003745,0.012052,-0.003745,0.000000,0.070259,MOVE,0,0,-0.001260,1.000000,0.250000,1,50.336
0.338591,0.038958,0.034670,-0.000965,1.020115,1.020704,0.011490,0.008294,-0.004740,0.014943,-0.004740,0.000000,0.081867,MOVE,0,0,-0.001444,1.000000,0.250000,1,50.268
0.389710,0.051119,0.033458,-0.002412,1.021821,1.022371,0.007994,0.004551,-0.003459,0.009827,-0.003459,0.000000,0.093814,MOVE,0,0,-0.001621,1.000000,0.250000,1,50.160
0.435861,0.046150,0.033700,-0.002653,1.019628,1.020188,0.008768,0.008455,-0.080750,0.081664,-0.080750,0.000000,0.102602,MOVE,0,0,-0.005348,1.000000,0.250000,1,50.087
0.483446,0.047585,0.033700,-0.000000,1.019384,1.019941,0.011011,0.007780,-0.000946,0.013515,-0.000946,0.000000,0.110289,MOVE,0,0,-0.005393,1.000000,0.250000,1,50.092
0.526847,0.043401,0.034185,-0.001206,1.017678,1.018253,0.009939,0.006483,-0.000860,0.011898,-0.000860,0.000000,0.115687,MOVE,0,0,-0.005430,1.000000,0.250000,1,50.108
0.569555,0.042708,0.034427,-0.002412,1.019628,1.020211,0.011589,0.006688,0.073743,0.074947,0.073743,0.000000,0.122309,MOVE,0,0,-0.002281,1.000000,0.250000,1,50.181
0.612516,0.042961,0.033700,-0.002412,1.021577,1.022136,0.006585,0.006316,-0.003637,0.009822,-0.003637,0.000000,0.130000,MOVE,0,0,-0.002437,1.000000,0.250000,1,50.172
0.656807,0.044291,0.034670,-0.003377,1.021333,1.021927,0.005692,0.006553,-0.004392,0.009728,-0.004392,0.000000,0.136735,MOVE,0,0,-0.002632,1.000000,0.250000,1,50.175
0.701408,0.044600,0.032973,-0.001930,1.017678,1.018214,0.008938,0.004726,-0.003284,0.010630,-0.003284,0.000000,0.139454,MOVE,0,0,-0.002778,1.000000,0.250000,1,50.169
0.752028,0.050620,0.034427,-0.002171,1.021090,1.021672,0.007184,0.004569,-0.002869,0.008984,-0.002869,0.000000,0.145014,MOVE,0,0,-0.002923,1.000000,0.250000,1,50.160
0.810107,0.058079,0.034185,-0.000965,1.020115,1.020688,0.006939,0.005292,-0.004275,0.009718,-0.004275,0.000000,0.149131,MOVE,0,0,-0.003172,1.000000,0.250000,1,50.167
0.854136,0.044029,0.032488,-0.001930,1.020115,1.020634,0.004798,0.004424,-0.002316,0.006925,-0.002316,0.000000,0.152789,MOVE,0,0,-0.003274,1.000000,0.250000,1,50.191
0.897544,0.043408,0.032003,-0.002895,1.019628,1.020134,0.003319,0.003349,-0.003383,0.005803,-0.003383,0.000000,0.155630,MOVE,0,0,-0.003420,1.000000,0.250000,1,50.232
0.941187,0.043643,0.034427,-0.001206,1.020359,1.020940,0.004867,0.002332,-0.002279,0.005858,-0.002279,0.000000,0.158914,MOVE,0,0,-0.003520,1.000000,0.250000,1,50.289
0.986026,0.044839,0.032488,-0.001689,1.023283,1.023800,0.005205,0.002532,-0.003628,0.006831,-0.003628,0.000000,0.164442,MOVE,0,0,-0.003683,1.000000,0.250000,1,50.352
1.037256,0.051231,0.033215,-0.002653,1.018897,1.019441,0.007054,0.003618,-0.002537,0.008324,-0.002537,0.000000,0.165495,MOVE,0,0,-0.003812,1.000000,0.250000,1,50.405
1.079847,0.042591,0.035882,-0.005307,1.025964,1.026605,0.001634,0.004039,-0.005044,0.006665,-0.005044,0.000000,0.172890,MOVE,0,0,-0.004027,1.000000,0.250000,1,50.452
1.122461,0.042614,0.032245,-0.010373,1.027913,1.028471,0.003896,0.008488,-0.001490,0.009458,-0.001490,0.000000,0.181225,MOVE,0,0,-0.004091,1.000000,0.250000,1,50.511
1.164890,0.042429,0.034185,0.004613,1.033031,1.033607,0.002028,0.002640,-0.001765,0.003768,-0.001765,0.000000,0.193349,MOVE,0,0,-0.004166,1.000000,0.250000,1,50.695
1.207382,0.042491,0.034185,0.010197,1.031081,1.031698,0.000717,0.003821,-0.001647,0.004222,-0.001647,0.000000,0.202542,MOVE,0,0,-0.004236,1.000000,0.250000,1,50.798
1.256955,0.049573,0.042428,-0.004583,1.019628,1.020520,0.006006,0.003948,0.074986,0.075329,0.074986,0.000000,0.200756,MOVE,0,0,-0.000518,1.000000,0.250000,1,50.948
1.299206,0.042251,0.033458,0.000971,1.014997,1.015549,0.002134,0.003172,-0.001299,0.004038,-0.001299,0.000000,0.194675,MOVE,0,0,-0.000573,1.000000,0.250000,1,51.003
1.341872,0.042666,0.037579,0.061427,1.022065,1.024598,0.000586,0.003984,-0.000066,0.004027,-0.000066,0.000000,0.197346,MOVE,0,0,-0.000576,1.000000,0.250000,1,51.026
1.384675,0.042803,0.030306,-0.001689,1.022065,1.022515,0.000257,0.004297,-0.000704,0.004362,-0.000704,0.000000,0.197875,MOVE,0,0,-0.000606,1.000000,0.250000,1,51.072
1.423446,0.038771,0.033942,-0.002895,1.025720,1.026286,0.007361,0.005005,-0.002755,0.009318,-0.002755,0.000000,0.201744,MOVE,0,0,-0.000713,1.000000,0.250000,1,51.123
1.465915,0.042469,0.035397,-0.002895,1.016947,1.017567,0.008532,0.002144,0.073352,0.073878,0.073352,0.000000,0.197380,MOVE,0,0,0.002402,1.000000,0.250000,1,51.241
1.513371,0.047456,0.034912,-0.002412,1.023283,1.023881,0.007518,0.003254,-0.001035,0.008257,-0.001035,0.000000,0.199135,MOVE,0,0,0.002353,1.000000,0.250000,1,51.293
1.552172,0.038802,0.033700,-0.002895,1.018897,1.019458,0.008622,0.004579,-0.004172,0.010617,-0.004172,0.000000,0.196734,MOVE,0,0,0.002191,1.000000,0.250000,1,51.388
1.593855,0.041683,0.035882,-0.003377,1.023039,1.023674,0.005858,0.002275,-0.003374,0.007133,-0.003374,0.000000,0.198367,MOVE,0,0,0.002051,1.000000,0.250000,1,51.458
1.635274,0.041419,0.032488,0.000243,1.020115,1.020632,0.006428,0.003058,-0.002026,0.007401,-0.002026,0.000000,0.197099,MOVE,0,0,0.001967,1.000000,0.250000,1,51.508
1.680346,0.045071,0.035155,0.000971,1.017434,1.018042,0.005534,0.003237,-0.003102,0.007122,-0.003102,0.000000,0.193627,MOVE,0,0,0.001827,1.000000,0.250000,1,51.534
1.728809,0.048463,0.034912,0.001457,1.020115,1.020713,0.002337,0.004343,-0.003243,0.005902,-0.003243,0.000000,0.192906,MOVE,0,0,0.001670,1.000000,0.250000,1,51.531
1.773782,0.044974,0.032488,-0.000965,1.020115,1.020633,0.003132,0.001815,-0.003678,0.005160,-0.003678,0.000000,0.192185,MOVE,0,0,0.001504,1.000000,0.250000,1,51.429
1.815456,0.041674,0.035155,-0.000000,1.022065,1.022669,0.001464,0.003181,-0.001384,0.003766,-0.001384,0.000000,0.193369,MOVE,0,0,0.001447,1.000000,0.250000,1,51.422
1.860478,0.045022,0.032730,-0.000000,1.022308,1.022832,0.002003,0.000706,-0.001065,0.002376,-0.001065,0.000000,0.194581,MOVE,0,0,0.001399,1.000000,0.250000,1,51.417
1.908955,0.048476,0.032730,-0.000724,1.022552,1.023076,0.001297,0.000336,-0.003385,0.003641,-0.003385,0.000000,0.195891,MOVE,0,0,0.001234,1.000000,0.250000,1,51.410
1.954007,0.045053,0.034912,0.000486,1.021090,1.021687,0.002760,-0.001237,-0.000880,0.003150,-0.000880,0.000000,0.195820,MOVE,0,0,0.001195,1.000000,0.250000,1,51.390
1.995696,0.041688,0.032488,-0.000724,1.018897,1.019415,0.000896,0.001432,0.000045,0.001690,0.000045,0.000000,0.193711,MOVE,0,0,0.001197,1.000000,0.250000,1,51.324
2.040702,0.045006,0.034185,-0.000482,1.022796,1.023367,0.001782,-0.000394,-0.000857,0.002016,-0.000857,0.000000,0.195370,MOVE,0,0,0.001158,1.000000,0.250000,1,51.254
2.089197,0.048496,0.032245,-0.002171,1.020846,1.021357,0.001458,0.000406,-0.000234,0.001532,-0.000234,0.000000,0.195055,MOVE,0,0,0.001147,1.000000,0.250000,1,51.185
2.127119,0.037921,0.034912,-0.000724,1.021090,1.021687,0.000460,0.001237,-0.000212,0.001337,-0.000212,0.000000,0.195067,MOVE,0,0,0.001139,1.000000,0.250000,1,51.105
2.175942,0.048823,0.034670,-0.000724,1.022552,1.023140,0.001879,0.000230,0.074893,0.074917,0.074893,0.000000,0.196387,MOVE,0,0,0.004795,1.000000,0.250000,1,51.090
2.217374,0.041432,0.035155,-0.000482,1.023039,1.023643,-0.000612,0.002015,-0.000767,0.002242,-0.000767,0.000000,0.198027,MOVE,0,0,0.004764,1.000000,0.250000,1,51.028
2.255269,0.037895,0.033700,-0.000241,1.022796,1.023351,0.001526,-0.000144,-0.002253,0.002725,-0.002253,0.000000,0.199240,MOVE,0,0,0.004678,1.000000,0.250000,1,50.894
2.296955,0.041686,0.033942,-0.001206,1.019628,1.020193,0.001775,-0.001350,-0.003079,0.003802,-0.003079,0.000000,0.197490,MOVE,0,0,0.004550,1.000000,0.250000,1,50.851
2.338385,0.041430,0.035882,-0.000241,1.024258,1.024886,-0.000695,0.000689,0.000037,0.000979,0.000037,0.000000,0.200138,MOVE,0,0,0.004551,1.000000,0.250000,1,50.740
2.383368,0.044983,0.035397,-0.001447,1.020115,1.020730,-0.002207,0.002767,-0.000722,0.003612,-0.000722,0.000000,0.198782,MOVE,0,0,0.004519,1.000000,0.250000,1,50.728
2.424762,0.041394,0.034185,-0.001689,1.022796,1.023368,-0.000661,0.003586,-0.000696,0.003712,-0.000696,0.000000,0.199935,MOVE,0,0,0.004490,1.000000,0.250000,1,50.712
2.469820,0.045058,0.033700,-0.001206,1.019871,1.020429,0.000858,-0.001282,-0.000962,0.001818,-0.000962,0.000000,0.198327,MOVE,0,0,0.004447,1.000000,0.250000,1,50.767
2.511501,0.041681,0.034670,-0.000241,1.022308,1.022896,-0.000111,0.000513,-0.003085,0.003130,-0.003085,0.000000,0.199101,MOVE,0,0,0.004318,1.000000,0.250000,1,50.764
2.556479,0.044978,0.034185,-0.000241,1.022065,1.022636,0.000450,0.001398,-0.000499,0.001552,-0.000499,0.000000,0.199563,MOVE,0,0,0.004296,1.000000,0.250000,1,50.710
2.605075,0.048596,0.034185,-0.000965,1.022552,1.023124,0.002851,0.001945,-0.076430,0.076508,-0.076430,0.000000,0.200418,MOVE,0,0,0.000582,1.000000,0.250000,1,50.651
2.650109,0.045034,0.033458,-0.001206,1.021333,1.021882,-0.000248,-0.000254,0.001994,0.002025,0.001994,0.000000,0.200070,MOVE,0,0,0.000671,1.000000,0.250000,1,50.588
2.691731,0.041621,0.032973,-0.001447,1.023039,1.023572,-0.000842,0.001230,0.003175,0.003508,0.003175,0.000000,0.201278,MOVE,0,0,0.000803,1.000000,0.250000,1,50.632
2.736632,0.044901,0.033942,-0.000482,1.021577,1.022141,0.000081,0.000569,0.002432,0.002499,0.002432,0.000000,0.201077,MOVE,0,0,0.000913,1.000000,0.250000,1,50.699
2.785135,0.048504,0.034185,-0.000482,1.022796,1.023367,0.000632,-0.000691,0.077987,0.077993,0.077987,0.000000,0.201999,MOVE,0,0,0.004695,1.000000,0.250000,1,50.802
2.830235,0.045099,0.033700,-0.000482,1.021577,1.022133,0.000015,0.000174,-0.001460,0.001471,-0.001460,0.000000,0.201719,MOVE,0,0,0.004629,1.000000,0.250000,1,50.816
2.871760,0.041525,0.033215,-0.001447,1.022308,1.022849,0.000285,0.000792,0.000664,0.001072,0.000664,0.000000,0.202111,MOVE,0,0,0.004657,1.000000,0.250000,1,50.856
2.916610,0.044850,0.034427,-0.000241,1.022065,1.022644,-0.000340,0.000467,0.001542,0.001647,0.001542,0.000000,0.202280,MOVE,0,0,0.004726,1.000000,0.250000,1,50.820
2.958146,0.041536,0.033942,-0.000482,1.023770,1.024333,0.002339,0.002226,0.002781,0.004262,0.002781,0.000000,0.203952,MOVE,0,0,0.004842,1.000000,0.250000,1,50.845
3.000021,0.041875,0.033700,-0.000482,1.022308,1.022864,0.002213,0.000694,0.002038,0.003087,0.002038,0.000000,0.204134,MOVE,0,0,0.004927,1.000000,0.250000,1,50.863
3.045029,0.045008,0.035155,-0.002412,1.021821,1.022428,0.000977,0.000389,0.000150,0.001062,0.000150,0.000000,0.203906,MOVE,0,0,0.004934,1.000000,0.250000,1,50.877
3.086556,0.041527,0.032973,-0.001206,1.022552,1.023084,-0.000248,0.000685,0.001018,0.001252,0.001018,0.000000,0.204291,MOVE,0,0,0.004976,1.000000,0.250000,1,50.896
3.131461,0.044905,0.033700,-0.001689,1.022552,1.023109,-0.000551,-0.000230,0.077865,0.077867,0.077865,0.000000,0.204660,MOVE,0,0,0.008473,1.000000,0.250000,1,50.986
3.180147,0.048686,0.034912,-0.001206,1.020846,1.021444,-0.000188,0.000347,0.001142,0.001208,0.001142,0.000000,0.203493,MOVE,0,0,0.008528,1.000000,0.250000,1,50.977
3.225132,0.044985,0.032730,-0.000241,1.021333,1.021858,0.000977,0.001536,-0.000677,0.001942,-0.000677,0.000000,0.202816,MOVE,0,0,0.008498,1.000000,0.250000,1,50.964
3.266705,0.041573,0.034427,-0.001447,1.022796,1.023376,-0.001458,0.000895,0.001103,0.002036,0.001103,0.000000,0.203572,MOVE,0,0,0.008544,1.000000,0.250000,1,50.971
3.311618,0.044913,0.033215,-0.001447,1.020602,1.021144,-0.000565,0.000230,0.001934,0.002028,0.001934,0.000000,0.202245,MOVE,0,0,0.008631,1.000000,0.250000,1,50.996
3.353047,0.041429,0.034912,-0.000965,1.021821,1.022418,0.001264,0.000789,0.000948,0.001766,0.000948,0.000000,0.202196,MOVE,0,0,0.008670,1.000000,0.250000,1,51.038
3.398113,0.045065,0.033942,-0.001206,1.020359,1.020924,-0.000258,-0.000425,-0.000870,0.001003,-0.000870,0.000000,0.200808,MOVE,0,0,0.008631,1.000000,0.250000,1,51.109
3.446542,0.048429,0.033458,-0.000482,1.019140,1.019689,0.001886,0.000782,0.075444,0.075472,0.075444,0.000000,0.198448,MOVE,0,0,0.012284,1.000000,0.250000,1,51.157
3.491739,0.045197,0.033458,-0.001206,1.022552,1.023100,-0.001750,0.001654,-0.000573,0.002476,-0.000573,0.000000,0.199393,MOVE,0,0,0.012258,1.000000,0.250000,1,51.128
3.533179,0.041440,0.034427,-0.000724,1.020115,1.020696,0.000338,0.000716,-0.000505,0.000939,-0.000505,0.000000,0.198080,MOVE,0,0,0.012237,1.000000,0.250000,1,51.113
3.578153,0.044975,0.033700,-0.001206,1.022552,1.023108,-0.002687,0.000375,-0.000069,0.002714,-0.000069,0.000000,0.199069,MOVE,0,0,0.012234,1.000000,0.250000,1,51.045
3.626615,0.048462,0.034670,-0.001447,1.023039,1.023628,0.001840,0.001232,-0.000956,0.002412,-0.000956,0.000000,0.200427,MOVE,0,0,0.012188,1.000000,0.250000,1,51.038
3.664793,0.038178,0.033458,-0.000482,1.020846,1.021394,-0.000608,0.000926,-0.000358,0.001164,-0.000358,0.000000,0.199639,MOVE,0,0,0.012174,1.000000,0.250000,1,51.049
3.706239,0.041446,0.034427,-0.001206,1.023283,1.023863,0.002070,0.000925,0.000541,0.002331,0.000541,0.000000,0.201152,MOVE,0,0,0.012197,1.000000,0.250000,1,51.068
3.747719,0.041481,0.033215,-0.000482,1.022552,1.023091,0.001397,0.001840,0.001094,0.002556,0.001094,0.000000,0.201819,MOVE,0,0,0.012242,1.000000,0.250000,1,51.082
3.792835,0.045116,0.033215,-0.001689,1.022552,1.023093,-0.000400,0.001474,0.000255,0.001548,0.000255,0.000000,0.202420,MOVE,0,0,0.012254,1.000000,0.250000,1,51.013
3.841371,0.048536,0.032730,0.061912,1.022308,1.024704,0.000813,0.001149,0.078416,0.078428,0.078416,0.000000,0.204412,MOVE,0,0,0.016060,1.000000,0.250000,1,51.072
3.886795,0.045424,0.034912,-0.001206,1.020846,1.021444,0.002944,0.000205,0.000788,0.003055,0.000788,0.000000,0.203270,MOVE,0,0,0.016095,1.000000,0.250000,1,51.160
3.928213,0.041418,0.033215,-0.000965,1.020602,1.021143,-0.000086,-0.000388,0.000151,0.000425,0.000151,0.000000,0.201972,MOVE,0,0,0.016102,1.000000,0.250000,1,51.167
3.973338,0.045125,0.032245,-0.002171,1.023527,1.024037,0.001089,0.000207,0.000379,0.001172,0.000379,0.000000,0.203408,MOVE,0,0,0.016119,1.000000,0.250000,1,51.165
4.022218,0.048879,0.032973,-0.001447,1.019871,1.020405,-0.000757,0.001088,0.001556,0.002044,0.001556,0.000000,0.201432,MOVE,0,0,0.016195,1.000000,0.250000,1,51.160
4.067248,0.045030,0.034670,-0.001447,1.021821,1.022410,-0.000724,0.001029,0.000919,0.001558,0.000919,0.000000,0.201457,MOVE,0,0,0.016236,1.000000,0.250000,1,51.155
4.108652,0.041404,0.034185,-0.000965,1.022796,1.023367,-0.000718,0.000692,0.001769,0.002031,0.001769,0.000000,0.202342,MOVE,0,0,0.016309,1.000000,0.250000,1,51.149
4.153543,0.044891,0.032973,-0.000965,1.022065,1.022597,0.001094,-0.000233,0.000200,0.001136,0.000200,0.000000,0.202445,MOVE,0,0,0.016318,1.000000,0.250000,1,51.147
4.202264,0.048722,0.033942,-0.001689,1.021821,1.022386,0.001089,0.001270,0.077346,0.077365,0.077346,0.000000,0.202348,MOVE,0,0,0.020087,1.000000,0.250000,1,51.220
4.247151,0.044887,0.033700,-0.000482,1.023039,1.023594,-0.003124,-0.000550,0.000064,0.003172,0.000064,0.000000,0.203348,MOVE,0,0,0.020090,1.000000,0.250000,1,51.214
4.290165,0.043014,0.034670,-0.000965,1.023039,1.023627,0.000830,0.000653,0.000336,0.001109,0.000336,0.000000,0.204278,MOVE,0,0,0.020104,1.000000,0.250000,1,51.206
4.340016,0.049851,0.033700,-0.000482,1.022065,1.022620,-0.000082,-0.000225,-0.000247,0.000344,-0.000247,0.000000,0.204208,MOVE,0,0,0.020092,1.000000,0.250000,1,51.199
4.385528,0.045512,0.034427,-0.002653,1.022308,1.022891,-0.001599,-0.002371,-0.001461,0.003212,-0.001461,0.000000,0.204389,MOVE,0,0,0.020025,1.000000,0.250000,1,51.209
4.435026,0.049499,0.034185,-0.001689,1.024014,1.024586,0.002064,0.001285,-0.000222,0.002441,-0.000222,0.000000,0.206078,MOVE,0,0,0.020014,1.000000,0.250000,1,51.224
4.489320,0.054293,0.031276,-0.001689,1.021821,1.022301,0.001416,-0.001116,0.000705,0.001936,0.000705,0.000000,0.205541,MOVE,0,0,0.020053,1.000000,0.250000,1,51.239
4.532382,0.043062,0.034670,-0.000724,1.023527,1.024114,0.001942,0.000130,-0.001773,0.002633,-0.001773,0.000000,0.206689,MOVE,0,0,0.019976,1.000000,0.250000,1,51.314
4.574066,0.041684,0.033215,-0.000482,1.023039,1.023579,0.000624,0.000439,-0.000789,0.001098,-0.000789,0.000000,0.207241,MOVE,0,0,0.019943,1.000000,0.250000,1,51.362
4.615433,0.041367,0.036124,-0.001689,1.021821,1.022461,0.000228,-0.001054,-0.004358,0.004489,-0.004358,0.000000,0.206732,MOVE,0,0,0.019763,1.000000,0.250000,1,51.300
4.660448,0.045015,0.032973,0.000486,1.021577,1.022109,-0.003052,0.000770,-0.002334,0.003918,-0.002334,0.000000,0.205957,MOVE,0,0,0.019658,1.000000,0.250000,1,51.171
4.708905,0.048458,0.034427,-0.000241,1.024502,1.025080,-0.002355,-0.000730,-0.001953,0.003145,-0.001953,0.000000,0.207933,MOVE,0,0,0.019563,1.000000,0.250000,1,51.120
4.746746,0.037841,0.033458,-0.001447,1.021821,1.022370,-0.001922,-0.000689,-0.000400,0.002081,-0.000400,0.000000,0.207272,MOVE,0,0,0.019548,1.000000,0.250000,1,51.093
4.795232,0.048486,0.032973,0.061427,1.023770,1.026141,0.000890,0.000519,-0.000383,0.001099,-0.000383,0.000000,0.210072,MOVE,0,0,0.019530,1.000000,0.250000,1,51.087
4.840123,0.044892,0.034185,-0.001206,1.022796,1.023368,-0.000036,-0.000098,-0.003117,0.003119,-0.003117,0.000000,0.210096,MOVE,0,0,0.019390,1.000000,0.250000,1,51.100
4.882493,0.042369,0.032488,-0.001206,1.021821,1.022338,0.001503,-0.001637,0.001777,0.002845,0.001777,0.000000,0.209190,MOVE,0,0,0.019465,1.000000,0.250000,1,51.113
4.924775,0.042283,0.034670,-0.001206,1.022796,1.023384,0.001498,-0.001597,0.000231,0.002202,0.000231,0.000000,0.209317,MOVE,0,0,0.019475,1.000000,0.250000,1,51.170
4.978068,0.053293,0.033458,-0.000724,1.024014,1.024561,-0.002445,-0.000057,-0.002177,0.003275,-0.002177,0.000000,0.210490,MOVE,0,0,0.019359,1.000000,0.250000,1,51.234
5.028037,0.049968,0.034185,-0.001930,1.023039,1.023612,-0.000637,0.001748,-0.001774,0.002570,-0.001774,0.000000,0.210692,MOVE,0,0,0.019270,1.000000,0.250000,1,51.307
5.070303,0.042266,0.032245,-0.002171,1.020846,1.021357,0.000916,-0.001567,-0.077427,0.077448,-0.077427,0.000000,0.208844,MOVE,0,0,0.015998,1.000000,0.250000,1,51.293
5.112834,0.042531,0.035397,-0.000482,1.023527,1.024139,0.001231,0.002945,0.002538,0.004078,0.002538,0.000000,0.209685,MOVE,0,0,0.016105,1.000000,0.250000,1,51.330
5.156075,0.043241,0.036852,-0.060306,1.025720,1.028152,0.000946,0.001119,-0.078103,0.078117,-0.078103,0.000000,0.214053,MOVE,0,0,0.012728,1.000000,0.250000,1,51.319
5.198640,0.042565,0.030548,0.001700,1.018409,1.018869,-0.003515,0.000163,0.076630,0.076711,0.076630,0.000000,0.209630,MOVE,0,0,0.015990,1.000000,0.250000,1,51.433
5.241421,0.042780,0.037822,0.002428,1.021577,1.022280,-0.003672,0.003799,-0.077759,0.077939,-0.077759,0.000000,0.208719,MOVE,0,0,0.012663,1.000000,0.250000,1,51.387
5.287372,0.045951,0.027881,-0.001447,1.022065,1.022446,-0.002081,-0.003414,-0.000831,0.004084,-0.000831,0.000000,0.208048,MOVE,0,0,0.012625,1.000000,0.250000,1,51.419
5.330145,0.042773,0.036124,-0.001447,1.026695,1.027331,-0.005040,0.005278,0.000126,0.007299,0.000126,0.000000,0.211841,MOVE,0,0,0.012631,1.000000,0.250000,1,51.454
5.379898,0.049753,0.034185,-0.000965,1.023770,1.024341,-0.002053,-0.000615,0.000409,0.002181,0.000409,0.000000,0.212564,MOVE,0,0,0.012651,1.000000,0.250000,1,51.536
5.430272,0.050374,0.021335,-0.057412,1.031569,1.033385,0.006860,0.010258,0.018631,0.022347,0.018631,0.000000,0.221355,MOVE,0,0,0.013589,1.000000,0.250000,1,51.747
5.475703,0.045431,0.050914,-0.011820,0.949930,0.951367,0.004417,-0.058770,0.000916,0.058943,0.000916,0.000000,0.155450,MOVE,0,0,0.013631,1.000000,0.250000,1,52.069
5.517473,0.041770,0.039276,0.000486,1.029375,1.030125,0.004943,0.014590,-0.001202,0.015451,-0.001202,0.000000,0.167017,MOVE,0,0,0.013581,1.000000,0.250000,1,52.464
5.562410,0.044937,0.028366,0.004127,1.041560,1.041955,-0.004290,-0.014570,-0.001752,0.015289,-0.001752,0.000000,0.188074,MOVE,0,0,0.013502,1.000000,0.250000,1,52.872
5.610871,0.048461,0.042670,-0.061271,1.016703,1.019441,-0.005247,0.005194,-0.005098,0.008972,-0.005098,0.000000,0.186764,MOVE,0,0,0.013255,1.000000,0.250000,1,53.204
5.655838,0.044966,0.021820,0.002671,0.962115,0.962366,0.003305,-0.009772,0.001927,0.010494,0.001927,0.000000,0.134217,MOVE,0,0,0.013342,1.000000,0.250000,1,53.574
5.697402,0.041564,0.063278,-0.048969,0.997939,1.001141,0.000861,0.040624,0.001927,0.040679,0.001927,0.000000,0.121823,MOVE,0,0,0.013422,1.000000,0.250000,1,53.886
5.742265,0.044863,0.027881,0.003156,1.045947,1.046323,-0.002173,-0.019258,0.002787,0.019580,0.002787,0.000000,0.151331,MOVE,0,0,0.013547,1.000000,0.250000,1,54.177
5.792252,0.049987,0.036609,-0.001689,1.027913,1.028566,0.005076,-0.000747,0.000847,0.005200,0.000847,0.000000,0.161908,MOVE,0,0,0.013589,1.000000,0.250000,1,54.438
5.845414,0.053162,0.033215,-0.003136,1.019871,1.020417,-0.000931,-0.002934,0.000815,0.003184,0.000815,0.000000,0.164092,MOVE,0,0,0.013632,1.000000,0.250000,1,54.677
5.895999,0.050585,0.031033,0.002914,1.004275,1.004758,0.007402,0.000344,0.000447,0.007423,0.000447,0.000000,0.151966,MOVE,0,0,0.013655,1.000000,0.250000,1,54.925
5.939473,0.043474,0.037337,-0.003136,1.010855,1.011549,-0.002354,0.000063,0.002193,0.003218,0.002193,0.000000,0.147163,MOVE,0,0,0.013750,1.000000,0.250000,1,55.169
5.990353,0.050880,0.030548,0.000971,1.021577,1.022034,-0.002601,-0.002074,0.003067,0.004524,0.003067,0.000000,0.152278,MOVE,0,0,0.013906,1.000000,0.250000,1,55.386
6.034053,0.043700,0.036124,0.005584,1.021821,1.022475,0.000163,-0.000283,0.001778,0.001808,0.001778,0.000000,0.157277,MOVE,0,0,0.013984,1.000000,0.250000,1,55.593
6.084713,0.050660,0.028366,-0.000965,1.022552,1.022946,-0.003953,0.003930,0.001680,0.005821,0.001680,0.000000,0.162200,MOVE,0,0,0.014069,1.000000,0.250000,1,55.766
6.128042,0.043329,0.039034,-0.003618,1.025964,1.026712,0.000902,0.002694,0.001892,0.003414,0.001892,0.000000,0.170022,MOVE,0,0,0.014151,1.000000,0.250000,1,56.002
6.171342,0.043300,0.026427,-0.003136,1.022552,1.022898,-0.002385,-0.001018,-0.000283,0.002609,-0.000283,0.000000,0.173628,MOVE,0,0,0.014139,1.000000,0.250000,1,56.161
6.215605,0.044264,0.032730,-0.008202,1.024989,1.025544,0.006962,0.001695,-0.001430,0.007306,-0.001430,0.000000,0.179255,MOVE,0,0,0.014076,1.000000,0.250000,1,56.240
6.258995,0.043389,0.028124,-0.001447,1.020846,1.021234,-0.000646,-0.001332,-0.000794,0.001679,-0.000794,0.000000,0.180440,MOVE,0,0,0.014041,1.000000,0.250000,1,56.192
6.309647,0.050652,0.037822,-0.003618,1.020846,1.021553,-0.004543,0.005921,0.001928,0.007708,0.001928,0.000000,0.181794,MOVE,0,0,0.014139,1.000000,0.250000,1,56.054
6.352990,0.043343,0.031033,0.003642,1.015972,1.016453,-0.011374,-0.001686,-0.001708,0.011624,-0.001708,0.000000,0.178422,MOVE,0,0,0.014065,1.000000,0.250000,1,55.895
6.396625,0.043635,0.025699,-0.004101,1.016460,1.016793,-0.000160,-0.001898,-0.078230,0.078253,-0.078230,0.000000,0.175693,MOVE,0,0,0.010651,1.000000,0.250000,1,55.700
6.447111,0.050486,0.033458,0.006313,1.022065,1.022632,-0.003536,0.003426,0.001444,0.005131,0.001444,0.000000,0.178492,MOVE,0,0,0.010724,1.000000,0.250000,1,55.640
6.490795,0.043684,0.014304,-0.021710,1.024258,1.024588,0.136938,-0.061964,-0.002564,0.150327,-0.002564,0.000000,0.182772,MOVE,0,0,0.010612,1.000000,0.250000,1,55.659
6.534165,0.043370,-0.101943,-0.155832,1.366896,1.379521,0.090817,-0.094034,-0.016920,0.131820,-0.016920,0.000000,0.506064,MOVE,0,0,0.009878,1.000000,0.250000,1,55.623
6.585076,0.050911,0.044368,-0.022193,1.037661,1.038846,-0.001099,0.036374,0.006788,0.037019,0.006788,0.000000,0.490419,MOVE,0,0,0.010224,1.000000,0.250000,1,55.593
6.628468,0.043392,0.007516,-0.037872,1.055695,1.056401,0.057332,-0.019346,0.091025,0.109301,0.091025,0.000000,0.492138,MOVE,0,0,0.014174,1.000000,0.250000,1,55.877
6.679231,0.050763,0.032488,0.014568,0.973569,0.974220,-0.004060,-0.063939,0.050097,0.081329,0.050097,0.000000,0.419722,MOVE,0,0,0.016717,1.000000,0.250000,1,55.784
6.722543,0.043312,0.046550,-0.005066,1.028644,1.029710,-0.046717,0.025737,-0.004853,0.053557,-0.004853,0.000000,0.404488,MOVE,0,0,0.016507,1.000000,0.250000,1,55.681
6.765874,0.043331,0.078795,-0.034254,1.017922,1.021541,0.079121,0.064832,0.017138,0.103717,0.017138,0.000000,0.383427,MOVE,0,0,0.017249,1.000000,0.250000,1,55.596
6.814316,0.048442,0.016001,0.025008,0.993065,0.993508,-0.014636,-0.026291,-0.025120,0.039197,-0.025120,0.000000,0.339242,MOVE,0,0,0.016032,1.000000,0.250000,1,55.404
6.857983,0.043668,0.014062,-0.012544,1.001350,1.001528,-0.003030,-0.009186,0.064066,0.064792,0.064066,0.000000,0.306692,MOVE,0,0,0.018830,1.000000,0.250000,1,55.335
6.900723,0.042740,0.016244,-0.044386,1.033031,1.034112,0.028106,-0.075047,0.103017,0.130516,0.103017,0.000000,0.306723,MOVE,0,0,0.023233,1.000000,0.250000,1,55.593
6.943477,0.042753,0.012365,0.001214,1.118325,1.118394,-0.061386,0.105159,-0.071080,0.140993,-0.071080,0.000000,0.382606,MOVE,0,0,0.020194,1.000000,0.250000,1,55.518
6.987346,0.043869,0.066430,0.106100,0.951392,0.959593,-0.003048,0.035520,-0.008466,0.036642,-0.008466,0.000000,0.307978,MOVE,0,0,0.019823,1.000000,0.250000,1,55.353
7.031278,0.043931,0.100130,0.153688,1.035468,1.051589,-0.014349,-0.007851,0.071557,0.073403,0.071557,0.000000,0.323611,MOVE,0,0,0.022966,1.000000,0.250000,1,55.511
7.074983,0.043705,-0.031595,-0.043179,1.056426,1.057780,-0.060470,0.044683,0.479615,0.485473,0.479615,0.000000,0.343252,MOVE,0,0,0.043928,1.000000,0.250000,1,56.957
7.125479,0.050496,-0.033570,-0.024846,0.927510,0.928450,0.195178,-0.051834,0.256344,0.326333,0.256344,0.000000,0.244531,MOVE,0,0,0.056872,1.000000,0.250000,1,57.747
7.169107,0.043629,-0.028880,-0.055482,1.096879,1.098661,0.056817,-0.046947,-0.080854,0.109405,-0.080854,0.000000,0.308874,MOVE,0,0,0.053345,1.000000,0.250000,1,57.643
7.217162,0.048055,0.073219,-0.042938,0.985754,0.989401,0.067507,-0.002354,-0.137664,0.153343,-0.137664,0.000000,0.268447,MOVE,0,0,0.046729,1.000000,0.250000,1,57.088
7.260813,0.043651,0.002909,-0.055723,1.143182,1.144543,-0.199747,0.240465,-0.467532,0.562413,-0.467532,0.000000,0.371691,MOVE,0,0,0.026321,1.000000,0.250000,1,55.928
7.304066,0.043254,0.018911,-0.103003,1.181199,1.185832,-1.144450,0.650967,-0.217382,1.334458,-0.217382,0.000000,0.501771,MOVE,0,0,0.016918,1.000000,0.250000,1,55.339
7.354271,0.050205,0.000727,-0.089736,0.991602,0.995655,-0.287711,0.590491,-0.077189,0.661374,-0.077189,0.000000,0.447683,MOVE,0,0,0.013043,1.000000,0.250000,1,54.854
7.398071,0.043800,-0.013576,-0.027982,1.181199,1.181608,0.149057,0.247185,-0.236014,0.372855,-0.236014,0.000000,0.566362,MOVE,0,0,0.002706,1.000000,0.250000,1,54.305
7.441561,0.043491,0.060369,-0.028706,1.152930,1.154866,0.337509,0.181822,-0.061001,0.388192,-0.061001,0.000000,0.649105,MOVE,0,0,0.000053,1.000000,0.250000,1,54.194
7.485448,0.043886,-0.023203,-0.068508,1.155854,1.158115,0.396763,0.161053,-0.202721,0.473767,-0.202721,0.000000,0.726498,MOVE,0,0,-0.008844,1.000000,0.250000,1,53.822
7.536426,0.050978,-0.092317,-0.075745,1.227988,1.233781,0.337815,0.284448,-0.261975,0.513479,-0.261975,0.000000,0.864251,MOVE,0,0,-0.022199,1.000000,0.250000,1,53.289
7.579809,0.043383,-0.041222,-0.025811,1.165358,1.166373,0.227859,-0.212491,-0.271444,0.413224,-0.271444,0.000000,0.927562,MOVE,0,0,-0.033975,1.000000,0.250000,1,52.874
7.622630,0.042822,-0.041222,-0.078398,1.173888,1.177225,0.129204,0.256653,-0.232348,0.369527,-0.232348,0.000000,0.994308,MOVE,0,0,-0.043924,1.000000,0.250000,1,52.532
7.665883,0.043252,-0.023696,0.043460,1.123686,1.124776,0.426085,-0.296180,-0.069858,0.523594,-0.069858,0.000000,1.007175,MOVE,0,0,-0.046946,1.000000,0.250000,1,52.438
7.716469,0.050587,-0.013082,-0.081052,1.200451,1.203255,-0.041227,0.490615,0.006194,0.492383,0.006194,0.000000,1.089387,MOVE,0,0,-0.046632,1.000000,0.250000,1,52.556
7.759752,0.043283,-0.064424,-0.024364,1.178030,1.180042,0.273674,-0.632461,-0.055197,0.691340,-0.055197,0.000000,1.142486,MOVE,0,0,-0.049022,1.000000,0.250000,1,52.491
7.803475,0.043723,-0.060722,-0.024364,1.127098,1.128995,-0.069022,-0.115669,-0.314510,0.342140,-0.314510,0.000000,1.144334,MOVE,0,0,-0.062773,1.000000,0.250000,1,51.992
7.853709,0.050235,-0.040481,-0.078157,1.115644,1.119111,0.026884,-1.050598,-0.257088,1.081931,-0.257088,0.000000,1.137100,MOVE,0,0,-0.075688,1.000000,0.250000,1,51.279
7.903985,0.050276,-0.051095,-0.158727,1.159753,1.171679,-0.004270,-0.503569,-0.454398,0.678290,-0.454398,0.000000,1.177901,MOVE,0,0,-0.098533,1.000000,0.250000,1,50.462
7.947612,0.043627,0.019153,-0.081534,1.033275,1.036663,0.091941,-0.378036,-0.252202,0.463648,-0.252202,0.000000,1.093108,MOVE,0,0,-0.109536,1.000000,0.250000,1,49.758
7.991977,0.044365,-0.015551,-0.013509,1.045703,1.045906,0.055900,-0.058553,-0.284577,0.295868,-0.284577,0.000000,1.025113,MOVE,0,0,-0.122161,1.000000,0.250000,1,48.963
8.035917,0.043940,-0.031348,-0.090942,1.015485,1.020031,0.113322,-0.497765,-0.412248,0.656171,-0.412248,0.000000,0.940629,MOVE,0,0,-0.140275,1.000000,0.250000,1,47.862
8.079674,0.043756,-0.031842,0.000971,0.955535,0.956066,-0.018625,0.001617,-0.067415,0.069959,-0.067415,0.000000,0.807026,MOVE,0,0,-0.143225,1.000000,0.250000,1,47.470
8.123257,0.043584,-0.062943,-0.186950,1.074947,1.092896,0.111489,-0.157513,-0.012131,0.193358,-0.012131,0.000000,0.809930,MOVE,0,0,-0.143754,1.000000,0.250000,1,46.949
8.170401,0.047144,0.123647,0.020395,0.924342,0.932799,-0.076352,-0.106201,0.236796,0.270519,0.236796,0.000000,0.668456,MOVE,0,0,-0.132590,1.000000,0.250000,1,47.109
8.214824,0.044423,0.107888,0.001700,1.010855,1.016597,0.011307,0.234662,0.364772,0.433881,0.364772,0.000000,0.616548,MOVE,0,0,-0.116386,1.000000,0.250000,1,47.564
8.258393,0.043568,0.079765,-0.006996,0.785679,0.789748,-0.117585,-0.180115,0.263980,0.340519,0.263980,0.000000,0.365666,MOVE,0,0,-0.104885,1.000000,0.250000,1,47.897
8.301629,0.043237,0.071764,0.014810,0.915082,0.918011,-1.082753,-0.203023,0.396232,1.170714,0.396232,0.000000,0.255309,MOVE,0,0,-0.087753,1.000000,0.250000,1,48.735
8.351735,0.050105,0.143043,0.156601,1.181930,1.200809,-1.529906,-1.340759,0.706857,2.153577,0.706857,0.000000,0.410507,MOVE,0,0,-0.052336,1.000000,0.250000,1,50.273
8.402401,0.050666,0.195411,-0.106139,0.870485,0.898441,0.057427,-0.174618,-0.161488,0.244679,-0.161488,0.000000,0.278053,MOVE,0,0,-0.060518,1.000000,0.250000,1,49.980
8.445991,0.043590,0.093584,-0.094319,0.911183,0.920819,0.133480,-0.564044,0.198006,0.612511,0.198006,0.000000,0.178985,MOVE,0,0,-0.051887,1.000000,0.250000,1,50.294
8.490349,0.044357,0.053338,-0.070679,0.879015,0.883463,0.286196,0.208700,-0.115979,0.372713,-0.115979,0.000000,0.056203,MOVE,0,0,-0.057031,1.000000,0.250000,1,49.711
8.533961,0.043613,0.099403,-0.017368,0.741569,0.748404,0.767253,0.690978,-0.142857,1.042370,-0.142857,0.000000,-0.175854,MOVE,0,0,-0.063261,1.000000,0.250000,1,49.000
8.584986,0.051025,0.022063,0.009954,0.781048,0.781423,-0.155154,0.821704,0.228549,0.866894,0.228549,0.000000,-0.354988,MOVE,0,0,-0.051600,1.000000,0.250000,1,49.133
8.635460,0.050474,-0.003209,-0.047522,1.049846,1.050926,0.094996,0.026968,-0.030457,0.103340,-0.030457,0.000000,-0.273656,MOVE,0,0,-0.053137,1.000000,0.250000,1,48.666
8.679147,0.043687,0.168015,0.078422,0.821502,0.842167,-0.171647,0.230997,0.219081,0.361689,0.219081,0.000000,-0.388340,MOVE,0,0,-0.043566,1.000000,0.250000,1,48.529
8.722555,0.043409,0.121465,-0.036666,0.970645,0.978902,-0.246783,-0.153237,0.259398,0.389450,0.259398,0.000000,-0.368494,MOVE,0,0,-0.032306,1.000000,0.250000,1,48.767
8.773034,0.050478,0.022063,-0.073091,1.118081,1.120685,0.604763,0.325376,0.110958,0.695643,0.110958,0.000000,-0.223028,MOVE,0,0,-0.026705,1.000000,0.250000,1,48.503
8.816665,0.043631,0.012122,-0.094078,0.776174,0.781949,-0.460586,-0.243951,0.110042,0.532692,0.110042,0.000000,-0.396971,MOVE,0,0,-0.021904,1.000000,0.250000,1,48.362
8.859981,0.043316,-0.001975,-0.073333,1.058863,1.061401,-0.608110,-0.231734,-0.195696,0.679555,-0.195696,0.000000,-0.302013,MOVE,0,0,-0.030380,1.000000,0.250000,1,47.567
8.910594,0.050613,0.103524,0.045888,0.920199,0.927141,0.202202,-0.176450,-0.322146,0.419283,-0.322146,0.000000,-0.337385,MOVE,0,0,-0.046685,1.000000,0.250000,1,46.510
8.954166,0.043572,0.162681,-0.047763,0.925073,0.940482,0.474037,-0.127276,-0.217688,0.536934,-0.217688,0.000000,-0.357213,MOVE,0,0,-0.056170,1.000000,0.250000,1,45.816
8.998126,0.043960,0.053823,-0.106381,0.906552,0.914358,1.218988,-0.268996,-0.198751,1.264038,-0.198751,0.000000,-0.398569,MOVE,0,0,-0.064907,1.000000,0.250000,1,45.330
9.042051,0.043926,0.051883,0.001457,0.916788,0.918256,1.098036,-0.482188,-0.433018,1.275027,-0.433018,0.000000,-0.432282,MOVE,0,0,-0.083928,1.000000,0.250000,1,43.793
9.092866,0.050815,0.276631,-0.087324,1.046678,1.086133,0.943793,-0.471804,-0.408888,1.131607,-0.408888,0.000000,-0.311534,MOVE,0,0,-0.104706,1.000000,0.250000,1,42.697
9.136448,0.043582,0.129951,0.067011,0.966258,0.977257,1.067188,-0.360321,-0.092155,1.130138,-0.092155,0.000000,-0.300849,MOVE,0,0,-0.108722,1.000000,0.250000,1,42.025
9.187396,0.050947,0.216504,0.118726,0.914107,0.946869,0.857355,-0.073825,-0.160266,0.875325,-0.160266,0.000000,-0.318582,MOVE,0,0,-0.116887,1.000000,0.250000,1,40.981
9.231100,0.043704,0.196139,0.149803,1.041560,1.070401,0.705555,0.003450,-0.529840,0.882355,-0.529840,0.000000,-0.223362,MOVE,0,0,-0.140043,1.000000,0.250000,1,38.925
9.282110,0.051010,0.275661,0.263187,1.064468,1.130641,-0.389115,0.235884,-0.564048,0.724708,-0.564048,0.000000,-0.083450,MOVE,0,0,-0.168815,1.000000,0.250000,1,36.787
9.325607,0.043497,0.343788,0.182094,1.163652,1.226962,0.087971,0.670820,-0.081159,0.681414,-0.081159,0.000000,0.129161,MOVE,0,0,-0.172346,1.000000,0.250000,1,35.584
9.372843,0.047237,0.194684,0.188893,0.923124,0.962154,-0.222654,0.223056,0.354388,0.474257,0.354388,0.000000,0.082183,MOVE,0,0,-0.155606,1.000000,0.250000,1,35.342
9.416755,0.043912,0.152741,0.142034,1.004031,1.025467,-0.224487,0.224277,0.391956,0.504306,0.391956,0.000000,0.096885,MOVE,0,0,-0.138394,1.000000,0.250000,1,35.578
9.467492,0.050736,0.128011,0.167527,0.887544,0.912243,-0.221738,0.373634,0.555057,0.704882,0.555057,0.000000,0.008215,MOVE,1,1,-0.110232,1.447269,0.200496,1,35.787
9.511769,0.044277,0.140619,0.066040,1.002569,1.014534,-0.134384,0.316213,0.095686,0.356659,0.095686,0.000000,0.020474,MOVE,0,1,-0.105996,1.447269,0.200496,1,35.195
9.555300,0.043532,0.120253,0.143733,1.078846,1.095002,-0.116975,0.702890,0.375463,0.805425,0.375463,0.000000,0.103928,MOVE,0,1,-0.089651,1.447269,0.200496,1,35.157
9.599097,0.043797,0.077825,0.215843,1.037661,1.062726,-0.690272,0.162275,0.131727,0.721221,0.131727,0.000000,0.149988,MOVE,0,1,-0.083882,1.447269,0.200496,1,34.773
9.642590,0.043493,0.078795,0.078908,1.041317,1.047270,-0.443482,0.653716,0.122259,0.799355,0.122259,0.000000,0.177533,MOVE,0,1,-0.078564,1.447269,0.200496,1,34.663
9.686545,0.043956,-0.012342,0.150046,1.023527,1.034540,-0.185392,0.013223,-0.058863,0.194961,-0.058863,0.000000,0.190865,MOVE,0,1,-0.081152,1.447269,0.200496,1,34.046
9.733637,0.047091,0.065460,0.021609,1.047896,1.050161,-0.314895,0.224583,-0.237541,0.453896,-0.237541,0.000000,0.216924,MOVE,0,1,-0.092338,1.447269,0.200496,1,33.135
9.777475,0.043839,0.058672,0.009469,1.049359,1.051040,-0.014960,0.210228,-0.269917,0.342453,-0.269917,0.000000,0.241168,MOVE,0,1,-0.104171,1.447269,0.200496,1,32.179
9.821238,0.043762,0.012122,0.022823,1.077140,1.077450,-0.178977,0.335760,-0.207914,0.433585,-0.207914,0.000000,0.286756,MOVE,0,1,-0.113269,1.447269,0.200496,1,31.679
9.865010,0.043773,0.104252,0.177239,0.909720,0.932670,-0.201274,-0.177366,0.066670,0.276433,0.066670,0.000000,0.197483,MOVE,0,1,-0.110351,1.447269,0.200496,1,31.636
9.915465,0.050455,0.100858,-0.065372,0.754729,0.764239,1.120333,1.443259,0.020550,1.827174,0.020550,0.000000,-0.034450,MOVE,1,2,-0.109314,1.894583,0.151402,1,31.402
9.958686,0.043221,0.128981,0.094446,1.007199,1.019807,-0.191806,-0.677971,-0.049089,0.706288,-0.049089,0.000000,-0.013178,MOVE,0,2,-0.111436,1.894583,0.151402,1,30.930
10.010066,0.051380,0.107646,-0.019781,0.885594,0.892332,0.050402,-0.236620,0.133254,0.276200,0.133254,0.000000,-0.108762,MOVE,0,2,-0.104589,1.894583,0.151402,1,31.127
10.053490,0.043425,0.079765,0.028164,1.074947,1.078270,-0.209521,-0.287933,0.164103,0.392090,0.164103,0.000000,-0.027443,MOVE,0,2,-0.097463,1.894583,0.151402,1,31.369
10.096265,0.042775,0.113222,0.054143,0.954804,0.963017,0.085222,0.057206,0.252679,0.272730,0.252679,0.000000,-0.057983,MOVE,0,2,-0.086655,1.894583,0.151402,1,31.832
10.138728,0.042463,0.174319,-0.194669,0.854645,0.893701,0.657297,0.342480,0.154024,0.757004,0.154024,0.000000,-0.147854,MOVE,0,2,-0.080115,1.894583,0.151402,1,32.412
10.181930,0.043202,0.101827,0.087891,1.083720,1.092036,0.769085,-0.031981,0.269172,0.815456,0.269172,0.000000,-0.050236,MOVE,0,2,-0.068486,1.894583,0.151402,1,33.070
10.233552,0.051622,0.163651,0.157087,0.944082,0.970952,0.651188,0.099966,0.300632,0.724168,0.300632,0.000000,-0.071356,MOVE,0,2,-0.052967,1.894583,0.151402,1,33.509
10.277026,0.043474,0.051641,0.114355,1.096636,1.103791,0.267870,-0.264109,0.153108,0.406141,0.153108,0.000000,0.029191,MOVE,0,2,-0.046311,1.894583,0.151402,1,33.379
10.320182,0.043156,0.112737,0.164371,1.032300,1.051366,0.576968,0.864159,0.031851,1.039556,0.031851,0.000000,0.072502,MOVE,0,2,-0.044936,1.894583,0.151402,1,33.232
10.370317,0.050135,0.046550,0.139606,1.042048,1.052388,0.136840,-0.241202,-0.015186,0.277730,-0.015186,0.000000,0.112401,MOVE,0,2,-0.045697,1.894583,0.151402,1,32.495
10.421138,0.050821,0.142801,0.225797,1.002569,1.037555,-0.438901,0.030022,0.168685,0.471158,0.168685,0.000000,0.134960,MOVE,0,2,-0.037125,1.894583,0.151402,1,32.115
10.464681,0.043543,0.051641,0.175296,1.012317,1.028679,0.432804,0.021470,0.029713,0.434354,0.029713,0.000000,0.147275,MOVE,0,2,-0.035831,1.894583,0.151402,1,31.458
10.516789,0.052109,0.044852,0.238665,1.039854,1.067834,0.167689,-0.211575,0.059034,0.276348,0.059034,0.000000,0.193599,MOVE,0,2,-0.032755,1.894583,0.151402,1,30.770
10.559981,0.043191,0.064491,0.199333,1.111989,1.131553,-0.315811,-0.354823,0.036738,0.476430,0.036738,0.000000,0.292636,MOVE,0,2,-0.031168,1.894583,0.151402,1,30.090
10.603570,0.043590,0.103282,0.129651,0.939208,0.953723,-0.503347,-0.079628,-0.003885,0.509621,-0.003885,0.000000,0.221723,MOVE,0,2,-0.031337,1.894583,0.151402,1,29.433
10.654020,0.050450,0.114677,0.136692,0.934821,0.951696,-0.160346,0.059649,0.013525,0.171615,0.013525,0.000000,0.156078,MOVE,0,2,-0.030655,1.894583,0.151402,1,29.008
10.697438,0.043418,0.145952,0.169469,0.881939,0.909856,0.028106,0.211449,0.048344,0.218719,0.048344,0.000000,0.059340,MOVE,0,2,-0.028556,1.894583,0.151402,1,28.878
10.740640,0.043202,0.151286,0.134507,1.028644,1.048374,0.553450,-0.158430,0.201366,0.609881,0.201366,0.000000,0.096943,MOVE,0,2,-0.019856,1.894583,0.151402,1,28.976
10.783977,0.043336,0.094796,0.112899,1.095661,1.105534,-0.229068,-0.396667,0.076139,0.464343,0.076139,0.000000,0.182230,MOVE,0,2,-0.016557,1.894583,0.151402,1,28.636
10.834359,0.050383,0.107161,-0.102521,0.979174,0.990341,-0.781596,0.516271,-0.143773,0.947681,-0.143773,0.000000,0.155314,MOVE,0,2,-0.023801,1.894583,0.151402,1,28.237
10.877510,0.043150,0.102797,0.052686,0.994283,1.000971,-0.448980,0.392265,-0.156601,0.616424,-0.156601,0.000000,0.140656,MOVE,0,2,-0.030558,1.894583,0.151402,1,27.678
10.920783,0.043273,0.072249,0.216814,1.065686,1.089915,-0.725702,0.030022,-0.203332,0.754247,-0.203332,0.000000,0.207514,MOVE,0,2,-0.039357,1.894583,0.151402,1,27.069
10.964997,0.044215,0.140134,0.108285,0.987947,1.003694,-0.473720,0.011696,-0.116589,0.487996,-0.116589,0.000000,0.190088,MOVE,0,2,-0.044512,1.894583,0.151402,1,26.736
11.016621,0.051624,0.073704,-0.020987,1.071535,1.074272,-0.523505,-0.176450,-0.334363,0.645748,-0.334363,0.000000,0.237924,MOVE,0,2,-0.061773,1.894583,0.151402,1,26.165
11.059842,0.043221,0.173591,-0.074298,0.949199,0.967798,-0.195165,-0.188667,-0.545417,0.609233,-0.545417,0.000000,0.185150,MOVE,0,2,-0.085346,1.894583,0.151402,1,25.166
11.103474,0.043632,0.280752,-0.176095,0.964065,1.019437,0.022914,-0.248532,-0.759220,0.799192,-0.759220,0.000000,0.184128,MOVE,0,2,-0.118472,1.894583,0.151402,1,23.914
11.153657,0.050183,0.292147,-0.048728,1.046922,1.088012,0.644163,-0.600391,-0.531978,1.028793,-0.531978,0.000000,0.244926,MOVE,0,2,-0.145169,1.894583,0.151402,1,22.762
11.204745,0.051088,0.345728,0.146161,0.934577,1.007137,-0.363153,0.695255,-0.231432,0.817814,-0.231432,0.000000,0.226857,MOVE,0,2,-0.156992,1.894583,0.151402,1,22.326
11.254951,0.050206,0.062793,-0.291401,1.131241,1.169856,0.320710,-0.395445,-1.035025,1.153477,-1.035025,0.000000,0.357042,MOVE,0,2,-0.208957,1.894583,0.151402,1,20.074
11.305760,0.050809,0.196381,0.174325,0.604612,0.659174,0.056206,0.109740,-1.165445,1.171949,-1.165445,0.000000,0.014594,MOVE,1,3,-0.268172,2.328498,0.032166,1,17.726
11.349359,0.043599,0.151286,0.118240,1.146594,1.162560,0.110878,1.089263,-0.720430,1.310651,-0.720430,0.000000,0.159438,MOVE,0,3,-0.299582,2.328498,0.032166,1,16.328
11.392855,0.043496,0.180865,0.279211,0.869267,0.930750,-0.292598,-0.036257,-0.440959,0.530446,-0.440959,0.000000,0.081170,MOVE,0,3,-0.318762,2.328498,0.032166,1,15.491
11.436007,0.043152,0.172137,0.247648,0.968939,1.014792,-0.145380,0.840640,0.212667,0.879226,0.212667,0.000000,0.086365,MOVE,0,3,-0.309585,2.328498,0.032166,1,16.405
11.479125,0.043118,0.060369,0.223126,1.027670,1.053344,0.126455,-0.109866,0.387069,0.421763,0.387069,0.000000,0.125739,MOVE,0,3,-0.292895,2.328498,0.032166,1,17.882
11.530170,0.051044,0.086553,0.198847,0.862199,0.889055,0.119736,0.005588,0.671732,0.682343,0.671732,0.000000,0.013315,MOVE,0,3,-0.258607,2.328498,0.032166,1,19.916
11.573309,0.043139,0.034670,0.136449,1.019628,1.029301,-0.382701,1.022678,0.882786,1.404152,0.882786,0.000000,0.038354,MOVE,0,3,-0.220524,2.328498,0.032166,1,22.678
11.616673,0.043364,-0.083924,-0.051140,1.320593,1.324245,-0.409274,0.180906,0.364772,0.577313,0.364772,0.000000,0.326340,MOVE,0,3,-0.204706,2.328498,0.032166,1,24.368
11.659642,0.042969,-0.033323,0.033263,0.990628,0.991746,0.526572,-0.337413,0.459762,0.776213,0.459762,0.000000,0.286277,MOVE,0,3,-0.184950,2.328498,0.032166,1,25.936
11.703563,0.043921,-0.030608,0.181123,1.202888,1.216832,-0.301151,0.228248,0.417307,0.562969,0.417307,0.000000,0.452798,MOVE,0,3,-0.166622,2.328498,0.032166,1,27.615
11.747196,0.043633,0.079765,0.106829,0.886082,0.896056,-0.095594,-0.213102,0.394399,0.458368,0.394399,0.000000,0.313969,MOVE,0,3,-0.149413,2.328498,0.032166,1,29.583
11.799479,0.052282,-0.024684,-0.064890,1.031081,1.033416,-0.044282,-0.374371,0.329648,0.500781,0.329648,0.000000,0.312646,MOVE,0,3,-0.132178,2.328498,0.032166,1,31.155
11.846425,0.046946,0.022547,0.016753,0.975762,0.976166,-0.173174,0.243214,0.274059,0.405279,0.274059,0.000000,0.259931,MOVE,0,3,-0.119312,2.328498,0.032166,1,32.471
11.890233,0.043808,0.080250,0.129166,0.943838,0.956009,0.737626,-0.415604,0.512296,0.989579,0.512296,0.000000,0.194347,MOVE,0,3,-0.096870,2.328498,0.032166,1,33.997
11.933717,0.043484,0.028851,0.319515,1.060081,1.107562,0.219918,-0.253419,0.434716,0.549148,0.434716,0.000000,0.271718,MOVE,0,3,-0.077966,2.328498,0.032166,1,35.554
11.977457,0.043740,0.017214,0.179181,1.014510,1.030356,0.390654,-0.375592,0.243821,0.594247,0.243821,0.000000,0.271866,MOVE,0,3,-0.067301,2.328498,0.032166,1,36.736
12.028846,0.051389,-0.021228,0.232110,1.078846,1.103736,0.514355,-0.469360,0.103933,0.704032,0.103933,0.000000,0.338043,MOVE,0,3,-0.061960,2.328498,0.032166,1,37.440
12.072241,0.043395,0.285359,0.029863,1.020846,1.060400,-0.095289,0.638749,-0.413470,0.766837,-0.413470,0.000000,0.358598,MOVE,0,3,-0.079903,2.328498,0.032166,1,37.272
12.123063,0.050822,-0.123911,-0.090701,0.912888,0.925714,-0.258084,0.804905,-0.507849,0.986098,-0.507849,0.000000,0.255881,MOVE,0,3,-0.105713,2.328498,0.032166,1,36.931
12.166716,0.043652,0.100615,0.061184,1.043754,1.050375,0.013140,0.076143,-0.431185,0.438054,-0.431185,0.000000,0.275630,MOVE,0,3,-0.124535,2.328498,0.032166,1,36.390
12.217874,0.051158,0.018668,0.084006,0.898754,0.902865,-0.650871,0.244436,-0.405834,0.805036,-0.405834,0.000000,0.160645,MOVE,0,3,-0.145297,2.328498,0.032166,1,36.461
12.261205,0.043331,0.125587,0.069681,1.072266,1.081842,-0.719899,0.241993,0.038265,0.760446,0.038265,0.000000,0.218239,MOVE,0,3,-0.143639,2.328498,0.032166,1,37.437
12.311881,0.050676,0.002424,-0.027017,1.023770,1.024130,-0.940116,-0.002048,-0.071691,0.942847,-0.071691,0.000000,0.218132,MOVE,0,3,-0.147272,2.328498,0.032166,1,38.160
12.355476,0.043596,-0.071582,-0.010614,0.998670,1.001288,-0.158513,-0.374371,-0.208219,0.456766,-0.208219,0.000000,0.197478,MOVE,0,3,-0.156349,2.328498,0.032166,1,38.555
12.406683,0.051207,0.009698,-0.126402,0.978443,0.986622,-0.127970,-0.344438,-0.178898,0.408679,-0.178898,0.000000,0.165689,MOVE,0,3,-0.165510,2.328498,0.032166,1,39.208
12.450177,0.043494,0.042428,0.033263,0.984779,0.986254,-0.058332,-0.199052,-0.046645,0.212603,-0.046645,0.000000,0.136749,MOVE,0,3,-0.167539,2.328498,0.032166,1,40.084
12.501118,0.050942,0.016244,-0.085394,0.984048,0.987880,-0.000595,-0.179791,-0.015531,0.180461,-0.015531,0.000000,0.112166,MOVE,0,3,-0.168330,2.328498,0.032166,1,41.134
12.544733,0.043615,0.069097,-0.162586,1.077140,1.091531,-0.333211,0.123198,0.481408,0.598298,0.481408,0.000000,0.183327,MOVE,0,3,-0.147333,2.328498,0.032166,1,43.431
12.595695,0.050962,-0.032335,0.005341,1.100048,1.100536,-0.327408,-0.576853,0.525695,0.846352,0.525695,0.000000,0.255476,MOVE,0,3,-0.120543,2.328498,0.032166,1,45.692
12.639270,0.043574,-0.007158,0.001700,1.086888,1.086913,-0.157587,-0.319374,0.641760,0.733954,0.641760,0.000000,0.308150,MOVE,0,3,-0.092579,2.328498,0.032166,1,47.559
12.690317,0.051048,0.110555,-0.011338,1.043754,1.049653,-0.213176,-0.247597,0.135658,0.353767,0.135658,0.000000,0.322023,MOVE,0,3,-0.085653,2.328498,0.032166,1,48.479
12.733803,0.043486,0.144983,-0.155832,0.956510,0.979906,0.186025,-0.016690,0.390083,0.432491,0.390083,0.000000,0.271736,MOVE,0,3,-0.068690,2.328498,0.032166,1,49.904
12.784530,0.050727,0.134557,-0.034737,1.005493,1.015051,-0.255936,-0.008443,0.181167,0.313682,0.181167,0.000000,0.258109,MOVE,0,3,-0.059500,2.328498,0.032166,1,50.957
12.829343,0.044813,0.112980,-0.051864,1.007199,1.014842,-0.275179,0.273166,0.254471,0.463787,0.254471,0.000000,0.245655,MOVE,0,3,-0.048097,2.328498,0.032166,1,51.989
12.872962,0.043619,0.103040,-0.105657,1.016947,1.027600,-0.218368,0.260643,0.255082,0.425072,0.255082,0.000000,0.245930,MOVE,0,3,-0.036970,2.328498,0.032166,1,53.145
12.923341,0.050379,0.065703,-0.091425,1.021821,1.028005,-0.171637,0.166570,0.171394,0.294246,0.171394,0.000000,0.246541,MOVE,0,3,-0.028336,2.328498,0.032166,1,54.069
12.966483,0.043142,0.087765,-0.148595,1.012804,1.027402,0.117302,0.230405,0.099311,0.276964,0.099311,0.000000,0.246549,MOVE,0,3,-0.024051,2.328498,0.032166,1,54.811
13.014667,0.048184,0.055520,-0.103245,0.988922,0.995846,0.058092,0.073583,-0.435710,0.445682,-0.435710,0.000000,0.218155,MOVE,0,3,-0.045045,2.328498,0.032166,1,54.387
13.058388,0.043722,0.100858,-0.150043,0.956510,0.973446,0.339090,-0.136860,-0.328197,0.491351,-0.328197,0.000000,0.172441,MOVE,0,3,-0.059395,2.328498,0.032166,1,54.180
13.101998,0.043610,0.170439,-0.057412,1.051308,1.066581,0.070615,0.444378,-0.436015,0.626552,-0.436015,0.000000,0.215119,MOVE,0,3,-0.078409,2.328498,0.032166,1,53.646
13.145376,0.043378,0.109101,-0.161139,0.915813,0.936259,-0.004522,0.553112,-0.261919,0.612009,-0.261919,0.000000,0.136241,MOVE,0,3,-0.089771,2.328498,0.032166,1,53.593
13.188861,0.043485,0.056247,-0.136293,1.031812,1.042294,0.543730,0.046094,0.154386,0.567099,0.154386,0.000000,0.160681,MOVE,0,3,-0.083057,2.328498,0.032166,1,54.596
13.239640,0.050778,0.109101,-0.059583,1.075922,1.083079,0.326873,0.027157,0.136366,0.355216,0.136366,0.000000,0.219384,MOVE,0,3,-0.076133,2.328498,0.032166,1,55.624
13.283035,0.043395,0.110555,-0.072127,1.093711,1.101649,-0.054307,0.131004,0.353223,0.380628,0.353223,0.000000,0.288930,MOVE,0,3,-0.060805,2.328498,0.032166,1,57.039
13.326508,0.043473,0.048489,-0.050899,1.009392,1.011837,-0.300181,0.134059,0.186151,0.377799,0.186151,0.000000,0.270690,MOVE,0,3,-0.052712,2.328498,0.032166,1,58.125
13.377011,0.050503,0.087765,-0.123025,0.959435,0.971263,-0.125917,0.031481,0.008607,0.130077,0.008607,0.000000,0.217758,MOVE,0,3,-0.052277,2.328498,0.032166,1,58.805
13.420686,0.043676,0.160499,-0.027017,1.064224,1.076598,-0.160736,0.244978,0.094128,0.307751,0.094128,0.000000,0.264920,MOVE,0,3,-0.048166,2.328498,0.032166,1,59.569
13.471251,0.050565,0.059157,-0.063684,0.869998,0.874329,-0.332695,0.345160,-0.084550,0.486795,-0.084550,0.000000,0.125325,MOVE,0,3,-0.052441,2.328498,0.032166,1,60.017
13.515110,0.043859,0.038549,-0.146183,0.886082,0.898886,0.159968,-0.313047,0.280442,0.449707,0.280442,0.000000,0.021790,MOVE,1,4,-0.040142,2.778136,0.014107,1,61.433
13.565592,0.050481,0.153711,-0.005548,1.109795,1.120403,0.070171,0.038811,0.011356,0.080989,0.011356,0.000000,0.127974,MOVE,0,4,-0.039568,2.778136,0.014107,1,62.170
13.609571,0.043980,0.096009,-0.184055,0.955535,0.977825,0.046347,-0.376883,-0.076914,0.387433,-0.076914,0.000000,0.095219,MOVE,0,4,-0.042951,2.778136,0.014107,1,62.552
13.660192,0.050621,0.109343,-0.107587,1.181442,1.191359,0.046347,-0.618785,-0.312708,0.694860,-0.312708,0.000000,0.257920,MOVE,0,4,-0.058780,2.778136,0.014107,1,62.529
13.703639,0.043447,0.086068,-0.110481,1.238224,1.246119,0.009085,-0.621840,-0.288274,0.685470,-0.288274,0.000000,0.453635,MOVE,0,4,-0.071305,2.778136,0.014107,1,62.414
13.746988,0.043349,0.134073,-0.057894,1.184610,1.193578,-0.275273,-0.430333,-0.163657,0.536420,-0.163657,0.000000,0.582492,MOVE,0,4,-0.078399,2.778136,0.014107,1,62.441
13.800126,0.053138,0.071522,-0.073091,1.166821,1.171293,-0.083462,0.045225,0.019297,0.096869,0.019297,0.000000,0.678407,MOVE,0,4,-0.077374,2.778136,0.014107,1,62.642
13.850544,0.050418,-0.002222,-0.070438,0.937014,0.939661,0.214641,-0.307550,-0.156938,0.406555,-0.156938,0.000000,0.556261,MOVE,0,4,-0.085286,2.778136,0.014107,1,62.495
13.901200,0.050656,0.083644,-0.092631,0.989897,0.997733,0.202729,-0.445300,0.030903,0.490251,0.030903,0.000000,0.498595,MOVE,0,4,-0.083721,2.778136,0.014107,1,62.714
13.944844,0.043644,0.095039,-0.049693,0.997207,1.002958,0.255569,-0.034187,0.232489,0.347182,0.232489,0.000000,0.451397,MOVE,0,4,-0.073574,2.778136,0.014107,1,63.308
13.995693,0.050849,0.092857,-0.030877,0.935065,0.940171,0.219222,0.001854,0.340001,0.404552,0.340001,0.000000,0.352412,MOVE,0,4,-0.056286,2.778136,0.014107,1,64.081
14.039490,0.043797,0.137467,-0.042456,0.890225,0.901776,-0.039174,0.124638,0.753557,0.764799,0.753557,0.000000,0.228769,MOVE,0,4,-0.023282,2.778136,0.014107,1,66.022
14.090171,0.050681,0.073219,-0.039320,1.041560,1.044871,0.109266,0.466111,0.740118,0.881461,0.740118,0.000000,0.246276,MOVE,0,4,0.014228,2.778136,0.014107,1,67.424
14.133703,0.043532,0.031276,-0.044868,0.911426,0.913066,0.373160,0.265747,0.364436,0.585392,0.364436,0.000000,0.143407,MOVE,0,4,0.030092,2.778136,0.014107,1,68.047
14.184416,0.050714,0.069097,0.042003,0.902409,0.906025,0.159968,-0.005171,0.211720,0.265409,0.211720,0.000000,0.044489,MOVE,0,4,0.040829,2.778136,0.014107,1,68.330
14.229007,0.044590,0.144498,-0.001206,0.894855,0.906447,-0.384007,0.363486,0.188201,0.561252,0.188201,0.000000,-0.044158,MOVE,0,4,0.049221,2.778136,0.014107,1,68.557
14.272627,0.043621,0.084371,-0.075021,0.895099,0.902191,-0.210827,0.455116,0.115203,0.514636,0.115203,0.000000,-0.127770,MOVE,0,4,0.054246,2.778136,0.014107,1,68.546
14.323130,0.050503,0.099403,-0.078881,0.855863,0.865220,0.252820,-0.030828,-0.243986,0.352700,-0.243986,0.000000,-0.236295,MOVE,0,4,0.041924,2.778136,0.014107,1,67.902
14.366155,0.043025,0.166075,-0.022675,1.051552,1.064827,0.133090,-0.280061,-0.276667,0.415562,-0.276667,0.000000,-0.154322,MOVE,0,4,0.030021,2.778136,0.014107,1,67.238
14.409628,0.043473,0.144740,-0.059583,1.156829,1.167370,0.032908,-0.178962,-0.099822,0.207545,-0.099822,0.000000,0.011744,MOVE,1,5,0.025681,3.227987,0.025663,1,66.924
14.453197,0.043570,0.039034,0.001457,1.319862,1.320440,-0.013517,-0.420254,-0.198782,0.465092,-0.198782,0.000000,0.298965,MOVE,0,5,0.017021,3.227987,0.025663,1,66.264
14.503974,0.050777,0.109101,-0.133880,1.197770,1.210157,-0.578568,-0.199732,-0.321871,0.691545,-0.321871,0.000000,0.458210,MOVE,0,5,0.000677,3.227987,0.025663,1,65.399
14.547573,0.043599,0.118798,-0.161621,1.404425,1.418677,-0.203802,0.215657,0.043426,0.299881,0.043426,0.000000,0.789198,MOVE,0,5,0.002570,3.227987,0.025663,1,65.156
14.598306,0.050733,0.019153,-0.095767,1.068123,1.072579,-0.196777,0.070576,-0.311181,0.374881,-0.311181,0.000000,0.775599,MOVE,0,5,-0.013217,3.227987,0.025663,1,64.147
14.641832,0.043526,0.035640,-0.126161,0.931653,0.940832,0.045736,-0.724160,-0.428467,0.842664,-0.428467,0.000000,0.644788,MOVE,0,5,-0.031866,3.227987,0.025663,1,63.055
14.692636,0.050803,0.161469,-0.124955,0.937502,0.959477,0.030159,-0.549452,-0.302324,0.627859,-0.302324,0.000000,0.543838,MOVE,0,5,-0.047225,3.227987,0.025663,1,62.398
14.736187,0.043551,0.143043,-0.103968,1.020602,1.035809,0.192828,0.098131,-0.003442,0.216389,-0.003442,0.000000,0.521682,MOVE,0,5,-0.047375,3.227987,0.025663,1,62.266
14.779716,0.043530,0.051156,-0.088047,0.869267,0.875211,0.077876,0.101287,0.002021,0.127780,0.002021,0.000000,0.357204,MOVE,0,5,-0.047287,3.227987,0.025663,1,62.134
14.821548,0.041831,0.065218,-0.104933,0.863174,0.871971,-0.042918,-0.192507,0.059073,0.205890,0.059073,0.000000,0.206258,MOVE,0,5,-0.044816,3.227987,0.025663,1,62.229
14.865206,0.043658,0.120253,-0.105174,0.870973,0.885503,-0.198173,0.172355,0.300296,0.398944,0.300296,0.000000,0.082585,MOVE,0,5,-0.031706,3.227987,0.025663,1,62.858
14.915808,0.050602,0.063036,-0.117718,0.931166,0.940692,0.098097,0.380660,0.430716,0.583131,0.430716,0.000000,0.020949,MOVE,1,6,-0.009911,3.677965,0.021203,1,63.590
14.959285,0.043478,0.102555,-0.096732,0.833687,0.845523,0.546472,0.362334,0.335726,0.736634,0.335726,0.000000,-0.120176,MOVE,0,6,0.004686,3.677965,0.021203,1,64.150
15.003299,0.044014,0.119041,-0.048486,0.751561,0.762473,-0.029574,0.334234,0.216913,0.399548,0.216913,0.000000,-0.321932,MOVE,0,6,0.014233,3.677965,0.021203,1,64.420
15.050217,0.046918,0.157832,-0.061271,0.946519,0.961542,-0.042096,0.132038,0.135973,0.194152,0.135973,0.000000,-0.324352,MOVE,0,6,0.020612,3.677965,0.021203,1,64.618
15.093487,0.043270,0.162681,-0.090218,1.025720,1.042452,0.382123,-0.083009,0.018663,0.391480,0.018663,0.000000,-0.253709,MOVE,0,6,0.021420,3.677965,0.021203,1,64.639
15.136293,0.042807,0.126799,-0.007960,1.184367,1.191162,0.156182,0.062230,-0.018287,0.169115,-0.018287,0.000000,-0.056293,MOVE,0,6,0.020637,3.677965,0.021203,1,64.499
15.179098,0.042805,0.048732,-0.000000,1.193627,1.194622,-0.123900,0.136450,-0.310281,0.360893,-0.310281,0.000000,0.124496,MOVE,0,6,0.007356,3.677965,0.021203,1,63.819
15.222855,0.043757,0.042186,-0.105416,1.113207,1.118983,-0.193539,-0.076131,-0.217429,0.300880,-0.217429,0.000000,0.219131,MOVE,0,6,-0.002158,3.677965,0.021203,1,63.441
15.265975,0.043120,0.093099,-0.082499,1.336190,1.341968,0.292710,0.510300,0.150617,0.607265,0.150617,0.000000,0.504988,MOVE,0,6,0.004336,3.677965,0.021203,1,63.892
15.316643,0.050668,-0.030114,-0.029188,1.207762,1.208489,0.411524,0.456238,0.176579,0.639285,0.176579,0.000000,0.642130,MOVE,0,6,0.013283,3.677965,0.021203,1,64.326
15.359780,0.043137,-0.049614,-0.014715,0.964796,0.966183,0.360516,-0.206245,-0.097700,0.426678,-0.097700,0.000000,0.547481,MOVE,0,6,0.009069,3.677965,0.021203,1,64.272
15.403272,0.043493,0.013819,-0.009649,0.982342,0.982487,0.182755,-0.669892,0.024168,0.694794,0.024168,0.000000,0.476971,MOVE,0,6,0.010120,3.677965,0.021203,1,64.491
15.446484,0.043212,0.057217,0.034234,1.007930,1.010133,-0.120316,-0.034611,0.090729,0.154614,0.090729,0.000000,0.438394,MOVE,0,6,0.014040,3.677965,0.021203,1,64.801
15.497106,0.050622,0.048974,-0.016162,0.841729,0.843307,-0.036627,-0.136626,0.363174,0.389749,0.363174,0.000000,0.253531,MOVE,0,6,0.032425,3.677965,0.021203,1,65.603
15.540473,0.043366,0.104252,-0.006031,0.870973,0.877210,-0.364662,-0.100585,0.555902,0.672401,0.555902,0.000000,0.117667,MOVE,0,6,0.056533,3.677965,0.021203,1,66.738
15.583653,0.043180,0.091645,-0.028947,0.883888,0.889098,-0.256844,0.340460,0.402575,0.586471,0.402575,0.000000,0.006089,MOVE,1,7,0.073916,4.126737,0.054435,1,67.896
15.637556,0.053904,0.088735,-0.032324,0.863905,0.869052,0.065998,0.219508,0.344543,0.413823,0.344543,0.000000,-0.112373,MOVE,0,7,0.092488,4.126737,0.054435,1,68.514
15.680954,0.043398,0.124132,0.021123,0.897535,0.906325,-0.069645,0.058462,0.152867,0.177867,0.152867,0.000000,-0.185443,MOVE,0,7,0.099122,4.126737,0.054435,1,68.722
15.731516,0.050562,0.144255,0.000243,0.983561,0.994083,-0.371441,-0.079914,-0.007659,0.380017,-0.007659,0.000000,-0.172224,MOVE,0,7,0.098735,4.126737,0.054435,1,68.724
15.781771,0.050256,0.145225,-0.086841,1.026939,1.040786,-0.148781,-0.188342,-0.015295,0.240504,-0.015295,0.000000,-0.118295,MOVE,0,7,0.097966,4.126737,0.054435,1,68.786
15.825225,0.043454,0.110070,-0.085635,1.142451,1.150931,0.129268,-0.126778,-0.008131,0.181243,-0.008131,0.000000,0.029373,MOVE,0,7,0.097613,4.126737,0.054435,1,68.890
15.869708,0.044483,0.038064,-0.041008,1.273803,1.275032,-0.044829,-0.109674,0.148250,0.189779,0.148250,0.000000,0.273964,MOVE,0,7,0.104207,4.126737,0.054435,1,69.239
15.912964,0.043256,0.113222,-0.055482,1.181199,1.187909,-0.473351,0.062285,-0.174592,0.508353,-0.174592,0.000000,0.415686,MOVE,0,7,0.096655,4.126737,0.054435,1,68.919
15.956059,0.043094,0.082674,-0.223858,1.287938,1.309859,0.141180,0.215306,0.150999,0.298478,0.150999,0.000000,0.652990,MOVE,0,7,0.103163,4.126737,0.054435,1,69.226
15.999250,0.043191,-0.012835,-0.059342,1.209711,1.211234,0.365367,-0.094708,-0.196583,0.425567,-0.196583,0.000000,0.777802,MOVE,0,7,0.094672,4.126737,0.054435,1,68.802
16.046526,0.047277,0.048004,-0.041250,1.009636,1.011618,0.168058,-0.304234,-0.440624,0.561205,-0.440624,0.000000,0.710478,MOVE,0,7,0.073841,4.126737,0.054435,1,67.891
16.089639,0.043112,0.066673,-0.101797,0.947737,0.955517,-0.044523,-0.740392,-0.345940,0.818436,-0.345940,0.000000,0.599396,MOVE,0,7,0.058926,4.126737,0.054435,1,67.296
16.133146,0.043507,0.160984,-0.179472,1.003787,1.032335,-0.002068,-0.422131,-0.069218,0.427774,-0.069218,0.000000,0.568557,MOVE,0,7,0.055915,4.126737,0.054435,1,67.290
16.176192,0.043046,0.107888,-0.110481,0.947737,0.960235,0.154913,-0.010182,0.141819,0.210272,0.141819,0.000000,0.475913,MOVE,0,7,0.062020,4.126737,0.054435,1,67.687
16.220371,0.044180,0.065218,-0.056688,0.813460,0.818037,0.212334,0.132760,0.237725,0.345289,0.237725,0.000000,0.264555,MOVE,0,7,0.072522,4.126737,0.054435,1,68.185
16.263517,0.043146,0.048974,-0.058377,0.835880,0.839346,-0.193891,0.156890,0.103945,0.270209,0.103945,0.000000,0.093511,MOVE,0,7,0.077007,4.126737,0.054435,1,68.326
16.307009,0.043492,0.093342,-0.039561,0.813947,0.820237,-0.265363,0.191709,-0.027085,0.328486,-0.027085,0.000000,-0.077627,MOVE,0,7,0.075829,4.126737,0.054435,1,68.139
16.357493,0.050484,0.103767,-0.091425,0.829300,0.840753,-0.136775,0.236913,0.104556,0.292861,0.104556,0.000000,-0.213187,MOVE,0,7,0.081107,4.126737,0.054435,1,68.184
16.401028,0.043536,0.131163,-0.046798,0.948712,0.958878,0.014526,0.278171,-0.157874,0.320179,-0.157874,0.000000,-0.228878,MOVE,0,7,0.074234,4.126737,0.054435,1,67.767
16.451509,0.050480,0.113707,-0.092631,0.939695,0.951071,-0.120781,0.083611,-0.162761,0.219248,-0.162761,0.000000,-0.250026,MOVE,0,7,0.066018,4.126737,0.054435,1,67.439
16.495690,0.044182,0.100130,-0.093113,1.067880,1.076598,-0.107647,-0.019626,-0.209186,0.236076,-0.209186,0.000000,-0.156085,MOVE,0,7,0.056776,4.126737,0.054435,1,67.142
16.539804,0.044113,0.064976,-0.082017,1.150737,1.155484,-0.056820,0.130271,-0.170515,0.221979,-0.170515,0.000000,-0.000541,MOVE,1,8,0.049254,4.576191,0.076590,1,66.881
16.583135,0.043331,0.067885,-0.101556,1.155610,1.162049,-0.043992,0.274435,-0.041317,0.280993,-0.041317,0.000000,0.145357,MOVE,0,8,0.047464,4.576191,0.076590,1,66.864
16.633704,0.050570,0.019638,-0.059342,1.238224,1.239800,0.112084,0.529472,0.071998,0.545973,0.071998,0.000000,0.346642,MOVE,0,8,0.051105,4.576191,0.076590,1,67.129
16.677404,0.043700,-0.081209,-0.075986,1.090543,1.096200,0.333828,0.166007,0.032903,0.374276,0.032903,0.000000,0.398557,MOVE,0,8,0.052542,4.576191,0.076590,1,67.385
16.720843,0.043439,-0.056525,-0.014474,0.982098,0.983830,0.374145,-0.454021,-0.190368,0.618353,-0.190368,0.000000,0.344149,MOVE,0,8,0.044273,4.576191,0.076590,1,67.342
16.771298,0.050454,0.143043,-0.006513,1.021577,1.031564,0.038169,-0.294280,0.259534,0.394228,0.259534,0.000000,0.338141,MOVE,0,8,0.057368,4.576191,0.076590,1,68.314
16.820149,0.048851,0.120738,-0.034495,0.905821,0.914483,-0.182658,-0.060319,0.719821,0.745080,0.719821,0.000000,0.227362,MOVE,0,8,0.092532,4.576191,0.076590,1,70.254
16.863739,0.043591,0.069582,-0.074539,0.871704,0.877647,-0.028415,0.036503,0.809618,0.810939,0.809618,0.000000,0.094508,MOVE,0,8,0.127824,4.576191,0.076590,1,72.633
16.914498,0.050759,0.036609,-0.022916,0.866586,0.867662,-0.028415,0.050859,0.449208,0.452970,0.449208,0.000000,-0.034047,MOVE,1,9,0.150625,5.021096,0.144115,1,73.756
16.958515,0.044017,0.059157,-0.061995,0.807855,0.812387,-0.267569,0.133631,0.198448,0.358931,0.198448,0.000000,-0.199494,MOVE,0,9,0.159360,5.021096,0.144115,1,74.310
17.003014,0.044499,0.111040,-0.095043,0.897048,0.908878,-0.069979,0.061415,0.126644,0.157187,0.126644,0.000000,-0.261555,MOVE,0,9,0.164995,5.021096,0.144115,1,74.688
17.047110,0.044096,0.112010,-0.093354,0.896073,0.907859,0.108426,0.054320,-0.134772,0.181301,-0.134772,0.000000,-0.318326,MOVE,0,9,0.159053,5.021096,0.144115,1,74.450
17.097750,0.050641,0.145225,-0.059824,1.048384,1.060084,0.041842,-0.244393,-0.141491,0.285479,-0.141491,0.000000,-0.232418,MOVE,0,9,0.151887,5.021096,0.144115,1,74.272
17.141257,0.043506,0.145710,-0.083464,1.102241,1.114958,-0.207391,-0.164675,-0.172951,0.316293,-0.172951,0.000000,-0.105713,MOVE,0,9,0.144363,5.021096,0.144115,1,73.977
17.191961,0.050704,0.039276,-0.092390,1.348618,1.352350,0.067498,-0.128939,-0.240451,0.281066,-0.240451,0.000000,0.221973,MOVE,0,9,0.132171,5.021096,0.144115,1,73.514
17.243608,0.051647,0.080492,-0.165240,1.133434,1.148240,-0.345752,-0.067547,-0.393168,0.527909,-0.393168,0.000000,0.333192,MOVE,0,9,0.111865,5.021096,0.144115,1,72.688
17.287158,0.043550,0.011637,-0.184055,1.333509,1.346202,0.172261,0.236663,-0.040393,0.295491,-0.040393,0.000000,0.611454,MOVE,0,9,0.110106,5.021096,0.144115,1,72.376
17.337983,0.050825,-0.028386,-0.078640,1.032056,1.035437,-0.056508,-0.035477,-0.407218,0.412647,-0.407218,0.000000,0.582202,MOVE,0,9,0.089409,5.021096,0.144115,1,71.373
17.381539,0.043556,0.012850,-0.135328,0.860494,0.871165,-0.159133,-0.347629,-0.574595,0.690165,-0.574595,0.000000,0.408030,MOVE,0,9,0.064382,5.021096,0.144115,1,69.936
17.432600,0.051061,0.058429,-0.151972,0.882183,0.897082,-0.023216,-0.357403,-0.458225,0.581589,-0.458225,0.000000,0.274601,MOVE,0,9,0.040985,5.021096,0.144115,1,68.974
17.476084,0.043485,0.031033,-0.148113,0.855620,0.868899,0.247703,0.023166,-0.451811,0.515777,-0.451811,0.000000,0.129150,MOVE,0,9,0.021338,5.021096,0.144115,1,67.845
17.527270,0.051186,0.034670,-0.076469,0.906309,0.910189,0.278552,0.070508,-0.098120,0.303628,-0.098120,0.000000,0.035405,MOVE,1,10,0.016315,5.471036,0.151457,1,67.640
17.570991,0.043720,0.052853,-0.034013,0.954073,0.956141,-0.067198,0.325850,0.092165,0.345236,0.092165,0.000000,-0.007608,MOVE,0,10,0.020345,5.471036,0.151457,1,67.873
17.621700,0.050709,0.008970,-0.074056,0.930435,0.933420,0.016185,0.327988,0.173410,0.371361,0.173410,0.000000,-0.066769,MOVE,0,10,0.029138,5.471036,0.151457,1,68.238
17.665301,0.043602,0.040488,-0.028947,0.959678,0.960968,0.077577,0.169468,0.126679,0.225356,0.126679,0.000000,-0.095221,MOVE,0,10,0.034662,5.471036,0.151457,1,68.470
17.715939,0.050638,0.112010,-0.041491,0.864149,0.872365,-0.319791,0.046684,-0.110948,0.341694,-0.110948,0.000000,-0.200570,MOVE,0,10,0.029044,5.471036,0.151457,1,68.386
17.759408,0.043468,0.173349,-0.133639,0.927510,0.952987,-0.162798,-0.256916,0.013669,0.304460,0.013669,0.000000,-0.222825,MOVE,0,10,0.029638,5.471036,0.151457,1,68.632
17.804385,0.044978,0.180865,-0.089495,1.152930,1.170457,0.226323,0.030496,0.111713,0.254228,0.111713,0.000000,-0.047132,MOVE,0,10,0.034662,5.471036,0.151457,1,69.038
17.844216,0.039831,0.138679,-0.055000,1.147812,1.157467,0.056197,0.084253,0.162109,0.191144,0.162109,0.000000,0.099302,MOVE,0,10,0.041119,5.471036,0.151457,1,69.538
17.894650,0.050434,0.052611,-0.095767,1.179736,1.184786,-0.147588,-0.225558,0.088601,0.283740,0.088601,0.000000,0.255679,MOVE,0,10,0.045588,5.471036,0.151457,1,69.913
17.938195,0.043545,0.096009,-0.163551,1.281358,1.295317,0.163954,0.082013,0.336306,0.383026,0.336306,0.000000,0.495896,MOVE,0,10,0.060232,5.471036,0.151457,1,70.781
17.989249,0.051054,-0.047392,-0.061513,1.235299,1.237738,0.461445,0.028256,0.189393,0.499600,0.189393,0.000000,0.660270,MOVE,0,10,0.069901,5.471036,0.151457,1,71.128
18.033707,0.044458,-0.084171,-0.025087,0.944082,0.948158,0.246115,-0.432031,-0.159716,0.522238,-0.159716,0.000000,0.547586,MOVE,0,10,0.062801,5.471036,0.151457,1,70.682
18.077530,0.043823,0.063521,-0.043421,0.928485,0.931668,-0.243799,-0.862691,-0.091910,0.901177,-0.091910,0.000000,0.431328,MOVE,0,10,0.058773,5.471036,0.151457,1,70.444
18.128380,0.050849,0.103767,-0.093354,0.967233,0.977252,-0.257543,-0.014504,0.249258,0.358704,0.249258,0.000000,0.367722,MOVE,0,10,0.071448,5.471036,0.151457,1,70.925
18.171531,0.043151,0.035882,-0.095043,0.901678,0.907383,0.068353,0.048720,0.346997,0.357005,0.346997,0.000000,0.247595,MOVE,0,10,0.086421,5.471036,0.151457,1,71.528
18.215005,0.043474,0.036852,-0.024123,0.901435,0.902510,0.101646,-0.164777,0.432212,0.473593,0.432212,0.000000,0.135094,MOVE,0,10,0.105211,5.471036,0.151457,1,72.432
18.263094,0.048089,0.072006,-0.005307,0.960166,0.962876,-0.091999,0.045055,0.287437,0.305146,0.287437,0.000000,0.088174,MOVE,0,10,0.119034,5.471036,0.151457,1,72.759
18.306867,0.043773,0.039276,-0.017851,0.913132,0.914151,0.068105,0.111865,0.065790,0.146562,0.065790,0.000000,0.002092,MOVE,1,11,0.121913,5.917696,0.206182,1,72.632
18.350034,0.043167,0.088735,-0.002171,0.897048,0.901429,0.159045,-0.193679,-0.055428,0.256669,-0.055428,0.000000,-0.086831,MOVE,0,11,0.119521,5.917696,0.206182,1,72.212
18.393168,0.043134,0.102070,-0.026535,0.988434,0.994045,0.000525,-0.209867,-0.218529,0.302984,-0.218529,0.000000,-0.083508,MOVE,0,11,0.110095,5.917696,0.206182,1,71.543
18.437082,0.043913,0.130921,-0.046557,1.038636,1.047890,0.028931,0.059525,-0.217918,0.227746,-0.217918,0.000000,-0.032057,MOVE,0,11,0.100525,5.917696,0.206182,1,70.802
18.480656,0.043574,0.069097,-0.057171,1.064468,1.068239,-0.052314,-0.103882,-0.310769,0.331822,-0.310769,0.000000,0.032564,MOVE,0,11,0.086984,5.917696,0.206182,1,69.851
18.532151,0.051496,0.067400,-0.079363,1.192652,1.197189,0.172179,-0.046460,-0.120485,0.215222,-0.120485,0.000000,0.206778,MOVE,0,11,0.080779,5.917696,0.206182,1,69.343
18.575772,0.043620,0.076128,-0.004342,1.024745,1.027578,-0.210223,0.003630,-0.299468,0.365907,-0.299468,0.000000,0.210920,MOVE,0,11,0.067716,5.917696,0.206182,1,68.484
18.623207,0.047436,0.105222,-0.092872,1.019384,1.029000,-0.291468,0.154820,-0.083527,0.340440,-0.083527,0.000000,0.215928,MOVE,0,11,0.063754,5.917696,0.206182,1,68.186
18.666591,0.043383,0.052126,-0.109758,1.018653,1.025874,-0.019939,0.176200,-0.177601,0.250970,-0.177601,0.000000,0.217622,MOVE,0,11,0.056049,5.917696,0.206182,1,67.584
18.710170,0.043580,0.042913,-0.085153,0.980392,0.985019,0.120255,-0.040352,-0.310158,0.335094,-0.310158,0.000000,0.182376,MOVE,0,11,0.042533,5.917696,0.206182,1,66.654
18.760924,0.050754,0.101585,-0.066578,0.994283,1.001674,-0.055529,0.034554,-0.117511,0.134485,-0.117511,0.000000,0.165646,MOVE,0,11,0.036569,5.917696,0.206182,1,66.273
18.805326,0.044402,0.090675,-0.088771,0.966989,0.975280,0.030297,0.321966,0.021155,0.324080,0.021155,0.000000,0.126833,MOVE,0,11,0.037508,5.917696,0.206182,1,66.266
18.848486,0.043160,0.048732,-0.049451,0.990871,0.993301,0.247765,0.298142,0.113091,0.403814,0.113091,0.000000,0.108120,MOVE,0,11,0.042389,5.917696,0.206182,1,66.434
18.891606,0.043120,0.047035,-0.024605,0.977468,0.978908,0.000332,0.018448,-0.058385,0.061231,-0.058385,0.000000,0.078325,MOVE,0,11,0.039871,5.917696,0.206182,1,66.296
18.942638,0.051032,0.120253,-0.080087,0.989165,0.999661,-0.144461,-0.251742,-0.011103,0.290458,-0.011103,0.000000,0.070188,MOVE,0,11,0.039305,5.917696,0.206182,1,66.342
18.986397,0.043759,0.202200,-0.139670,1.061056,1.089143,0.101718,0.205186,0.437577,0.493884,0.437577,0.000000,0.143398,MOVE,0,11,0.058453,5.917696,0.206182,1,67.490
19.037596,0.051200,0.030791,0.019423,1.081770,1.082383,0.140202,0.368287,0.373742,0.543116,0.373742,0.000000,0.203203,MOVE,0,11,0.077588,5.917696,0.206182,1,68.295
19.080843,0.043247,0.015274,-0.013991,0.993796,0.994012,-0.196996,0.063159,0.016386,0.207521,0.016386,0.000000,0.177493,MOVE,0,11,0.078297,5.917696,0.206182,1,68.294
19.131448,0.050605,0.123890,-0.110723,0.931653,0.946354,-0.248003,-0.417591,-0.190698,0.521779,-0.190698,0.000000,0.111462,MOVE,0,11,0.068646,5.917696,0.206182,1,68.101
19.175059,0.043611,0.191047,-0.123749,1.020602,1.045678,0.140546,0.054667,-0.055382,0.160651,-0.055382,0.000000,0.141426,MOVE,0,11,0.066231,5.917696,0.206182,1,68.112
19.218815,0.043756,0.156863,-0.091907,1.020602,1.036669,0.222096,0.147824,0.141927,0.302196,0.141927,0.000000,0.160285,MOVE,0,11,0.072441,5.917696,0.206182,1,68.550
19.263309,0.044494,0.095039,-0.037631,1.000132,1.005342,-0.079671,0.180811,0.177969,0.265919,0.177969,0.000000,0.149064,MOVE,0,11,0.080360,5.917696,0.206182,1,69.028
19.310482,0.047173,0.056490,-0.083223,0.995502,1.000570,-0.143497,0.014109,0.131734,0.195306,0.131734,0.000000,0.134671,MOVE,0,11,0.086574,5.917696,0.206182,1,69.335
19.353741,0.043260,0.066915,-0.082740,0.990140,0.995842,-0.004460,-0.019377,-0.041544,0.046057,-0.041544,0.000000,0.117462,MOVE,0,11,0.084777,5.917696,0.206182,1,69.315
19.397017,0.043276,0.115647,-0.073574,1.030107,1.039186,0.079472,0.050986,-0.011593,0.095130,-0.011593,0.000000,0.140983,MOVE,0,11,0.084275,5.917696,0.206182,1,69.335
19.440731,0.043714,0.115404,-0.072850,1.013048,1.022199,0.021386,0.143558,0.013521,0.145770,0.013521,0.000000,0.146864,MOVE,0,11,0.084866,5.917696,0.206182,1,69.385
19.484342,0.043611,0.066915,-0.069232,1.014266,1.018826,0.049610,-0.014902,-0.041602,0.066438,-0.041602,0.000000,0.149121,MOVE,0,11,0.083052,5.917696,0.206182,1,69.253
19.535538,0.051196,0.075158,-0.071162,1.024502,1.029717,0.015319,-0.015874,-0.072756,0.076027,-0.072756,0.000000,0.160954,MOVE,0,11,0.079327,5.917696,0.206182,1,69.097
19.579155,0.043617,0.087281,-0.069232,1.011829,1.017944,0.053023,-0.037884,-0.125200,0.141144,-0.125200,0.000000,0.161008,MOVE,0,11,0.073867,5.917696,0.206182,1,68.833
19.630227,0.051072,0.108131,-0.048728,1.020359,1.027229,0.041452,0.060239,-0.031194,0.079499,-0.031194,0.000000,0.169413,MOVE,0,11,0.072273,5.917696,0.206182,1,68.792
19.673917,0.043690,0.088250,-0.045109,0.999644,1.004546,-0.060729,0.060761,-0.060317,0.104967,-0.060317,0.000000,0.156563,MOVE,0,11,0.069638,5.917696,0.206182,1,68.701
19.717465,0.043547,0.079765,-0.069232,0.991115,0.996727,-0.009516,0.017760,-0.083867,0.086254,-0.083867,0.000000,0.137961,MOVE,0,11,0.065986,5.917696,0.206182,1,68.608
19.760550,0.043086,0.099645,-0.067543,1.028888,1.035906,0.111718,0.006705,-0.002400,0.111945,-0.002400,0.000000,0.156480,MOVE,0,11,0.065882,5.917696,0.206182,1,68.677
19.804891,0.044341,0.094554,-0.042215,1.017678,1.022933,0.065778,0.051825,-0.019453,0.085971,-0.019453,0.000000,0.161472,MOVE,0,11,0.065020,5.917696,0.206182,1,68.712
19.844949,0.040058,0.081947,-0.055241,0.998913,1.003790,-0.017842,-0.095123,0.008200,0.097129,0.008200,0.000000,0.148736,MOVE,0,11,0.065348,5.917696,0.206182,1,68.807
19.888393,0.043444,0.096978,-0.055482,1.022308,1.028395,0.006381,0.013687,0.009877,0.018045,0.009877,0.000000,0.159418,MOVE,0,11,0.065777,5.917696,0.206182,1,68.937
19.939200,0.050808,0.084129,-0.060306,0.999157,1.004505,0.022493,0.028118,0.007481,0.036776,0.007481,0.000000,0.147530,MOVE,0,11,0.066158,5.917696,0.206182,1,69.042
19.983237,0.044037,0.088493,-0.043179,1.009392,1.014184,-0.033964,0.000078,-0.007079,0.034693,-0.007079,0.000000,0.145542,MOVE,0,11,0.065846,5.917696,0.206182,1,69.115
20.027461,0.044224,0.093342,-0.059824,1.010123,1.016189,-0.040602,0.038876,-0.011407,0.057358,-0.011407,0.000000,0.145559,MOVE,0,11,0.065341,5.917696,0.206182,1,69.147
20.074957,0.047496,0.080007,-0.056929,1.013291,1.018038,0.040488,0.008150,-0.026410,0.049022,-0.026410,0.000000,0.147237,MOVE,0,11,0.064087,5.917696,0.206182,1,69.132
20.118523,0.043566,0.086311,-0.049934,1.015241,1.020126,0.027065,0.019317,-0.030416,0.045064,-0.030416,0.000000,0.150627,MOVE,0,11,0.062762,5.917696,0.206182,1,69.127
20.161949,0.043426,0.086068,-0.041250,1.019628,1.024085,-0.022668,0.012664,-0.022972,0.034669,-0.022972,0.000000,0.157241,MOVE,0,11,0.061764,5.917696,0.206182,1,69.128
20.205551,0.043602,0.090190,-0.055723,1.014023,1.019549,-0.032828,-0.005874,-0.025040,0.041704,-0.025040,0.000000,0.159111,MOVE,0,11,0.060672,5.917696,0.206182,1,69.115
20.249529,0.043978,0.095766,-0.057171,1.012317,1.018442,-0.011786,-0.003460,-0.034048,0.036196,-0.034048,0.000000,0.159798,MOVE,0,11,0.059175,5.917696,0.206182,1,69.104
20.292726,0.043197,0.096493,-0.047522,1.016703,1.022377,0.003571,-0.007302,-0.020519,0.022071,-0.020519,0.000000,0.163957,MOVE,0,11,0.058289,5.917696,0.206182,1,69.132
20.336413,0.043687,0.093584,-0.041732,1.007443,1.012640,-0.011080,-0.008243,-0.022785,0.026643,-0.022785,0.000000,0.158938,MOVE,0,11,0.057293,5.917696,0.206182,1,69.162
20.379591,0.043177,0.093099,-0.040285,1.024989,1.029996,-0.001357,-0.014741,-0.003534,0.015219,-0.003534,0.000000,0.170041,MOVE,0,11,0.057141,5.917696,0.206182,1,69.211
20.430107,0.050517,0.090675,-0.049210,1.003544,1.008833,0.000567,0.000804,-0.033403,0.033418,-0.033403,0.000000,0.160986,MOVE,0,11,0.055453,5.917696,0.206182,1,69.217
20.473237,0.043130,0.081219,-0.049693,1.015241,1.019696,0.020253,0.006118,-0.031567,0.038001,-0.031567,0.000000,0.162614,MOVE,0,11,0.054092,5.917696,0.206182,1,69.206
20.518171,0.044933,0.095281,-0.043662,1.017191,1.022576,0.014648,0.009779,-0.018462,0.025515,-0.018462,0.000000,0.166671,MOVE,0,11,0.053262,5.917696,0.206182,1,69.204
20.558286,0.040115,0.083886,-0.037872,1.025233,1.029356,-0.042515,-0.024092,-0.003313,0.048978,-0.003313,0.000000,0.176424,MOVE,0,11,0.053129,5.917696,0.206182,1,69.228
20.609077,0.050792,0.082674,-0.049210,1.024502,1.029009,-0.056638,0.005228,-0.003418,0.056981,-0.003418,0.000000,0.184890,MOVE,0,11,0.052956,5.917696,0.206182,1,69.213
20.652539,0.043462,0.078068,-0.060789,1.005737,1.010592,-0.025159,-0.021374,0.012246,0.035210,0.012246,0.000000,0.175934,MOVE,0,11,0.053488,5.917696,0.206182,1,69.251
20.703225,0.050686,0.056732,-0.063442,1.012560,1.016131,-0.047629,0.023943,-0.010692,0.054370,-0.010692,0.000000,0.172858,MOVE,0,11,0.052946,5.917696,0.206182,1,69.237
20.746876,0.043650,0.063763,-0.058618,1.008174,1.011888,-0.001516,-0.074036,-0.042507,0.085384,-0.042507,0.000000,0.166271,MOVE,0,11,0.051091,5.917696,0.206182,1,69.176
20.790379,0.043503,0.076613,-0.059100,1.023283,1.027848,-0.025282,0.003369,-0.043698,0.050597,-0.043698,0.000000,0.174707,MOVE,0,11,0.049190,5.917696,0.206182,1,69.080
20.834323,0.043945,0.067885,-0.068749,1.008905,1.013521,-0.003330,-0.014856,-0.117157,0.118142,-0.117157,0.000000,0.169405,MOVE,0,11,0.044041,5.917696,0.206182,1,68.824
20.877843,0.043519,0.079765,-0.078881,1.020359,1.026507,-0.028009,-0.026430,-0.185908,0.189854,-0.185908,0.000000,0.176321,MOVE,0,11,0.035951,5.917696,0.206182,1,68.335
20.928539,0.050696,0.092372,-0.101315,1.013048,1.022283,-0.046334,0.049622,-0.277537,0.285721,-0.277537,0.000000,0.178744,MOVE,0,11,0.021880,5.917696,0.206182,1,67.744
20.972265,0.043727,0.086068,-0.106863,1.021090,1.030268,-0.016097,0.006556,-0.316938,0.317414,-0.316938,0.000000,0.188110,MOVE,0,11,0.008022,5.917696,0.206182,1,66.978
21.019614,0.047348,0.083886,-0.110723,0.998426,1.008043,-0.060384,0.007167,-0.386577,0.391330,-0.386577,0.000000,0.176538,MOVE,0,11,-0.010282,5.917696,0.206182,1,66.102
21.062843,0.043229,0.076370,-0.105416,1.008174,1.016543,-0.030452,0.019384,-0.445220,0.446681,-0.445220,0.000000,0.173773,MOVE,0,11,-0.029528,5.917696,0.206182,1,65.089
21.106028,0.043185,0.064248,-0.088771,0.997939,1.003937,0.009865,-0.023376,-0.562201,0.562773,-0.562201,0.000000,0.159939,MOVE,0,11,-0.053807,5.917696,0.206182,1,63.861
21.149619,0.043591,0.087765,-0.082740,1.006955,1.014154,-0.066798,0.030685,-0.577778,0.582435,-0.577778,0.000000,0.156683,MOVE,0,11,-0.078993,5.917696,0.206182,1,62.386
21.199866,0.050247,0.087038,-0.096249,0.996233,1.004649,-0.047862,0.125370,-0.636726,0.650714,-0.636726,0.000000,0.145199,MOVE,0,11,-0.110986,5.917696,0.206182,1,60.965
21.243845,0.043979,0.069824,-0.109999,0.983804,0.992394,-0.005712,0.125980,-0.728661,0.739494,-0.728661,0.000000,0.123834,MOVE,0,11,-0.143032,5.917696,0.206182,1,59.290
21.287354,0.043510,0.084856,-0.142082,1.007199,1.020705,0.049266,0.149804,-0.801354,0.816723,-0.801354,0.000000,0.130084,MOVE,0,11,-0.177899,5.917696,0.206182,1,57.507
21.330769,0.043415,0.045822,-0.128573,1.023527,1.032588,0.134787,0.068254,-0.837395,0.850915,-0.837395,0.000000,0.146405,MOVE,0,11,-0.214254,5.917696,0.206182,1,55.717
21.373657,0.042887,0.026427,-0.104451,1.036686,1.042270,0.137536,0.030380,-1.035010,1.044550,-1.035010,0.000000,0.169808,MOVE,0,11,-0.258643,5.917696,0.206182,1,53.545
21.416850,0.043194,0.048247,-0.123025,1.020359,1.028880,0.030024,-0.066137,-1.181618,1.183848,-1.181618,0.000000,0.178819,MOVE,0,11,-0.309681,5.917696,0.206182,1,51.058
21.460216,0.043366,0.061339,-0.104210,1.046191,1.053156,-0.024038,-0.165708,-1.190781,1.202496,-1.190781,0.000000,0.208778,MOVE,0,11,-0.361321,5.917696,0.206182,1,48.112
21.511134,0.050918,0.077583,-0.088771,1.003787,1.010687,-0.087262,-0.189837,-1.167568,1.186115,-1.167568,0.000000,0.197518,MOVE,0,11,-0.420771,5.917696,0.206182,1,45.743
21.554646,0.043512,0.080250,-0.055241,0.937258,0.942308,-0.198440,-0.179758,-1.190781,1.220512,-1.190781,0.000000,0.125843,MOVE,0,11,-0.472584,5.917696,0.206182,1,42.869
21.605026,0.050380,0.104009,-0.120372,1.007930,1.020407,-0.111086,-0.065831,-0.947046,0.955808,-0.947046,0.000000,0.131625,MOVE,0,11,-0.520296,5.917696,0.206182,1,41.030
21.648632,0.043606,0.039519,-0.033772,1.081039,1.082288,-0.083597,0.115290,-1.001107,1.011185,-1.001107,0.000000,0.192522,MOVE,0,11,-0.563951,5.917696,0.206182,1,39.023
21.692088,0.043456,0.021820,0.022823,0.982098,0.982606,-0.231121,-0.116228,-1.371292,1.395481,-1.371292,0.000000,0.157615,MOVE,0,11,-0.623541,5.917696,0.206182,1,35.621
21.742637,0.050549,0.088735,-0.048245,1.031812,1.036744,-0.352989,-0.037731,-1.548137,1.588318,-1.548137,0.000000,0.174924,MOVE,0,11,-0.701798,5.917696,0.206182,1,32.485
21.786107,0.043470,0.060369,-0.066337,1.045947,1.049786,-0.108948,0.082609,-1.668172,1.673766,-1.668172,0.000000,0.202238,MOVE,0,11,-0.774313,5.917696,0.206182,1,29.064
21.830045,0.043938,0.071037,-0.056206,1.008417,1.012478,-0.148349,0.009305,-1.746974,1.753286,-1.746974,0.000000,0.193244,MOVE,0,11,-0.851071,5.917696,0.206182,1,24.760
21.881693,0.051648,0.054308,-0.048245,1.030838,1.033394,-0.321224,0.070392,-1.889611,1.918012,-1.889611,0.000000,0.203975,MOVE,0,11,-0.948667,5.917696,0.206182,1,20.966
21.925457,0.043764,0.054065,-0.063442,0.980880,0.984415,-0.301982,0.019384,-1.999261,2.022032,-1.999261,0.000000,0.169551,MOVE,0,11,-1.036162,5.917696,0.206182,1,16.627
21.973020,0.047563,0.064006,-0.061030,0.997695,1.001607,-0.303814,0.026715,-1.990098,2.013332,-1.990098,0.000000,0.154042,MOVE,0,11,-1.130818,5.917696,0.206182,1,12.734
22.017552,0.044532,0.017699,-0.049451,1.026451,1.027794,-0.243339,0.112541,-2.078368,2.095589,-2.078368,0.000000,0.163652,MOVE,0,11,-1.223372,5.917696,0.206182,1,8.780
22.061183,0.043631,-0.003456,-0.015438,1.007199,1.007323,-0.269606,-0.089960,-2.250021,2.267901,-2.250021,0.000000,0.153878,MOVE,0,11,-1.321543,5.917696,0.206182,1,3.697
22.111836,0.050653,0.059157,-0.039079,1.011342,1.013824,-0.378034,-0.102178,-2.335848,2.368446,-2.335848,0.000000,0.150932,MOVE,0,11,-1.439860,5.917696,0.206182,1,359.486
22.155399,0.043563,0.099645,-0.087565,1.064224,1.072460,-0.179503,-0.027347,-2.115631,2.123409,-2.115631,0.000000,0.201053,MOVE,0,11,-1.532024,5.917696,0.206182,1,355.799
22.198875,0.043476,0.053096,-0.036908,1.057401,1.059376,-0.105894,-0.218853,-1.902744,1.918214,-1.902744,0.000000,0.234386,MOVE,0,11,-1.614748,5.917696,0.206182,1,352.541
22.243645,0.044770,0.078795,-0.037872,1.017922,1.021669,-0.471802,-0.021849,-2.020336,2.074809,-2.020336,0.000000,0.230449,MOVE,0,11,-1.705198,5.917696,0.206182,1,348.652
22.290788,0.047143,0.050429,-0.091183,1.004275,1.009666,-0.473329,-0.116533,-2.003537,2.061985,-2.003537,0.000000,0.216103,MOVE,0,11,-1.799651,5.917696,0.206182,1,345.253
22.334570,0.043781,0.063521,-0.092148,1.027426,1.033504,-0.331609,0.008694,-1.913435,1.941976,-1.913435,0.000000,0.224647,MOVE,0,11,-1.883424,5.917696,0.206182,1,342.098
22.378152,0.043583,0.059399,-0.086841,1.006712,1.012195,-0.416213,0.126897,-1.863038,1.913177,-1.863038,0.000000,0.213157,MOVE,0,11,-1.964620,5.917696,0.206182,1,339.063
22.421839,0.043686,0.056490,-0.064407,1.031569,1.035120,-0.528002,0.313516,-1.886251,1.983689,-1.886251,0.000000,0.223450,MOVE,0,11,-2.047023,5.917696,0.206182,1,336.035
22.465373,0.043534,0.068612,-0.067543,0.998670,1.003300,-0.545411,0.326344,-1.908242,2.011309,-1.908242,0.000000,0.204075,MOVE,0,11,-2.130096,5.917696,0.206182,1,333.040
22.509153,0.043780,0.074916,-0.032565,1.008905,1.012207,-0.612301,0.334285,-1.889611,2.014271,-1.889611,0.000000,0.194653,MOVE,0,11,-2.212824,5.917696,0.206182,1,329.356
22.560178,0.051025,0.085583,-0.082499,0.983317,0.990476,-0.661781,0.345892,-1.921681,2.061663,-1.921681,0.000000,0.166616,MOVE,0,11,-2.310878,5.917696,0.206182,1,326.584
22.603776,0.043597,0.105464,-0.061995,1.076896,1.083823,-0.352378,0.405146,-1.547221,1.637744,-1.547221,0.000000,0.225395,MOVE,0,11,-2.378333,5.917696,0.206182,1,324.037
22.654402,0.050627,0.026669,-0.014474,1.030594,1.031041,-0.488906,0.409422,-1.599450,1.721887,-1.599450,0.000000,0.230792,MOVE,0,11,-2.459308,5.917696,0.206182,1,322.269
22.697973,0.043571,0.011880,-0.015197,1.022065,1.022247,-0.522809,0.281140,-1.650457,1.753961,-1.650457,0.000000,0.227735,MOVE,0,11,-2.531219,5.917696,0.206182,1,320.548
22.741639,0.043666,0.058429,-0.029671,1.014997,1.017111,-0.409494,0.354139,-1.618081,1.706249,-1.618081,0.000000,0.220361,MOVE,0,11,-2.601875,5.917696,0.206182,1,318.398
22.792351,0.050712,0.069582,-0.032324,1.015241,1.018136,-0.175227,0.391707,-1.454064,1.516061,-1.454064,0.000000,0.214647,MOVE,0,11,-2.675613,5.917696,0.206182,1,317.333
22.836104,0.043754,0.098433,0.005584,1.009636,1.014438,-0.240284,0.477533,-1.365794,1.466686,-1.365794,0.000000,0.206177,MOVE,0,11,-2.735371,5.917696,0.206182,1,316.183
22.886751,0.050647,0.042913,-0.055241,1.010367,1.012786,-0.093066,0.500746,-1.114728,1.225572,-1.114728,0.000000,0.197066,MOVE,0,11,-2.791828,5.917696,0.206182,1,316.119
22.930620,0.043869,0.029336,-0.002653,0.986241,0.986681,0.217254,0.168741,-1.141912,1.174579,-1.141912,0.000000,0.165373,MOVE,0,11,-2.841923,5.917696,0.206182,1,315.892
22.981365,0.050745,0.115889,-0.018333,1.070073,1.076486,0.280173,0.252124,-0.869160,0.947366,-0.869160,0.000000,0.217673,MOVE,0,11,-2.886029,5.917696,0.206182,1,316.757
23.025434,0.044069,0.079037,0.067982,0.999157,1.004581,0.314992,0.275948,-0.690788,0.807809,-0.690788,0.000000,0.200029,MOVE,0,11,-2.916471,5.917696,0.206182,1,317.871
23.072507,0.047073,0.088250,0.054871,1.009636,1.014970,0.289336,0.029464,-0.514859,0.591323,-0.514859,0.000000,0.193499,MOVE,0,11,-2.940707,5.917696,0.206182,1,319.240
23.116330,0.043823,0.128739,0.028164,1.025964,1.034393,0.122875,0.017552,-0.370694,0.390923,-0.370694,0.000000,0.205102,MOVE,0,11,-2.956952,5.917696,0.206182,1,320.582
23.159842,0.043512,0.130678,0.056813,1.088838,1.098122,0.222446,0.158967,-0.204234,0.341269,-0.204234,0.000000,0.272902,MOVE,0,11,-2.965839,5.917696,0.206182,1,322.333
23.203295,0.043452,0.065460,0.064340,1.055938,1.059920,0.141812,-0.010548,-0.209120,0.252890,-0.209120,0.000000,0.299540,MOVE,0,11,-2.974925,5.917696,0.206182,1,323.600
23.254469,0.051175,0.090917,0.051715,1.041073,1.046314,-0.017728,-0.165456,-0.099346,0.193803,-0.099346,0.000000,0.311268,MOVE,0,11,-2.980009,5.917696,0.206182,1,324.672
23.298076,0.043607,0.114919,0.027921,1.005493,1.012424,0.033121,-0.039220,-0.067049,0.084444,-0.067049,0.000000,0.291323,MOVE,0,11,-2.982933,5.917696,0.206182,1,325.479
23.348758,0.050682,0.113707,0.005099,0.981611,0.988188,0.052535,0.076037,-0.043412,0.102109,-0.043412,0.000000,0.251560,MOVE,0,11,-2.985133,5.917696,0.206182,1,326.140
23.392233,0.043476,0.114677,0.002914,1.003056,1.009594,0.097823,0.118475,-0.029150,0.156382,-0.029150,0.000000,0.235039,MOVE,0,11,-2.986401,5.917696,0.206182,1,326.635
23.435825,0.043591,0.108131,-0.000000,1.010367,1.016137,0.045480,0.131446,-0.044387,0.146002,-0.044387,0.000000,0.226058,MOVE,0,11,-2.988336,5.917696,0.206182,1,326.867
23.486343,0.050519,0.077098,-0.014474,0.999888,1.002961,-0.001022,0.041308,-0.054287,0.068224,-0.054287,0.000000,0.206117,MOVE,0,11,-2.991078,5.917696,0.206182,1,326.914
23.530433,0.044090,0.088250,-0.010855,1.029619,1.033451,0.041974,-0.025668,-0.012443,0.050749,-0.012443,0.000000,0.215612,MOVE,0,11,-2.991627,5.917696,0.206182,1,327.149
23.580977,0.050544,0.085099,-0.006754,1.015485,1.019067,-0.010645,-0.012904,0.022314,0.027888,0.022314,0.000000,0.211210,MOVE,0,11,-2.990499,5.917696,0.206182,1,327.577
23.624598,0.043621,0.085826,0.005099,1.022065,1.025674,-0.030285,0.045821,-0.001389,0.054942,-0.001389,0.000000,0.213196,MOVE,0,11,-2.990559,5.917696,0.206182,1,327.884
23.675051,0.050454,0.067158,-0.026294,0.989653,0.992277,-0.012659,0.019525,0.033469,0.040763,0.033469,0.000000,0.184926,MOVE,0,11,-2.988871,5.917696,0.206182,1,328.046
23.718732,0.043680,0.090675,0.001942,1.018897,1.022925,0.042811,0.111446,-0.020959,0.121212,-0.020959,0.000000,0.187066,MOVE,0,11,-2.989786,5.917696,0.206182,1,328.046
23.762047,0.043315,0.084371,-0.023399,1.000132,1.003957,0.065933,0.006753,0.049337,0.082625,0.049337,0.000000,0.171921,MOVE,0,11,-2.987649,5.917696,0.206182,1,327.990
23.812773,0.050727,0.085341,-0.007719,1.021577,1.025165,0.004367,0.052254,0.037171,0.064275,0.037171,0.000000,0.177377,MOVE,0,11,-2.985764,5.917696,0.206182,1,327.868
23.856234,0.043460,0.074916,-0.020987,1.006224,1.009227,0.002266,-0.010887,0.040158,0.041669,0.040158,0.000000,0.167944,MOVE,0,11,-2.984018,5.917696,0.206182,1,327.584
23.899536,0.043303,0.080007,-0.006272,1.024502,1.027640,-0.028425,0.076886,0.037417,0.090108,0.037417,0.000000,0.176026,MOVE,0,11,-2.982398,5.917696,0.206182,1,327.370
23.950727,0.051190,0.063521,-0.017851,0.993796,0.995984,-0.030350,-0.030712,-0.024473,0.049631,-0.024473,0.000000,0.154808,MOVE,0,11,-2.983651,5.917696,0.206182,1,326.973
24.001515,0.050789,0.085341,-0.019781,1.037174,1.040867,-0.007673,0.030826,-0.021478,0.038346,-0.021478,0.000000,0.176108,MOVE,0,11,-2.984742,5.917696,0.206182,1,326.612
24.045743,0.044227,0.072734,-0.027500,1.012804,1.015785,-0.022597,-0.014184,-0.068311,0.073336,-0.068311,0.000000,0.172703,MOVE,0,11,-2.987763,5.917696,0.206182,1,326.066
24.096198,0.050455,0.055763,-0.022916,1.036443,1.038195,0.003610,-0.039256,-0.119111,0.125465,-0.119111,0.000000,0.189808,MOVE,0,11,-2.993773,5.917696,0.206182,1,325.343
24.139840,0.043643,0.103524,-0.009408,1.017922,1.023216,-0.126826,-0.001448,-0.091909,0.156634,-0.091909,0.000000,0.191721,MOVE,0,11,-2.997784,5.917696,0.206182,1,324.505
24.190379,0.050539,0.066915,-0.047763,0.998182,1.001562,-0.125936,0.027101,-0.035590,0.133645,-0.035590,0.000000,0.173955,MOVE,0,11,-2.999583,5.917696,0.206182,1,324.018
24.234760,0.044381,0.063763,-0.031118,1.025476,1.027928,0.114949,-0.091646,0.004437,0.147078,0.004437,0.000000,0.181695,MOVE,0,11,-2.999386,5.917696,0.206182,1,323.758
24.278622,0.043862,0.081704,-0.001689,1.009149,1.012452,-0.033852,-0.041024,0.028664,0.060420,0.028664,0.000000,0.174732,MOVE,0,11,-2.998128,5.917696,0.206182,1,323.438
24.329494,0.050871,0.101100,0.014810,1.027670,1.032737,-0.112078,0.056961,0.078182,0.148049,0.078182,0.000000,0.186722,MOVE,0,11,-2.994151,5.917696,0.206182,1,323.460
24.373015,0.043522,0.133345,-0.025329,1.018165,1.027172,0.035453,0.112093,0.288045,0.311114,0.288045,0.000000,0.192505,MOVE,0,11,-2.981615,5.917696,0.206182,1,323.881
24.416553,0.043537,0.080977,0.005584,1.017191,1.020424,0.159764,0.086131,0.305455,0.355311,0.305455,0.000000,0.191636,MOVE,0,11,-2.968316,5.917696,0.206182,1,324.441
24.463718,0.047166,0.055035,0.032049,1.044485,1.046425,0.159459,-0.097434,0.107840,0.215754,0.107840,0.000000,0.214255,MOVE,0,11,-2.963230,5.917696,0.206182,1,324.338
24.507293,0.043574,0.128739,0.009712,1.045947,1.053885,-0.161615,-0.077950,0.087903,0.199806,0.087903,0.000000,0.241326,MOVE,0,11,-2.959400,5.917696,0.206182,1,323.681
24.544571,0.037278,0.127042,-0.013026,1.020115,1.028078,-0.315553,0.099812,0.195110,0.384192,0.195110,0.000000,0.242463,MOVE,0,11,-2.952126,5.917696,0.206182,1,323.285
24.587671,0.043100,0.121950,-0.023399,1.056913,1.064183,0.136860,-0.009891,0.196836,0.239944,0.196836,0.000000,0.275981,MOVE,0,11,-2.943643,5.917696,0.206182,1,323.327
24.631034,0.043362,0.145710,0.036176,1.031325,1.042196,-0.047926,0.320282,0.106428,0.340887,0.106428,0.000000,0.286359,MOVE,0,11,-2.939028,5.917696,0.206182,1,323.578
24.681815,0.050781,0.078552,-0.037149,0.913620,0.917742,-0.163991,0.111977,-0.006582,0.198683,-0.006582,0.000000,0.183691,MOVE,0,11,-2.939362,5.917696,0.206182,1,323.351
24.725684,0.043869,0.116374,0.000971,0.986485,0.993326,0.101656,-0.036197,-0.055251,0.121230,-0.055251,0.000000,0.159315,MOVE,0,11,-2.941786,5.917696,0.206182,1,322.649
24.776338,0.050654,0.159772,0.000728,0.957485,0.970724,0.139286,0.022069,0.083515,0.163898,0.083515,0.000000,0.117035,MOVE,0,11,-2.937555,5.917696,0.206182,1,322.004
24.820572,0.044234,0.135285,0.020637,0.950174,0.959978,-0.000757,-0.073833,0.100591,0.124781,0.100591,0.000000,0.069312,MOVE,0,11,-2.933106,5.917696,0.206182,1,321.339
24.867366,0.046793,0.121950,-0.014956,1.014754,1.022165,0.096799,0.024173,0.282016,0.299145,0.282016,0.000000,0.082329,MOVE,0,11,-2.919909,5.917696,0.206182,1,321.250
24.910431,0.043065,0.037822,0.027436,1.094442,1.095439,0.390931,-0.106246,0.183056,0.444550,0.183056,0.000000,0.159992,MOVE,0,11,-2.912026,5.917696,0.206182,1,321.014
24.954893,0.044463,0.042913,0.030835,1.078846,1.080139,0.076641,-0.215897,-0.127264,0.262071,-0.127264,0.000000,0.216118,MOVE,0,11,-2.917685,5.917696,0.206182,1,319.853
24.998181,0.043288,0.098191,0.007769,1.136602,1.140862,-0.326225,-0.373500,-0.413760,0.645850,-0.413760,0.000000,0.321282,MOVE,0,11,-2.935595,5.917696,0.206182,1,318.182
25.041980,0.043799,0.145468,-0.077434,1.151224,1.162959,-0.259335,-0.076925,-0.308080,0.409982,-0.308080,0.000000,0.435817,MOVE,0,11,-2.949089,5.917696,0.206182,1,317.014
25.092369,0.050388,0.120011,-0.070920,1.118325,1.126979,0.127953,-0.198182,-0.245772,0.340664,-0.245772,0.000000,0.506517,MOVE,0,11,-2.961473,5.917696,0.206182,1,316.481
25.135757,0.043388,0.081462,0.045159,1.152930,1.156686,0.226608,0.084649,-0.073202,0.252736,-0.073202,0.000000,0.596882,MOVE,0,11,-2.964649,5.917696,0.206182,1,316.565
25.178890,0.043134,0.040488,0.057299,0.953098,0.955677,-0.049271,0.089232,-0.049449,0.113293,-0.049449,0.000000,0.497304,MOVE,0,11,-2.966782,5.917696,0.206182,1,316.959
25.222319,0.043429,0.003637,-0.058859,0.984292,0.986057,-0.008343,-0.255296,-0.072662,0.265566,-0.072662,0.000000,0.435024,MOVE,0,11,-2.969938,5.917696,0.206182,1,317.317
25.273988,0.051669,0.057460,0.003156,0.957485,0.959213,0.242417,-0.303554,-0.203082,0.438353,-0.203082,0.000000,0.354813,MOVE,0,11,-2.980431,5.917696,0.206182,1,317.073
25.324757,0.050769,0.096251,-0.007719,0.972350,0.977133,0.147427,-0.119378,0.001863,0.189709,0.001863,0.000000,0.298752,MOVE,0,11,-2.980336,5.917696,0.206182,1,317.080
25.367883,0.043126,0.072976,-0.002895,0.959922,0.962696,-0.189468,-0.019722,0.168913,0.254595,0.168913,0.000000,0.235303,MOVE,0,11,-2.973052,5.917696,0.206182,1,317.346
25.411086,0.043202,0.067400,0.005341,0.958460,0.960841,-0.127159,0.176366,0.178992,0.281625,0.178992,0.000000,0.176530,MOVE,0,11,-2.965319,5.917696,0.206182,1,317.830
25.461674,0.050588,0.058187,-0.001930,0.935552,0.937362,0.028431,0.047877,0.187395,0.195493,0.187395,0.000000,0.102503,MOVE,0,11,-2.955839,5.917696,0.206182,1,318.288
25.505547,0.043873,0.087523,0.010683,0.929216,0.933390,-0.049203,0.121129,0.012569,0.131344,0.012569,0.000000,0.032304,MOVE,1,12,-2.955287,5.475483,0.122829,1,318.317
25.557565,0.052019,0.097463,-0.032807,0.910451,0.916241,0.085257,0.108283,-0.005960,0.137947,-0.005960,0.000000,-0.046310,MOVE,0,12,-2.955597,5.475483,0.122829,1,318.337
25.601215,0.043649,0.107888,-0.020022,1.005737,1.011705,0.423067,-0.167567,0.039262,0.456734,0.039262,0.000000,-0.031144,MOVE,0,12,-2.953884,5.475483,0.122829,1,318.313
25.652035,0.050820,0.082674,0.045159,1.069829,1.073969,0.256606,-0.095485,-0.028850,0.275311,-0.028850,0.000000,0.038542,MOVE,0,12,-2.955350,5.475483,0.122829,1,318.134
25.695639,0.043604,0.042913,0.041760,1.139039,1.140612,0.099919,-0.186809,-0.039845,0.215567,-0.039845,0.000000,0.161238,MOVE,0,12,-2.957087,5.475483,0.122829,1,318.011
25.747791,0.052152,0.021820,0.055599,1.149031,1.150582,-0.047859,-0.222716,-0.210287,0.310022,-0.210287,0.000000,0.280638,MOVE,0,12,-2.968054,5.475483,0.122829,1,317.219
25.799526,0.051735,0.085826,0.039090,1.179493,1.183257,0.044988,-0.155508,-0.013282,0.162428,-0.013282,0.000000,0.417506,MOVE,0,12,-2.968741,5.475483,0.122829,1,316.948
25.846440,0.046914,0.079522,0.071138,1.190946,1.195716,-0.035040,0.360672,0.209372,0.418507,0.209372,0.000000,0.551900,MOVE,0,12,-2.958919,5.475483,0.122829,1,317.291
25.889486,0.043046,-0.016291,0.062155,1.062031,1.063973,-0.018241,0.479180,0.237777,0.535242,0.237777,0.000000,0.554286,MOVE,0,12,-2.948683,5.475483,0.122829,1,317.750
25.932874,0.043388,-0.073804,0.015539,0.948956,0.951948,0.185788,-0.352513,-0.080179,0.406462,-0.080179,0.000000,0.455610,MOVE,0,12,-2.952162,5.475483,0.122829,1,317.393
25.976301,0.043427,0.068855,0.124795,0.925804,0.936712,0.009859,-0.646950,-0.189218,0.674126,-0.189218,0.000000,0.353090,MOVE,0,12,-2.960379,5.475483,0.122829,1,316.511
26.019610,0.043309,0.127527,0.032777,0.988191,0.996924,0.061171,-0.191856,0.239304,0.312757,0.239304,0.000000,0.315013,MOVE,0,12,-2.950015,5.475483,0.122829,1,316.840
26.073132,0.053522,0.144983,0.093232,1.033031,1.047313,0.355914,0.085782,0.593300,0.697165,0.593300,0.000000,0.326093,MOVE,0,12,-2.918261,5.475483,0.122829,1,318.046
26.115833,0.042701,0.020365,0.082792,0.993065,0.996718,0.043151,0.185964,0.604601,0.634025,0.604601,0.000000,0.290530,MOVE,0,12,-2.892444,5.475483,0.122829,1,319.052
26.159118,0.043285,0.052611,0.097117,0.853670,0.860786,-0.535033,0.204596,0.453412,0.730550,0.453412,0.000000,0.136184,MOVE,0,12,-2.872818,5.475483,0.122829,1,319.577
26.202229,0.043111,0.103040,0.097603,0.985997,0.996160,-0.452872,0.251632,0.271374,0.584855,0.271374,0.000000,0.119110,MOVE,0,12,-2.861118,5.475483,0.122829,1,319.738
26.245717,0.043488,0.097706,0.077936,0.900460,0.909092,-0.265031,0.227809,-0.001988,0.349488,-0.001988,0.000000,0.025382,MOVE,1,13,-2.861205,5.043056,-0.001699,0,319.527
26.293521,0.047804,0.094069,0.001214,0.955535,0.960155,-0.128492,0.053402,-0.037415,0.144089,-0.037415,0.000000,-0.013017,MOVE,0,13,-2.862993,5.043056,-0.001699,0,319.388
26.337402,0.043880,0.143286,-0.031118,0.935796,0.947213,-0.464468,0.336233,-0.095752,0.581336,-0.095752,0.000000,-0.059223,MOVE,0,13,-2.867195,5.043056,-0.001699,0,319.285
26.387642,0.050240,0.086068,0.026222,1.090787,1.094492,-0.742411,0.582106,-0.192269,0.962803,-0.192269,0.000000,0.031742,MOVE,0,13,-2.876855,5.043056,-0.001699,0,319.324
26.430862,0.043220,0.065945,-0.091666,1.048384,1.054448,-0.693237,0.261707,-0.146149,0.755266,-0.146149,0.000000,0.077571,MOVE,0,13,-2.883171,5.043056,-0.001699,0,319.523
26.474333,0.043471,0.028366,-0.013991,1.236518,1.236922,-0.160562,-0.059608,-0.133321,0.217043,-0.133321,0.000000,0.283043,MOVE,0,13,-2.888967,5.043056,-0.001699,0,320.471
26.518863,0.044530,0.124132,-0.020263,1.226039,1.232473,0.088671,-0.181170,-0.295811,0.358035,-0.295811,0.000000,0.463965,MOVE,0,13,-2.902139,5.043056,-0.001699,0,321.548
26.569554,0.050691,0.060854,-0.029430,1.163409,1.165371,-0.037164,0.015222,0.184008,0.188340,0.184008,0.000000,0.566402,MOVE,0,13,-2.892812,5.043056,-0.001699,0,325.050
26.612970,0.043416,-0.047639,-0.002171,1.083964,1.085012,0.007734,-0.036091,0.078634,0.086866,0.078634,0.000000,0.586273,MOVE,0,13,-2.889398,5.043056,-0.001699,0,328.906
26.656672,0.043703,-0.088614,-0.056206,0.920930,0.926890,0.001320,-0.486604,0.016326,0.486880,0.016326,0.000000,0.461846,MOVE,0,13,-2.888684,5.043056,-0.001699,0,332.871
26.707287,0.050614,-0.003949,-0.040526,0.977955,0.978803,-0.053047,-0.325336,-0.138528,0.357558,-0.138528,0.000000,0.396584,MOVE,0,13,-2.895696,5.043056,-0.001699,0,336.423
26.750732,0.043446,-0.002468,-0.109034,0.909477,0.915993,-0.002039,-0.209577,-0.092714,0.229178,-0.092714,0.000000,0.281319,MOVE,0,13,-2.899724,5.043056,-0.001699,0,339.663
26.794232,0.043499,0.008486,-0.110240,0.949199,0.955617,0.290260,-0.091069,0.076496,0.313681,0.076496,0.000000,0.213243,MOVE,0,13,-2.896396,5.043056,-0.001699,0,343.161
26.844942,0.050710,0.016244,-0.034254,0.887544,0.888353,0.147928,0.223221,-0.034376,0.269985,-0.034376,0.000000,0.091436,MOVE,0,13,-2.898139,5.043056,-0.001699,0,346.011
26.888400,0.043458,0.010668,-0.079846,0.890468,0.894105,-0.092142,0.235439,0.258839,0.361828,0.258839,0.000000,-0.013013,MOVE,1,14,-2.886891,4.607574,-0.115079,0,349.105
26.939039,0.050640,0.007031,-0.031842,0.945056,0.945619,-0.110163,0.277588,0.061224,0.304860,0.061224,0.000000,-0.060655,MOVE,0,14,-2.883790,4.607574,-0.115079,0,351.736
26.982572,0.043533,0.021578,-0.067061,0.909477,0.912201,-0.015478,0.246129,-0.016050,0.247137,-0.016050,0.000000,-0.133609,MOVE,0,14,-2.884489,4.607574,-0.115079,0,354.431
27.026699,0.044126,0.048004,-0.064890,0.916056,0.919606,-0.311137,0.163356,0.029154,0.352621,0.029154,0.000000,-0.192603,MOVE,0,14,-2.883203,4.607574,-0.115079,0,357.418
27.070320,0.043622,0.055035,-0.113135,1.009636,1.017445,-0.176136,0.162746,-0.045982,0.244181,-0.045982,0.000000,-0.157642,MOVE,0,14,-2.885208,4.607574,-0.115079,0,0.848
27.120918,0.050597,0.024002,-0.133398,1.063249,1.071854,0.068827,-0.021438,0.073429,0.102901,0.073429,0.000000,-0.077210,MOVE,0,14,-2.881493,4.607574,-0.115079,0,5.769
27.164426,0.043508,-0.007899,-0.062236,1.201425,1.203062,0.082259,-0.075799,0.048991,0.122115,0.048991,0.000000,0.113267,MOVE,0,14,-2.879362,4.607574,-0.115079,0,11.091
27.207836,0.043410,0.039519,-0.071644,1.226526,1.229252,-0.213089,-0.015919,0.020902,0.214703,0.020902,0.000000,0.308267,MOVE,0,14,-2.878454,4.607574,-0.115079,0,16.153
27.259011,0.051175,-0.095279,-0.080811,1.163165,1.169855,-0.081142,-0.215978,0.120779,0.260419,0.120779,0.000000,0.430310,MOVE,0,14,-2.872273,4.607574,-0.115079,0,20.990
27.302411,0.043400,-0.085652,-0.034978,1.061300,1.065325,-0.004479,-0.362280,-0.128149,0.384303,-0.128149,0.000000,0.446072,MOVE,0,14,-2.877835,4.607574,-0.115079,0,24.840
27.353168,0.050757,-0.071089,-0.023399,0.995258,0.998068,-0.228361,-0.429170,-0.208172,0.528839,-0.208172,0.000000,0.399725,MOVE,0,14,-2.888401,4.607574,-0.115079,0,27.667
27.396506,0.043339,0.018668,-0.097938,0.949687,0.954906,-0.256766,-0.435278,-0.214281,0.548919,-0.214281,0.000000,0.319168,MOVE,0,14,-2.897688,4.607574,-0.115079,0,30.131
27.439929,0.043423,0.076613,-0.128573,0.947981,0.959723,-0.134288,-0.226973,0.162318,0.309673,0.162318,0.000000,0.251002,MOVE,0,14,-2.890640,4.607574,-0.115079,0,33.180
27.490423,0.050494,0.043640,-0.125437,0.890712,0.900559,0.093565,0.023787,0.570987,0.579091,0.570987,0.000000,0.136405,MOVE,0,14,-2.861808,4.607574,-0.115079,0,36.084
27.539150,0.048728,-0.027892,-0.095043,0.868048,0.873681,0.415797,-0.092277,0.404831,0.587614,0.404831,0.000000,0.009078,MOVE,1,15,-2.842082,4.177608,-0.247853,0,37.635
27.582557,0.043406,0.052368,-0.042456,0.954317,0.956695,0.328443,0.318224,0.080462,0.464344,0.080462,0.000000,-0.030805,MOVE,0,15,-2.838589,4.177608,-0.247853,0,37.957
27.633437,0.050880,0.014547,-0.006754,0.944325,0.944461,0.170229,0.112057,0.022124,0.204998,0.022124,0.000000,-0.077709,MOVE,0,15,-2.837463,4.177608,-0.247853,0,37.412
27.676428,0.042991,0.080250,-0.000965,0.966989,0.970314,0.008952,-0.003092,-0.147691,0.147994,-0.147691,0.000000,-0.096655,MOVE,0,15,-2.843813,4.177608,-0.247853,0,35.987
27.720080,0.043653,0.113950,-0.106139,0.916544,0.929679,-0.110151,-0.034855,0.013587,0.116330,0.013587,0.000000,-0.150279,MOVE,0,15,-2.843220,4.177608,-0.247853,0,34.988
27.773668,0.053587,0.045095,-0.079122,0.989897,0.994077,0.374265,-0.493907,-0.026428,0.620256,-0.026428,0.000000,-0.140582,MOVE,0,15,-2.844636,4.177608,-0.247853,0,34.467
27.816772,0.043105,0.160257,-0.018816,1.090543,1.102416,0.388010,-0.284380,-0.096678,0.490684,-0.096678,0.000000,-0.034349,MOVE,0,15,-2.848803,4.177608,-0.247853,0,32.747
27.860599,0.043827,0.124132,-0.021952,1.156829,1.163677,0.036151,0.091913,-0.054223,0.112672,-0.054223,0.000000,0.116395,MOVE,0,15,-2.851180,4.177608,-0.247853,0,29.863
27.910905,0.050306,0.056490,-0.006272,1.124174,1.125609,-0.106486,-0.363182,-0.390199,0.543595,-0.390199,0.000000,0.217804,MOVE,0,15,-2.870809,4.177608,-0.247853,0,25.362
27.954536,0.043631,0.159045,-0.115306,1.180468,1.196701,-0.281193,0.032659,-0.246035,0.375059,-0.246035,0.000000,0.373055,MOVE,0,15,-2.881544,4.177608,-0.247853,0,21.145
27.997484,0.042948,0.033700,-0.088771,1.203375,1.207115,-0.057922,0.160330,-0.154710,0.230208,-0.154710,0.000000,0.522153,MOVE,0,15,-2.888188,4.177608,-0.247853,0,17.209
28.040860,0.043376,0.023275,-0.037149,1.027426,1.028361,-0.101599,-0.105397,-0.212437,0.257993,-0.212437,0.000000,0.495463,MOVE,0,15,-2.897403,4.177608,-0.247853,0,12.915
28.091135,0.050275,0.041458,-0.046074,0.946031,0.948059,-0.348083,-0.376621,-0.281465,0.585002,-0.281465,0.000000,0.399170,MOVE,0,15,-2.911553,4.177608,-0.247853,0,8.160
28.141582,0.050447,0.112980,-0.069956,0.916544,0.926127,-0.377710,-0.102953,-0.280854,0.481812,-0.280854,0.000000,0.292767,MOVE,0,15,-2.925722,4.177608,-0.247853,0,3.405
28.184661,0.043080,0.150801,-0.127609,0.925073,0.945931,-0.066779,0.244934,0.069783,0.263291,0.069783,0.000000,0.214828,MOVE,0,15,-2.922715,4.177608,-0.247853,0,359.199
28.228007,0.043346,0.069340,-0.073574,0.931409,0.936880,0.200780,0.337175,0.182487,0.432783,0.182487,0.000000,0.136537,MOVE,0,15,-2.914805,4.177608,-0.247853,0,353.872
28.271816,0.043809,0.040004,-0.059824,0.926048,0.928840,0.089297,0.329845,0.129648,0.365486,0.129648,0.000000,0.058840,MOVE,0,15,-2.909126,4.177608,-0.247853,0,347.512
28.315026,0.043210,0.035640,-0.045109,0.890225,0.892079,-0.116565,0.201563,-0.074992,0.244620,-0.074992,0.000000,-0.044173,MOVE,0,15,-2.912366,4.177608,-0.247853,0,340.608
28.358202,0.043176,0.058914,-0.093354,0.887544,0.894383,-0.117176,0.175601,-0.115920,0.240839,-0.115920,0.000000,-0.134812,MOVE,0,15,-2.917371,4.177608,-0.247853,0,333.091
28.401019,0.042818,0.050671,-0.074056,0.912157,0.916560,0.093560,-0.022023,-0.021541,0.098502,-0.021541,0.000000,-0.196426,MOVE,0,15,-2.918293,4.177608,-0.247853,0,325.853
28.444126,0.043107,0.109101,-0.084188,0.939208,0.949264,0.085602,-0.051026,0.038012,0.106659,0.038012,0.000000,-0.222446,MOVE,0,15,-2.916655,4.177608,-0.247853,0,319.036
28.487389,0.043262,0.078552,-0.126161,1.094442,1.104487,0.187005,0.033579,0.179733,0.261538,0.179733,0.000000,-0.106163,MOVE,0,15,-2.908879,4.177608,-0.247853,0,313.016
28.538485,0.051096,-0.002962,-0.044627,1.129535,1.130420,0.118273,-0.093779,0.104587,0.183634,0.104587,0.000000,0.021831,MOVE,1,16,-2.903535,3.740299,-0.353970,0,307.433
28.581705,0.043220,0.012365,-0.039561,1.149762,1.150509,-0.094922,-0.065053,-0.217337,0.245921,-0.217337,0.000000,0.155106,MOVE,0,16,-2.912928,3.740299,-0.353970,0,301.659
28.624918,0.043213,-0.000000,-0.095284,1.203131,1.206899,-0.006647,-0.008243,-0.159888,0.160239,-0.159888,0.000000,0.325804,MOVE,0,16,-2.919838,3.740299,-0.353970,0,296.508
28.675201,0.050284,-0.018513,-0.017368,1.204350,1.204617,0.275879,0.019246,-0.299777,0.407855,-0.299777,0.000000,0.477379,MOVE,0,16,-2.934911,3.740299,-0.353970,0,291.548
28.718679,0.043477,0.004364,0.004127,1.065443,1.065459,-0.022224,-0.016795,-0.205398,0.207278,-0.205398,0.000000,0.488555,MOVE,0,16,-2.943842,3.740299,-0.353970,0,287.030
28.762195,0.043516,0.025457,0.057542,0.955292,0.957362,-0.304138,-0.432183,-0.166303,0.554020,-0.166303,0.000000,0.401325,MOVE,0,16,-2.951078,3.740299,-0.353970,0,283.021
28.805603,0.043408,0.138437,-0.054035,0.916056,0.928032,-0.416537,-0.148742,-0.039243,0.444035,-0.039243,0.000000,0.296421,MOVE,0,16,-2.952782,3.740299,-0.353970,0,279.683
28.852666,0.047064,0.131891,-0.083464,0.988434,1.000682,-0.134012,-0.058944,0.569790,0.588298,0.569790,0.000000,0.267393,MOVE,0,16,-2.925965,3.740299,-0.353970,0,277.835
28.895846,0.043180,0.052853,-0.048004,0.946031,0.948722,-0.088502,0.138671,0.496486,0.523030,0.496486,0.000000,0.194503,MOVE,0,16,-2.904527,3.740299,-0.353970,0,276.197
28.939165,0.043319,0.046550,-0.027259,0.963334,0.964843,-0.150200,0.149055,0.372786,0.428657,0.372786,0.000000,0.143411,MOVE,0,16,-2.888379,3.740299,-0.353970,0,274.587
28.982427,0.043262,0.038064,-0.029188,0.930922,0.932157,-0.321853,0.123399,0.331247,0.478060,0.331247,0.000000,0.068011,MOVE,0,16,-2.874048,3.740299,-0.353970,0,273.116
29.025855,0.043427,0.051641,-0.034254,0.936527,0.938575,-0.098562,-0.031146,0.090545,0.137415,0.090545,0.000000,0.005928,MOVE,1,17,-2.870116,3.306779,-0.474640,0,271.658
29.069220,0.043365,0.091645,-0.043903,0.934821,0.940328,-0.077163,-0.067782,0.044107,0.111776,0.044107,0.000000,-0.048370,MOVE,0,17,-2.868203,3.306779,-0.474640,0,270.347
29.112449,0.043229,0.089705,-0.059583,0.940182,0.946330,-0.081113,-0.164266,-0.013626,0.183707,-0.013626,0.000000,-0.091836,MOVE,0,17,-2.868792,3.306779,-0.474640,0,269.302
29.156209,0.043760,0.104252,-0.088289,1.053989,1.062806,0.023961,-0.164545,-0.008123,0.166478,-0.008123,0.000000,-0.026127,MOVE,0,17,-2.869148,3.306779,-0.474640,0,268.662
29.206470,0.050261,0.103767,-0.066337,1.040098,1.047365,0.148272,-0.159352,-0.031641,0.219952,-0.031641,0.000000,0.019113,MOVE,0,17,-2.870738,3.306779,-0.474640,0,268.854
29.250037,0.043568,0.028366,-0.094078,1.156829,1.160995,0.367267,-0.174624,-0.067377,0.412212,-0.067377,0.000000,0.162097,MOVE,0,17,-2.873674,3.306779,-0.474640,0,271.857
29.294513,0.044475,0.051883,-0.059342,1.111745,1.114536,-0.114094,-0.120257,-0.323635,0.363619,-0.323635,0.000000,0.248970,MOVE,0,17,-2.888067,3.306779,-0.474640,0,273.574
29.337802,0.043289,0.085583,-0.210590,1.144400,1.166758,-0.231075,0.077969,0.059988,0.251144,0.059988,0.000000,0.374155,MOVE,0,17,-2.885470,3.306779,-0.474640,0,276.504
29.380525,0.042723,-0.031101,-0.113859,1.137333,1.143441,-0.033155,0.253593,0.105803,0.276772,0.105803,0.000000,0.465837,MOVE,0,17,-2.880950,3.306779,-0.474640,0,281.282
29.423323,0.042798,-0.097994,-0.083464,0.993065,1.001372,0.079543,0.055973,-0.099439,0.139098,-0.099439,0.000000,0.420488,MOVE,0,17,-2.885206,3.306779,-0.474640,0,286.105
29.466723,0.043400,-0.055044,-0.133639,0.921174,0.932444,-0.093637,-0.054594,-0.214282,0.240135,-0.214282,0.000000,0.317639,MOVE,0,17,-2.894506,3.306779,-0.474640,0,290.582
29.517302,0.050580,-0.032335,-0.124955,0.975031,0.983537,0.376118,-0.035351,-0.169383,0.414011,-0.169383,0.000000,0.271058,MOVE,0,17,-2.903073,3.306779,-0.474640,0,296.506
29.560938,0.043636,-0.010367,-0.068508,1.008905,1.011281,0.611301,0.095374,0.008379,0.618753,0.008379,0.000000,0.254105,MOVE,0,17,-2.902708,3.306779,-0.474640,0,302.888
29.604232,0.043294,-0.038506,0.009954,0.991359,0.992156,0.248142,0.273746,0.097870,0.382217,0.097870,0.000000,0.221636,MOVE,0,17,-2.898470,3.306779,-0.474640,0,308.993
29.654721,0.050489,-0.009380,-0.032083,0.930922,0.931522,-0.145866,0.278939,0.121694,0.337481,0.121694,0.000000,0.137842,MOVE,0,17,-2.892326,3.306779,-0.474640,0,315.533
29.698082,0.043361,0.024729,-0.039802,0.991846,0.992952,0.142157,0.187309,0.050528,0.240513,0.050528,0.000000,0.117715,MOVE,0,17,-2.890135,3.306779,-0.474640,0,309.807
29.741541,0.043460,0.049701,0.001942,1.008661,1.009887,0.219126,0.159209,0.023650,0.271888,0.023650,0.000000,0.114841,MOVE,0,17,-2.889107,3.306779,-0.474640,0,299.398
29.792062,0.050520,0.063278,-0.015921,0.958703,0.960921,0.011721,-0.202703,-0.032236,0.205584,-0.032236,0.000000,0.068186,MOVE,0,17,-2.890736,3.306779,-0.474640,0,290.055
29.835680,0.043618,0.154196,-0.019057,1.010123,1.022002,-0.081729,-0.109501,0.101835,0.170413,0.101835,0.000000,0.081170,MOVE,0,17,-2.886294,3.306779,-0.474640,0,281.956
29.879046,0.043366,0.133588,-0.046315,0.983561,0.993671,0.046870,0.008088,0.221839,0.226880,0.221839,0.000000,0.067357,MOVE,0,17,-2.876674,3.306779,-0.474640,0,274.861
29.929455,0.050410,0.066673,0.000971,0.959922,0.962235,0.354135,-0.430513,0.187936,0.588280,0.187936,0.000000,0.026633,MOVE,1,18,-2.867200,2.873614,-0.596573,0,267.692
29.972942,0.043487,0.131406,0.022337,1.063249,1.071572,0.310153,-0.282684,0.267653,0.497738,0.267653,0.000000,0.088384,MOVE,0,18,-2.855561,2.873614,-0.596573,0,262.283
30.016312,0.043370,0.024245,0.059484,1.072754,1.074675,0.192561,-0.379200,0.048047,0.427997,0.048047,0.000000,0.146753,MOVE,0,18,-2.853477,2.873614,-0.596573,0,267.842
30.066844,0.050532,0.130921,-0.023640,1.086401,1.094516,0.172708,-0.460140,0.267959,0.559785,0.267959,0.000000,0.217142,MOVE,0,18,-2.839937,2.873614,-0.596573,0,272.587
30.116800,0.049957,0.057945,0.048559,1.214829,1.217179,0.216080,0.057568,0.594772,0.635420,0.594772,0.000000,0.390889,MOVE,0,18,-2.810224,2.873614,-0.596573,0,278.673
30.160124,0.043324,-0.052576,0.075023,1.095905,1.099727,0.137278,0.027941,0.536434,0.554425,0.536434,0.000000,0.441554,MOVE,0,18,-2.786984,2.873614,-0.596573,0,283.499
30.203481,0.043357,-0.011108,0.064826,1.030594,1.032691,-0.003221,-0.138214,0.569421,0.585964,0.569421,0.000000,0.426820,MOVE,0,18,-2.762295,2.873614,-0.596573,0,287.922
30.254216,0.050735,-0.013823,0.083521,1.034737,1.038194,-0.029488,-0.078655,0.576751,0.582836,0.576751,0.000000,0.418513,MOVE,0,18,-2.733034,2.873614,-0.596573,0,292.371
30.305945,0.051730,-0.014563,0.064097,0.956998,0.959252,0.096961,-0.039559,0.641808,0.650296,0.641808,0.000000,0.339989,MOVE,0,18,-2.699833,2.873614,-0.596573,0,296.312
30.349121,0.043175,-0.035051,0.053900,0.919225,0.921470,0.344056,-0.137298,0.625621,0.727067,0.625621,0.000000,0.235313,MOVE,0,18,-2.672822,2.873614,-0.596573,0,300.014
30.391948,0.042827,-0.010367,0.118968,0.976981,0.984252,0.556943,0.050849,0.485427,0.740547,0.485427,0.000000,0.197609,MOVE,0,18,-2.652032,2.873614,-0.596573,0,303.157
30.434923,0.042975,-0.020734,0.111199,1.014023,1.020312,0.280221,0.190431,0.282009,0.440814,0.282009,0.000000,0.196129,MOVE,0,18,-2.639913,2.873614,-0.596573,0,305.384
30.478258,0.043335,0.007031,0.098574,1.016216,1.021010,0.183398,0.161110,0.218173,0.327400,0.218173,0.000000,0.195425,MOVE,0,18,-2.630458,2.873614,-0.596573,0,306.874
30.521745,0.043487,-0.006911,0.114841,1.043510,1.049833,0.230130,0.059706,-0.022813,0.238841,-0.022813,0.000000,0.220732,MOVE,0,18,-2.631450,2.873614,-0.596573,0,307.420
30.565267,0.043522,-0.043196,0.152231,1.030594,1.042672,0.479974,-0.002297,-0.355124,0.597070,-0.355124,0.000000,0.237063,MOVE,0,18,-2.646906,2.873614,-0.596573,0,306.965
30.608598,0.043331,0.028124,0.131836,0.978687,0.987927,0.443932,0.040159,-0.486460,0.659797,-0.486460,0.000000,0.202491,MOVE,0,18,-2.667985,2.873614,-0.596573,0,305.922
30.651927,0.043329,0.118071,0.172140,0.970645,0.992836,0.332144,-0.146155,-0.059770,0.367768,-0.059770,0.000000,0.175794,MOVE,0,18,-2.670575,2.873614,-0.596573,0,305.417
30.702479,0.050552,0.012850,0.214629,1.053258,1.074980,0.388038,-0.239007,0.078591,0.462466,0.078591,0.000000,0.225697,MOVE,0,18,-2.666602,2.873614,-0.596573,0,304.903
30.745866,0.043387,0.097948,0.221912,0.997207,1.026285,0.036788,0.026412,-0.075036,0.087643,-0.075036,0.000000,0.226784,MOVE,0,18,-2.669857,2.873614,-0.596573,0,303.956
30.789171,0.043305,0.110555,0.197876,1.004762,1.030012,-0.102795,0.213642,-0.108022,0.260535,-0.108022,0.000000,0.231116,MOVE,0,18,-2.674535,2.873614,-0.596573,0,302.781
30.839871,0.050700,0.014789,0.090076,1.094442,1.098243,0.166291,0.422252,-0.523105,0.692524,-0.523105,0.000000,0.296423,MOVE,0,18,-2.701057,2.873614,-0.596573,0,300.574
30.883209,0.043338,-0.027152,0.210016,1.078115,1.098715,0.848628,0.134535,-0.528603,1.008806,-0.528603,0.000000,0.355625,MOVE,0,18,-2.723966,2.873614,-0.596573,0,297.762
30.926546,0.043337,-0.078247,0.261245,0.969426,1.007054,0.512957,0.310770,-0.371611,0.705548,-0.371611,0.000000,0.326411,MOVE,0,18,-2.740070,2.873614,-0.596573,0,294.821
30.970034,0.043488,-0.046652,0.218756,0.896804,0.924277,-0.196257,-0.025817,-0.073508,0.211156,-0.073508,0.000000,0.225620,MOVE,0,18,-2.743267,2.873614,-0.596573,0,292.205
31.020542,0.050509,-0.019253,0.231624,1.054964,1.080263,-0.434800,0.077419,-0.186213,0.479291,-0.186213,0.000000,0.275295,MOVE,0,18,-2.752672,2.873614,-0.596573,0,289.209
31.064026,0.043484,-0.039247,0.156116,1.001350,1.014207,-0.515129,0.047487,-0.081144,0.523639,-0.081144,0.000000,0.260551,MOVE,0,18,-2.756201,2.873614,-0.596573,0,286.196
31.107296,0.043270,-0.038506,0.125038,0.931409,0.940553,-0.396927,0.348338,-0.145896,0.547883,-0.145896,0.000000,0.180994,MOVE,0,18,-2.762514,2.873614,-0.596573,0,283.138
31.157750,0.050454,-0.045418,0.089833,0.994283,0.999366,-0.735041,0.185542,0.126244,0.768536,0.126244,0.000000,0.162324,MOVE,0,18,-2.756144,2.873614,-0.596573,0,280.390
31.201006,0.043256,-0.031101,0.082792,0.953342,0.957436,-0.598818,0.156832,0.247196,0.666547,0.247196,0.000000,0.107783,MOVE,0,18,-2.745451,2.873614,-0.596573,0,277.722
31.244426,0.043421,-0.011601,0.057542,0.875603,0.877568,-0.507188,-0.013600,0.226732,0.555726,0.226732,0.000000,-0.013184,MOVE,1,19,-2.735607,2.460193,-0.774289,0,274.338
31.292534,0.048107,0.021820,0.025250,0.813216,0.813901,-0.583546,0.206923,0.301257,0.688548,0.301257,0.000000,-0.179355,MOVE,0,19,-2.721114,2.460193,-0.774289,0,270.257
31.336072,0.043538,-0.016785,0.017481,0.823939,0.824295,-0.498941,0.178823,0.375477,0.649541,0.375477,0.000000,-0.319553,MOVE,0,19,-2.704766,2.460193,-0.774289,0,265.922
31.389675,0.053603,0.012607,0.075266,0.871947,0.875280,-0.648298,0.322987,0.299730,0.783868,0.299730,0.000000,-0.399845,MOVE,0,19,-2.688700,2.460193,-0.774289,0,260.483
31.432480,0.042805,0.041943,0.026464,0.885594,0.886982,-0.669372,0.382852,0.037058,0.772016,0.037058,0.000000,-0.461577,MOVE,0,19,-2.687114,2.460193,-0.774289,0,253.917
31.476108,0.043628,-0.083677,-0.110481,0.882426,0.893244,-0.532844,0.245712,0.225510,0.628611,0.225510,0.000000,-0.511500,MOVE,0,19,-2.677275,2.460193,-0.774289,0,247.493
31.519740,0.043632,-0.056525,-0.001206,0.983561,0.985184,-0.376768,0.486088,-0.108328,0.624476,-0.108328,0.000000,-0.473684,MOVE,0,19,-2.682002,2.460193,-0.774289,0,240.522
31.566639,0.046899,-0.128108,-0.088047,0.984292,0.996491,-0.645549,0.263122,-0.031053,0.697804,-0.031053,0.000000,-0.429474,MOVE,0,19,-2.683458,2.460193,-0.774289,0,234.177
31.613059,0.046420,-0.061956,0.061669,1.096148,1.099629,-0.198090,0.132702,-0.085726,0.253374,-0.085726,0.000000,-0.296861,MOVE,0,19,-2.687437,2.460193,-0.774289,0,227.999
31.656296,0.043237,-0.128848,-0.102039,0.882914,0.898081,-0.602788,0.229219,0.031866,0.645686,0.031866,0.000000,-0.358902,MOVE,0,19,-2.686060,2.460193,-0.774289,0,222.114
31.699747,0.043452,-0.133538,-0.162104,1.010611,1.032204,-0.142501,0.079252,-0.032581,0.166280,-0.032581,0.000000,-0.294028,MOVE,0,19,-2.687475,2.460193,-0.774289,0,216.600
31.750091,0.050344,-0.082937,-0.115788,0.802250,0.814795,0.247231,-0.081100,0.088982,0.274987,0.088982,0.000000,-0.431310,MOVE,0,19,-2.682995,2.460193,-0.774289,0,211.478
31.800271,0.050179,-0.097253,-0.061271,0.979905,0.986624,0.192253,-0.049946,0.008958,0.198837,0.008958,0.000000,-0.400218,MOVE,0,19,-2.682546,2.460193,-0.774289,0,206.451
31.843437,0.043167,-0.147608,-0.059100,0.847334,0.862123,0.167207,-0.107368,-0.132762,0.238981,-0.132762,0.000000,-0.484286,MOVE,0,19,-2.688277,2.460193,-0.774289,0,201.302
31.886681,0.043243,-0.158468,-0.061995,0.987703,1.002254,0.137886,0.058482,-0.214007,0.261212,-0.214007,0.000000,-0.433828,MOVE,0,19,-2.697531,2.460193,-0.774289,0,196.161
31.929995,0.043314,-0.085405,-0.000482,1.080065,1.083436,0.425298,-0.100343,-0.290366,0.524652,-0.290366,0.000000,-0.315353,MOVE,0,19,-2.710108,2.460193,-0.774289,0,190.907
31.980785,0.050790,-0.112804,-0.096973,0.994283,1.005349,-0.002002,0.036491,-0.266542,0.269036,-0.266542,0.000000,-0.279003,MOVE,0,19,-2.723646,2.460193,-0.774289,0,185.981
32.024392,0.043607,-0.132798,-0.199976,0.889250,0.921081,-0.214889,-0.023068,-0.249132,0.329812,-0.249132,0.000000,-0.322130,MOVE,0,19,-2.734510,2.460193,-0.774289,0,181.232
32.074821,0.050428,-0.121690,-0.116271,1.090300,1.103214,0.040147,-0.219767,-0.055183,0.230118,-0.055183,0.000000,-0.197024,MOVE,0,19,-2.737293,2.460193,-0.774289,0,176.804
32.128352,0.053532,-0.199690,-0.200459,1.043023,1.080720,-0.328204,0.041989,-0.145591,0.361494,-0.145591,0.000000,-0.104674,MOVE,0,19,-2.745086,2.460193,-0.774289,0,172.555
32.171846,0.043494,-0.135513,-0.035219,1.280627,1.288258,0.312899,-0.212742,-0.059153,0.382967,-0.059153,0.000000,0.165226,MOVE,0,19,-2.747659,2.460193,-0.774289,0,168.547
32.215161,0.043315,-0.138968,-0.226270,1.103947,1.135433,-0.206642,-0.011156,-0.270512,0.340591,-0.270512,0.000000,0.270593,MOVE,0,19,-2.759376,2.460193,-0.774289,0,164.417
32.265685,0.050523,-0.134772,-0.124473,1.232375,1.245955,-0.123870,-0.158680,-0.332515,0.388703,-0.332515,0.000000,0.464894,MOVE,0,19,-2.776176,2.460193,-0.774289,0,160.698
32.317302,0.051618,-0.231532,-0.140635,1.078846,1.112337,-0.385320,0.428361,-0.428421,0.717990,-0.428421,0.000000,0.519508,MOVE,0,19,-2.798290,2.460193,-0.774289,0,157.240
32.360839,0.043536,-0.276703,-0.195875,1.219215,1.265471,-0.154719,0.152250,-0.153532,0.265876,-0.153532,0.000000,0.706481,MOVE,0,19,-2.804975,2.460193,-0.774289,0,154.937
32.403779,0.042940,-0.262386,-0.128091,1.180468,1.216042,-0.067056,0.194707,-0.053344,0.212727,-0.053344,0.000000,0.830271,MOVE,0,19,-2.807265,2.460193,-0.774289,0,153.418
32.446937,0.043158,-0.208329,-0.182367,1.106871,1.140974,-0.080798,0.009913,0.239566,0.253019,0.239566,0.000000,0.874121,MOVE,0,19,-2.796926,2.460193,-0.774289,0,152.514
32.497440,0.050503,-0.100956,-0.122060,1.093224,1.104640,-0.184950,0.070388,0.108536,0.225701,0.108536,0.000000,0.880885,MOVE,0,19,-2.791445,2.460193,-0.774289,0,151.630
32.541171,0.043731,-0.136500,-0.197323,1.102972,1.128767,-0.212134,-0.079579,0.012630,0.226921,0.012630,0.000000,0.908687,MOVE,0,19,-2.790892,2.460193,-0.774289,0,150.858
32.584080,0.042908,-0.094785,-0.178990,0.978687,0.999424,-0.191975,-0.143720,-0.021579,0.240781,-0.021579,0.000000,0.817300,MOVE,0,19,-2.791818,2.460193,-0.774289,0,150.212
32.626930,0.042851,-0.229557,-0.130021,1.006224,1.040235,0.046262,-0.157464,0.164124,0.232103,0.164124,0.000000,0.771781,MOVE,0,19,-2.784785,2.460193,-0.774289,0,150.300
32.670337,0.043407,-0.109101,-0.139670,0.992334,1.008036,-0.028263,-0.116231,0.083185,0.145699,0.083185,0.000000,0.701836,MOVE,0,19,-2.781174,2.460193,-0.774289,0,149.964
