t,dt,acc_x_g,acc_y_g,acc_z_g,acc_mag_g,gyro_x_rads,gyro_y_rads,gyro_z_rads,gyro_mag_rads,yaw_rate_used,gyro_bias,hp,state,step,step_count,heading_rad,pos_x_m,pos_y_m,walkable,sf_yaw_deg
0.000552,0.000552,0.002909,-0.034013,1.019384,1.019955,0.004398,-0.000459,-0.003222,0.005471,-0.003222,0.000000,0.017960,MOVE,0,0,-0.000002,1.000000,0.250000,1,227.124
0.150155,0.149603,0.002667,-0.033048,1.020115,1.020654,-0.001461,-0.000706,-0.001835,0.002449,-0.001835,0.000000,0.034752,MOVE,0,0,-0.000276,1.000000,0.250000,1,226.950
0.191197,0.041042,0.002424,-0.032565,1.021090,1.021612,0.000318,-0.000306,-0.002910,0.002943,-0.002910,0.000000,0.050728,MOVE,0,0,-0.000396,1.000000,0.250000,1,226.672
0.252147,0.060950,0.002424,-0.033289,1.022065,1.022609,0.001153,-0.001437,-0.003071,0.003582,-0.003071,0.000000,0.066003,MOVE,0,0,-0.000583,1.000000,0.250000,1,226.241
0.299767,0.047620,0.002909,-0.034013,1.021821,1.022391,0.002573,-0.001651,-0.002038,0.003674,-0.002038,0.000000,0.079555,MOVE,0,0,-0.000680,1.000000,0.250000,1,225.628
0.360807,0.061039,0.003152,-0.033530,1.021821,1.022376,0.000954,-0.002480,-0.003424,0.004334,-0.003424,0.000000,0.091738,MOVE,0,0,-0.000889,1.000000,0.250000,1,225.019
0.405666,0.044859,0.001697,-0.034737,1.023527,1.024117,0.000261,-0.001506,0.073292,0.073308,0.073292,0.000000,0.104269,MOVE,0,0,0.002399,1.000000,0.250000,1,224.941
0.453838,0.048172,0.002667,-0.033289,1.020602,1.021149,0.000754,-0.001402,-0.003815,0.004133,-0.003815,0.000000,0.112876,MOVE,0,0,0.002215,1.000000,0.250000,1,224.795
0.499499,0.045660,0.002667,-0.032807,1.021090,1.021620,-0.000791,-0.002523,-0.078620,0.078664,-0.078620,0.000000,0.121047,MOVE,0,0,-0.001375,1.000000,0.250000,1,224.358
0.548315,0.048816,0.001940,-0.033530,1.018653,1.019206,0.002442,-0.001232,0.000798,0.002849,0.000798,0.000000,0.126228,MOVE,0,0,-0.001336,1.000000,0.250000,1,224.026
0.596020,0.047705,0.002667,-0.033289,1.021333,1.021879,0.000569,-0.000565,-0.001934,0.002093,-0.001934,0.000000,0.133296,MOVE,0,0,-0.001428,1.000000,0.250000,1,223.671
0.638097,0.042076,0.001697,-0.033289,1.023283,1.023826,0.002268,-0.001428,-0.001257,0.002960,-0.001257,0.000000,0.141410,MOVE,0,0,-0.001481,1.000000,0.250000,1,223.461
0.687658,0.049561,0.001697,-0.033048,1.021821,1.022357,0.000693,0.001020,-0.000920,0.001538,-0.000920,0.000000,0.147390,MOVE,0,0,-0.001526,1.000000,0.250000,1,223.164
0.733172,0.045514,0.001940,-0.032565,1.020359,1.020880,-0.000878,-0.001057,0.001604,0.002112,0.001604,0.000000,0.151443,MOVE,0,0,-0.001453,1.000000,0.250000,1,222.733
0.775370,0.042198,0.002667,-0.033289,1.021333,1.021879,0.000287,-0.002211,0.000964,0.002429,0.000964,0.000000,0.155990,MOVE,0,0,-0.001413,1.000000,0.250000,1,222.441
0.823947,0.048578,0.001697,-0.032565,1.020602,1.021123,0.000518,0.000531,0.001797,0.001944,0.001797,0.000000,0.159402,MOVE,0,0,-0.001325,1.000000,0.250000,1,222.132
0.869684,0.045737,0.001455,-0.033772,1.021577,1.022136,-0.000154,-0.000056,0.000522,0.000547,0.000522,0.000000,0.163384,MOVE,0,0,-0.001301,1.000000,0.250000,1,221.907
0.919222,0.049537,0.002909,-0.034737,1.020602,1.021197,0.000174,-0.000318,0.001087,0.001146,0.001087,0.000000,0.166124,MOVE,0,0,-0.001248,1.000000,0.250000,1,221.653
0.970831,0.051609,0.002667,-0.032565,1.019140,1.019664,0.004064,-0.003625,0.002033,0.005813,0.002033,0.000000,0.167209,MOVE,0,0,-0.001143,1.000000,0.250000,1,221.675
1.017045,0.046214,0.002667,-0.033772,1.018897,1.019460,0.001210,-0.001063,0.002868,0.003289,0.002868,0.000000,0.168002,MOVE,0,0,-0.001010,1.000000,0.250000,1,221.476
1.058506,0.041461,0.000970,-0.034254,1.020115,1.020690,-0.001862,-0.001286,-0.075032,0.075066,-0.075032,0.000000,0.169823,MOVE,0,0,-0.004121,1.000000,0.250000,1,221.333
1.108159,0.049654,0.002667,-0.033048,1.019140,1.019679,-0.001250,-0.000317,0.003273,0.003517,0.003273,0.000000,0.170552,MOVE,0,0,-0.003959,1.000000,0.250000,1,221.190
1.152695,0.044536,0.001697,-0.033772,1.019384,1.019945,-0.000367,-0.000291,0.002505,0.002548,0.002505,0.000000,0.171447,MOVE,0,0,-0.003847,1.000000,0.250000,1,221.068
1.196066,0.043371,0.001940,-0.032807,1.020602,1.021131,-0.000724,-0.001153,0.002361,0.002725,0.002361,0.000000,0.173320,MOVE,0,0,-0.003745,1.000000,0.250000,1,221.002
1.246294,0.050228,0.002182,-0.033772,1.021090,1.021650,-0.000123,0.001292,0.000957,0.001613,0.000957,0.000000,0.175474,MOVE,0,0,-0.003697,1.000000,0.250000,1,221.047
1.304355,0.058060,0.003394,-0.032565,1.021090,1.021615,0.000459,-0.000508,0.000865,0.001103,0.000865,0.000000,0.177380,MOVE,0,0,-0.003646,1.000000,0.250000,1,221.073
1.341787,0.037432,0.002182,-0.033530,1.021821,1.022373,-0.000810,0.000393,0.000216,0.000926,0.000216,0.000000,0.179778,MOVE,0,0,-0.003638,1.000000,0.250000,1,221.215
1.384053,0.042266,0.001697,-0.034013,1.020359,1.020927,0.000076,0.000733,-0.000095,0.000743,-0.000095,0.000000,0.180634,MOVE,0,0,-0.003642,1.000000,0.250000,1,221.853
1.426940,0.042887,0.002424,-0.034978,1.018653,1.019256,-0.001489,0.001007,0.000515,0.001870,0.000515,0.000000,0.179901,MOVE,0,0,-0.003620,1.000000,0.250000,1,222.318
1.478493,0.051553,0.001940,-0.033048,1.019871,1.020409,0.000677,-0.002001,0.002027,0.002927,0.002027,0.000000,0.180279,MOVE,0,0,-0.003516,1.000000,0.250000,1,222.403
1.527868,0.049375,0.002424,-0.033289,1.017922,1.018469,0.001269,-0.000490,0.079458,0.079470,0.079458,0.000000,0.178873,MOVE,0,0,0.000407,1.000000,0.250000,1,222.506
1.580985,0.053117,0.001697,-0.033530,1.019140,1.019693,0.000325,-0.000762,0.002951,0.003065,0.002951,0.000000,0.178709,MOVE,0,0,0.000564,1.000000,0.250000,1,222.416
1.623368,0.042383,0.000970,-0.033048,1.020602,1.021138,0.001219,0.000202,0.000418,0.001305,0.000418,0.000000,0.179862,MOVE,0,0,0.000582,1.000000,0.250000,1,222.317
1.665951,0.042583,0.003879,-0.034254,1.018165,1.018749,-0.000948,-0.001890,0.001273,0.002468,0.001273,0.000000,0.178750,MOVE,0,0,0.000636,1.000000,0.250000,1,222.003
1.710835,0.044883,0.001940,-0.033289,1.018653,1.019198,-0.002153,-0.000320,0.001581,0.002690,0.001581,0.000000,0.178153,MOVE,0,0,0.000707,1.000000,0.250000,1,221.756
1.754501,0.043667,0.001212,-0.031842,1.021333,1.021830,-0.000054,-0.000304,0.001177,0.001217,0.001177,0.000000,0.179985,MOVE,0,0,0.000758,1.000000,0.250000,1,221.809
1.797066,0.042564,0.002909,-0.033289,1.018653,1.019201,-0.001033,-0.000604,0.003501,0.003700,0.003501,0.000000,0.179268,MOVE,0,0,0.000908,1.000000,0.250000,1,221.938
1.839992,0.042927,0.002424,-0.033530,1.019140,1.019695,-0.000135,-0.000904,0.001485,0.001744,0.001485,0.000000,0.179066,MOVE,0,0,0.000971,1.000000,0.250000,1,222.000
1.883303,0.043310,0.002182,-0.033289,1.020115,1.020660,-0.001619,-0.000579,0.003518,0.003916,0.003518,0.000000,0.179754,MOVE,0,0,0.001124,1.000000,0.250000,1,221.790
1.933390,0.050087,0.001940,-0.033289,1.017922,1.018468,0.000804,-0.001757,0.001637,0.002532,0.001637,0.000000,0.178399,MOVE,0,0,0.001206,1.000000,0.250000,1,221.351
1.983162,0.049772,0.002424,-0.032565,1.018409,1.018933,0.000789,-0.002936,0.001955,0.003614,0.001955,0.000000,0.177599,MOVE,0,0,0.001303,1.000000,0.250000,1,220.850
2.036694,0.053533,0.002424,-0.032565,1.018897,1.019420,0.000494,-0.001659,0.000937,0.001968,0.000937,0.000000,0.177317,MOVE,0,0,0.001353,1.000000,0.250000,1,220.668
2.086465,0.049771,0.001940,-0.034737,1.017922,1.018516,-0.000131,-0.001026,0.004454,0.004573,0.004454,0.000000,0.176249,MOVE,0,0,0.001575,1.000000,0.250000,1,220.780
2.129267,0.042802,0.003637,-0.035219,1.017434,1.018050,0.002609,-0.000680,0.003378,0.004322,0.003378,0.000000,0.174870,MOVE,0,0,0.001719,1.000000,0.250000,1,220.935
2.180603,0.051336,0.002424,-0.032807,1.017922,1.018453,0.000477,0.002381,0.002324,0.003362,0.002324,0.000000,0.173990,MOVE,0,0,0.001839,1.000000,0.250000,1,220.867
2.222925,0.042322,0.000485,-0.031118,1.019628,1.020102,0.001040,-0.000585,0.001919,0.002259,0.001919,0.000000,0.174684,MOVE,0,0,0.001920,1.000000,0.250000,1,220.583
2.267853,0.044929,0.001212,-0.034013,1.020359,1.020926,-0.001384,0.000951,0.002724,0.003200,0.002724,0.000000,0.176049,MOVE,0,0,0.002042,1.000000,0.250000,1,220.162
2.317684,0.049831,0.003152,-0.035219,1.018165,1.018779,0.000962,-0.001419,0.077429,0.077448,0.077429,0.000000,0.175345,MOVE,0,0,0.005901,1.000000,0.250000,1,219.918
2.359717,0.042033,0.002667,-0.034013,1.017922,1.018493,0.001159,0.001019,0.001353,0.002053,0.001353,0.000000,0.174455,MOVE,0,0,0.005957,1.000000,0.250000,1,219.585
2.397837,0.038120,0.003152,-0.032807,1.019140,1.019673,-0.001185,-0.000803,0.002543,0.002919,0.002543,0.000000,0.174715,MOVE,0,0,0.006054,1.000000,0.250000,1,219.037
2.446283,0.048445,0.001212,-0.033289,1.019871,1.020415,-0.000551,0.001038,0.001836,0.002180,0.001836,0.000000,0.175617,MOVE,0,0,0.006143,1.000000,0.250000,1,218.520
2.491217,0.044935,0.001940,-0.032807,1.019140,1.019670,-0.001700,0.000661,0.001450,0.002330,0.001450,0.000000,0.175758,MOVE,0,0,0.006209,1.000000,0.250000,1,218.358
2.532651,0.041434,0.002182,-0.033530,1.019871,1.020425,0.001007,-0.003241,0.000403,0.003418,0.000403,0.000000,0.176565,MOVE,0,0,0.006225,1.000000,0.250000,1,218.184
2.577583,0.044932,0.000242,-0.033048,1.020115,1.020650,0.001868,0.001339,0.000112,0.002301,0.000112,0.000000,0.177494,MOVE,0,0,0.006230,1.000000,0.250000,1,218.087
2.626118,0.048534,0.001697,-0.031601,1.018897,1.019388,0.001600,0.000402,-0.001360,0.002138,-0.001360,0.000000,0.177193,MOVE,0,0,0.006164,1.000000,0.250000,1,217.757
2.671154,0.045037,0.003394,-0.033772,1.018897,1.019462,-0.002357,-0.000209,0.000465,0.002412,0.000465,0.000000,0.176990,MOVE,0,0,0.006185,1.000000,0.250000,1,217.759
2.712944,0.041790,0.003637,-0.032807,1.019384,1.019918,-0.000488,-0.000788,-0.000459,0.001035,-0.000459,0.000000,0.177217,MOVE,0,0,0.006166,1.000000,0.250000,1,217.882
2.757862,0.044918,0.000727,-0.033772,1.019628,1.020187,-0.000204,0.001653,-0.000176,0.001675,-0.000176,0.000000,0.177664,MOVE,0,0,0.006158,1.000000,0.250000,1,218.009
2.799303,0.041441,0.002667,-0.032565,1.020846,1.021369,0.000097,0.001005,-0.001984,0.002226,-0.001984,0.000000,0.179129,MOVE,0,0,0.006076,1.000000,0.250000,1,218.081
2.844440,0.045137,0.001455,-0.033772,1.018897,1.019457,0.001904,-0.002318,0.000147,0.003003,0.000147,0.000000,0.178728,MOVE,0,0,0.006083,1.000000,0.250000,1,218.103
2.892968,0.048528,0.001697,-0.032807,1.020602,1.021131,-0.000849,-0.000841,-0.001668,0.002052,-0.001668,0.000000,0.179873,MOVE,0,0,0.006002,1.000000,0.250000,1,218.195
2.937952,0.044984,0.002424,-0.034254,1.019384,1.019962,-0.000837,0.000968,-0.001039,0.001648,-0.001039,0.000000,0.179851,MOVE,0,0,0.005955,1.000000,0.250000,1,218.234
2.979348,0.041395,0.002182,-0.033772,1.018409,1.018971,0.000961,0.001546,0.000198,0.001831,0.000198,0.000000,0.178940,MOVE,0,0,0.005963,1.000000,0.250000,1,218.083
3.024483,0.045135,0.003152,-0.033048,1.018897,1.019437,-0.000888,0.000929,0.001735,0.002159,0.001735,0.000000,0.178540,MOVE,0,0,0.006041,1.000000,0.250000,1,217.737
3.073109,0.048627,0.001212,-0.033772,1.020846,1.021405,0.000272,-0.001475,-0.000118,0.001504,-0.000118,0.000000,0.179951,MOVE,0,0,0.006036,1.000000,0.250000,1,217.249
3.118124,0.045014,0.002182,-0.033048,1.018653,1.019191,0.000283,0.000065,0.001104,0.001142,0.001104,0.000000,0.179227,MOVE,0,0,0.006085,1.000000,0.250000,1,216.973
3.159748,0.041625,0.000970,-0.033530,1.017434,1.017987,0.000570,0.000657,-0.000122,0.000878,-0.000122,0.000000,0.177493,MOVE,0,0,0.006080,1.000000,0.250000,1,216.741
3.205420,0.045672,0.000485,-0.032324,1.019384,1.019896,0.001207,0.001786,0.001671,0.002727,0.001671,0.000000,0.177651,MOVE,0,0,0.006157,1.000000,0.250000,1,216.555
3.247505,0.042085,0.002909,-0.033289,1.017191,1.017739,-0.001771,0.000836,0.000487,0.002018,0.000487,0.000000,0.175851,MOVE,0,0,0.006177,1.000000,0.250000,1,216.366
3.298556,0.051051,0.003637,-0.034013,1.019140,1.019714,-0.000552,0.001145,0.000777,0.001490,0.000777,0.000000,0.176009,MOVE,0,0,0.006217,1.000000,0.250000,1,216.270
3.343524,0.044967,0.000970,-0.032324,1.019871,1.020384,0.000907,0.000238,-0.000453,0.001041,-0.000453,0.000000,0.176753,MOVE,0,0,0.006196,1.000000,0.250000,1,216.203
3.390735,0.047212,0.001697,-0.034495,1.017434,1.018020,0.000267,-0.000089,0.076136,0.076137,0.076136,0.000000,0.175296,MOVE,0,0,0.009791,1.000000,0.250000,1,216.290
3.434578,0.043843,0.001455,-0.033048,1.017678,1.018216,-0.003060,0.004129,-0.001097,0.005255,-0.001097,0.000000,0.174161,MOVE,0,0,0.009743,1.000000,0.250000,1,216.246
3.477931,0.043353,0.002667,-0.032324,1.017678,1.018195,-0.000896,0.000446,-0.000137,0.001010,-0.000137,0.000000,0.173120,MOVE,0,0,0.009737,1.000000,0.250000,1,216.378
3.521019,0.043088,0.001697,-0.033772,1.019871,1.020432,-0.001417,0.000409,-0.002217,0.002663,-0.002217,0.000000,0.174197,MOVE,0,0,0.009641,1.000000,0.250000,1,216.751
3.563957,0.042939,0.002182,-0.034254,1.019384,1.019962,0.000710,0.001004,-0.001837,0.002210,-0.001837,0.000000,0.174742,MOVE,0,0,0.009562,1.000000,0.250000,1,216.884
3.607357,0.043399,0.001455,-0.033048,1.018653,1.019190,0.001030,-0.000822,-0.001451,0.001960,-0.001451,0.000000,0.174539,MOVE,0,0,0.009500,1.000000,0.250000,1,216.861
3.650738,0.043382,0.002182,-0.032807,1.019628,1.020158,-0.000237,0.000129,-0.001974,0.001992,-0.001974,0.000000,0.175227,MOVE,0,0,0.009414,1.000000,0.250000,1,216.892
3.701300,0.050561,0.002667,-0.033530,1.019628,1.020182,0.002767,0.000138,-0.001940,0.003383,-0.001940,0.000000,0.175868,MOVE,0,0,0.009316,1.000000,0.250000,1,216.947
3.744700,0.043401,0.001697,-0.033530,1.017922,1.018475,0.000643,0.000431,-0.004596,0.004661,-0.004596,0.000000,0.174909,MOVE,0,0,0.009116,1.000000,0.250000,1,217.043
3.788119,0.043419,0.001697,-0.033289,1.018653,1.019198,0.000036,0.000470,-0.005961,0.005979,-0.005961,0.000000,0.174696,MOVE,0,0,0.008857,1.000000,0.250000,1,217.164
3.838724,0.050604,0.001455,-0.034254,1.018409,1.018986,-0.000276,-0.001350,-0.002343,0.002718,-0.002343,0.000000,0.174314,MOVE,0,0,0.008739,1.000000,0.250000,1,217.200
3.882610,0.043886,0.002667,-0.033530,1.018897,1.019452,-0.000863,-0.000753,-0.003408,0.003595,-0.003408,0.000000,0.174389,MOVE,0,0,0.008589,1.000000,0.250000,1,217.375
3.933562,0.050952,0.001940,-0.033530,1.019140,1.019694,0.001232,0.000151,-0.004499,0.004667,-0.004499,0.000000,0.174674,MOVE,0,0,0.008360,1.000000,0.250000,1,217.372
3.977173,0.043610,0.001697,-0.033048,1.017922,1.018459,0.000911,0.001049,-0.002063,0.002487,-0.002063,0.000000,0.173821,MOVE,0,0,0.008270,1.000000,0.250000,1,217.336
4.027888,0.050716,0.001455,-0.033530,1.017922,1.018475,-0.001762,0.001612,-0.002271,0.003296,-0.002271,0.000000,0.173066,MOVE,0,0,0.008155,1.000000,0.250000,1,217.243
4.071904,0.044016,0.001455,-0.033530,1.018897,1.019449,-0.000829,-0.000830,-0.000321,0.001216,-0.000321,0.000000,0.173263,MOVE,0,0,0.008141,1.000000,0.250000,1,217.106
4.122644,0.050740,0.002909,-0.034254,1.019628,1.020207,0.000068,-0.000478,-0.000014,0.000483,-0.000014,0.000000,0.174123,MOVE,0,0,0.008140,1.000000,0.250000,1,216.858
4.166342,0.043698,0.002182,-0.032807,1.020846,1.021375,-0.001151,0.000136,-0.001114,0.001608,-0.001114,0.000000,0.175949,MOVE,0,0,0.008091,1.000000,0.250000,1,216.454
4.216479,0.050136,0.003394,-0.033289,1.019384,1.019933,0.001844,0.000180,-0.001098,0.002154,-0.001098,0.000000,0.176294,MOVE,0,0,0.008036,1.000000,0.250000,1,216.116
4.259632,0.043153,0.001940,-0.034013,1.018165,1.018735,-0.001216,0.000156,-0.000248,0.001251,-0.000248,0.000000,0.175526,MOVE,0,0,0.008026,1.000000,0.250000,1,215.763
4.304077,0.044446,0.001455,-0.033772,1.018165,1.018726,-0.000625,-0.000773,-0.000882,0.001328,-0.000882,0.000000,0.174827,MOVE,0,0,0.007987,1.000000,0.250000,1,215.498
4.348882,0.044805,0.002182,-0.033289,1.018653,1.019199,-0.000253,0.001683,-0.003230,0.003651,-0.003230,0.000000,0.174623,MOVE,0,0,0.007842,1.000000,0.250000,1,215.175
4.388569,0.039687,0.002182,-0.034737,1.018409,1.019004,-0.000196,-0.000137,-0.001263,0.001286,-0.001263,0.000000,0.174264,MOVE,0,0,0.007792,1.000000,0.250000,1,215.061
4.431481,0.042913,0.002424,-0.032083,1.020846,1.021353,0.000400,-0.000405,-0.002603,0.002664,-0.002603,0.000000,0.176056,MOVE,0,0,0.007680,1.000000,0.250000,1,215.244
4.474806,0.043325,0.001940,-0.033289,1.017922,1.018468,-0.002003,0.000816,0.000110,0.002165,0.000110,0.000000,0.175071,MOVE,0,0,0.007685,1.000000,0.250000,1,215.490
4.518326,0.043520,0.002182,-0.032565,1.018409,1.018932,-0.003760,0.000840,-0.002508,0.004597,-0.002508,0.000000,0.174603,MOVE,0,0,0.007576,1.000000,0.250000,1,215.778
4.568999,0.050672,0.001697,-0.033530,1.019140,1.019693,-0.000111,0.000213,-0.001488,0.001507,-0.001488,0.000000,0.174866,MOVE,0,0,0.007500,1.000000,0.250000,1,215.900
4.612177,0.043178,0.002182,-0.033772,1.018165,1.018728,-0.000465,0.001729,-0.001414,0.002281,-0.001414,0.000000,0.174234,MOVE,0,0,0.007439,1.000000,0.250000,1,215.864
4.655184,0.043007,0.002424,-0.033772,1.018165,1.018728,-0.000428,-0.000715,0.002049,0.002211,0.002049,0.000000,0.173666,MOVE,0,0,0.007527,1.000000,0.250000,1,215.845
4.698619,0.043435,0.001940,-0.033048,1.019628,1.020165,0.000750,0.000542,-0.001597,0.001845,-0.001597,0.000000,0.174448,MOVE,0,0,0.007458,1.000000,0.250000,1,215.756
4.749125,0.050506,0.001940,-0.033530,1.020115,1.020668,0.001633,0.000800,0.001120,0.002136,0.001120,0.000000,0.175604,MOVE,0,0,0.007514,1.000000,0.250000,1,215.491
4.792637,0.043512,0.001212,-0.032324,1.019140,1.019653,-0.000825,-0.001296,0.002070,0.002578,0.002070,0.000000,0.175732,MOVE,0,0,0.007604,1.000000,0.250000,1,215.090
4.836193,0.043557,0.001455,-0.032807,1.020359,1.020887,-0.004092,0.001455,0.000170,0.004346,0.000170,0.000000,0.176957,MOVE,0,0,0.007612,1.000000,0.250000,1,214.678
4.886649,0.050455,0.001940,-0.032807,1.019871,1.020401,-0.001321,-0.001254,-0.000479,0.001884,-0.000479,0.000000,0.177622,MOVE,0,0,0.007588,1.000000,0.250000,1,214.666
4.929631,0.042983,0.001940,-0.034254,1.018165,1.018743,-0.001050,-0.000281,0.001883,0.002175,0.001883,0.000000,0.176729,MOVE,0,0,0.007669,1.000000,0.250000,1,214.335
4.972858,0.043226,0.002182,-0.033772,1.017191,1.017754,-0.001038,0.000298,-0.000562,0.001218,-0.000562,0.000000,0.175034,MOVE,0,0,0.007644,1.000000,0.250000,1,213.983
5.016542,0.043684,0.002909,-0.033530,1.018165,1.018721,-0.000476,-0.003250,-0.000580,0.003336,-0.000580,0.000000,0.174380,MOVE,0,0,0.007619,1.000000,0.250000,1,214.111
5.067089,0.050547,0.002909,-0.034254,1.017434,1.018015,0.001040,0.000419,-0.000926,0.001454,-0.000926,0.000000,0.173155,MOVE,0,0,0.007572,1.000000,0.250000,1,214.306
5.110770,0.043681,0.003394,-0.034254,1.019628,1.020208,0.002199,0.000974,-0.000180,0.002412,-0.000180,0.000000,0.174027,MOVE,0,0,0.007564,1.000000,0.250000,1,214.369
5.155993,0.045223,0.001455,-0.033289,1.017922,1.018467,0.001865,-0.000847,0.000720,0.002171,0.000720,0.000000,0.173245,MOVE,0,0,0.007597,1.000000,0.250000,1,214.302
5.206283,0.050290,0.001212,-0.032324,1.018409,1.018923,-0.000840,0.002153,0.001309,0.002657,0.001309,0.000000,0.172951,MOVE,0,0,0.007663,1.000000,0.250000,1,214.209
5.249326,0.043043,0.002424,-0.034737,1.019140,1.019735,0.001023,-0.000296,-0.000702,0.001275,-0.000702,0.000000,0.173417,MOVE,0,0,0.007633,1.000000,0.250000,1,213.918
5.293451,0.044124,0.002909,-0.032324,1.018653,1.019170,-0.001135,0.001776,0.001675,0.002692,0.001675,0.000000,0.173328,MOVE,0,0,0.007706,1.000000,0.250000,1,213.830
5.340361,0.046910,0.002424,-0.034254,1.020359,1.020936,-0.000558,0.000567,0.002238,0.002375,0.002238,0.000000,0.174838,MOVE,0,0,0.007811,1.000000,0.250000,1,213.801
5.384300,0.043940,0.002182,-0.033530,1.021090,1.021643,0.000646,-0.001588,0.000925,0.001948,0.000925,0.000000,0.176833,MOVE,0,0,0.007852,1.000000,0.250000,1,213.745
5.437712,0.053412,0.002424,-0.031842,1.018165,1.018666,0.000338,0.001453,0.000284,0.001519,0.000284,0.000000,0.175949,MOVE,0,0,0.007867,1.000000,0.250000,1,213.529
5.487869,0.050157,0.002667,-0.033772,1.018897,1.019460,0.001543,0.001136,0.000870,0.002104,0.000870,0.000000,0.175868,MOVE,0,0,0.007911,1.000000,0.250000,1,213.679
5.531154,0.043285,0.001697,-0.033048,1.018653,1.019190,-0.002998,-0.002203,0.000572,0.003764,0.000572,0.000000,0.175552,MOVE,0,0,0.007936,1.000000,0.250000,1,213.977
5.574425,0.043271,0.000970,-0.033048,1.017922,1.018458,0.002151,0.001415,0.000533,0.002629,0.000533,0.000000,0.174609,MOVE,0,0,0.007959,1.000000,0.250000,1,214.196
5.617860,0.043435,0.001697,-0.034737,1.018409,1.019003,-0.000008,0.002896,0.001663,0.003340,0.001663,0.000000,0.174251,MOVE,0,0,0.008031,1.000000,0.250000,1,214.373
5.668235,0.050375,0.002424,-0.032807,1.019628,1.020158,-0.000623,0.000144,0.001005,0.001191,0.001005,0.000000,0.174968,MOVE,0,0,0.008082,1.000000,0.250000,1,214.436
5.711663,0.043428,0.001697,-0.033530,1.018897,1.019450,0.002115,-0.000453,0.001235,0.002491,0.001235,0.000000,0.174976,MOVE,0,0,0.008135,1.000000,0.250000,1,214.396
5.754894,0.043231,0.003152,-0.033289,1.020115,1.020663,-0.000598,-0.000125,0.001854,0.001952,0.001854,0.000000,0.176075,MOVE,0,0,0.008215,1.000000,0.250000,1,214.585
5.798224,0.043330,0.001940,-0.033530,1.018165,1.018719,0.001509,-0.000129,0.000586,0.001624,0.000586,0.000000,0.175315,MOVE,0,0,0.008241,1.000000,0.250000,1,214.754
5.848858,0.050634,0.001697,-0.032807,1.019871,1.020400,-0.000333,-0.001910,0.004121,0.004554,0.004121,0.000000,0.176143,MOVE,0,0,0.008450,1.000000,0.250000,1,214.466
5.892448,0.043591,0.001940,-0.033048,1.020115,1.020652,-0.000907,-0.000404,0.003071,0.003227,0.003071,0.000000,0.177116,MOVE,0,0,0.008583,1.000000,0.250000,1,214.158
5.943354,0.050906,0.002182,-0.032324,1.018653,1.019168,-0.000567,-0.000129,0.001467,0.001578,0.001467,0.000000,0.176655,MOVE,0,0,0.008658,1.000000,0.250000,1,213.899
5.986682,0.043328,0.002424,-0.033289,1.018165,1.018712,-0.001399,-0.000408,0.002290,0.002715,0.002290,0.000000,0.175831,MOVE,0,0,0.008757,1.000000,0.250000,1,213.828
6.037378,0.050695,0.001940,-0.034495,1.018409,1.018995,0.001332,0.001394,0.004304,0.004716,0.004304,0.000000,0.175343,MOVE,0,0,0.008975,1.000000,0.250000,1,213.695
6.080795,0.043417,0.002424,-0.032324,1.017678,1.018194,0.001882,-0.000136,0.001483,0.002400,0.001483,0.000000,0.174184,MOVE,0,0,0.009040,1.000000,0.250000,1,213.503
6.124357,0.043562,0.001697,-0.033048,1.018897,1.019434,-0.000268,0.000771,0.000499,0.000957,0.000499,0.000000,0.174256,MOVE,0,0,0.009062,1.000000,0.250000,1,213.337
6.175702,0.051345,0.001455,-0.034495,1.017434,1.018020,-0.000256,0.000723,0.001049,0.001300,0.001049,0.000000,0.173048,MOVE,0,0,0.009115,1.000000,0.250000,1,213.237
6.226494,0.050792,0.001697,-0.033048,1.017434,1.017972,-0.002360,-0.000784,-0.001139,0.002735,-0.001139,0.000000,0.171919,MOVE,0,0,0.009058,1.000000,0.250000,1,213.047
6.270072,0.043578,0.002909,-0.034013,1.018409,1.018981,-0.001727,0.000406,-0.000881,0.001981,-0.000881,0.000000,0.171810,MOVE,0,0,0.009019,1.000000,0.250000,1,212.829
6.314020,0.043948,0.001697,-0.033289,1.018165,1.018711,-0.001676,0.000090,-0.001357,0.002159,-0.001357,0.000000,0.171469,MOVE,0,0,0.008960,1.000000,0.250000,1,212.717
6.358445,0.044424,0.002667,-0.033530,1.019140,1.019695,0.000439,-0.000785,0.000477,0.001018,0.000477,0.000000,0.172047,MOVE,0,0,0.008981,1.000000,0.250000,1,212.832
6.405417,0.046972,0.000727,-0.033772,1.018897,1.019456,0.001268,-0.000761,-0.001624,0.002197,-0.001624,0.000000,0.172353,MOVE,0,0,0.008904,1.000000,0.250000,1,213.234
6.448391,0.042974,0.002667,-0.033530,1.018653,1.019208,0.000645,0.000779,-0.001584,0.001879,-0.001584,0.000000,0.172405,MOVE,0,0,0.008836,1.000000,0.250000,1,213.907
6.491643,0.043252,0.003637,-0.033289,1.018165,1.018716,0.001229,-0.000736,-0.000324,0.001469,-0.000324,0.000000,0.172009,MOVE,0,0,0.008822,1.000000,0.250000,1,214.351
6.535241,0.043598,0.001697,-0.033048,1.017678,1.018216,-0.000304,-0.000104,-0.000043,0.000324,-0.000043,0.000000,0.171202,MOVE,0,0,0.008821,1.000000,0.250000,1,214.915
6.586011,0.050770,0.001212,-0.034737,1.021821,1.022412,-0.000234,0.000542,0.001131,0.001275,0.001131,0.000000,0.174253,MOVE,0,0,0.008878,1.000000,0.250000,1,215.447
6.629582,0.043571,0.002909,-0.034254,1.018165,1.018746,0.003111,-0.000656,0.001065,0.003353,0.001065,0.000000,0.173699,MOVE,0,0,0.008924,1.000000,0.250000,1,215.788
6.673114,0.043531,0.003152,-0.034254,1.018409,1.018990,0.000945,-0.000358,0.000677,0.001216,0.000677,0.000000,0.173420,MOVE,0,0,0.008954,1.000000,0.250000,1,215.852
6.716751,0.043638,0.000970,-0.033048,1.018165,1.018702,-0.002385,0.000265,-0.000859,0.002549,-0.000859,0.000000,0.172910,MOVE,0,0,0.008916,1.000000,0.250000,1,215.839
6.760329,0.043577,0.000485,-0.032083,1.017922,1.018427,0.000621,0.000517,0.000040,0.000809,0.000040,0.000000,0.172203,MOVE,0,0,0.008918,1.000000,0.250000,1,215.875
6.803937,0.043609,0.001212,-0.035219,1.017191,1.017801,-0.002663,-0.000079,0.000083,0.002666,0.000083,0.000000,0.171004,MOVE,0,0,0.008922,1.000000,0.250000,1,215.978
6.847858,0.043921,0.002424,-0.033530,1.016703,1.017259,0.000112,0.001136,0.076090,0.076098,0.076090,0.000000,0.169436,MOVE,0,0,0.012264,1.000000,0.250000,1,216.194
6.894998,0.047140,0.001940,-0.032324,1.017678,1.018193,0.001308,-0.001888,-0.001687,0.002850,-0.001687,0.000000,0.168867,MOVE,0,0,0.012184,1.000000,0.250000,1,216.228
6.938561,0.043563,0.001455,-0.033048,1.016947,1.017485,0.001263,-0.000964,-0.002219,0.002729,-0.002219,0.000000,0.167716,MOVE,0,0,0.012087,1.000000,0.250000,1,216.307
6.982094,0.043533,0.003152,-0.035219,1.017434,1.018049,0.000946,-0.000916,-0.001602,0.002074,-0.001602,0.000000,0.167188,MOVE,0,0,0.012018,1.000000,0.250000,1,216.072
7.025788,0.043694,0.000727,-0.030394,1.018653,1.019106,-0.001444,0.000270,-0.002630,0.003012,-0.002630,0.000000,0.167665,MOVE,0,0,0.011903,1.000000,0.250000,1,216.048
7.069260,0.043472,0.005091,-0.037149,1.016947,1.017638,-0.000476,0.001753,0.001039,0.002093,0.001039,0.000000,0.166773,MOVE,0,0,0.011948,1.000000,0.250000,1,216.230
7.120052,0.050792,0.000727,-0.032565,1.018653,1.019173,0.001600,0.000205,-0.001055,0.001927,-0.001055,0.000000,0.167352,MOVE,0,0,0.011894,1.000000,0.250000,1,216.175
7.163745,0.043694,0.002182,-0.033289,1.020602,1.021147,0.000364,0.001096,-0.001654,0.002017,-0.001654,0.000000,0.169649,MOVE,0,0,0.011822,1.000000,0.250000,1,216.212
7.214660,0.050915,0.000727,-0.032083,1.018409,1.018915,0.001252,-0.001606,-0.002738,0.003412,-0.002738,0.000000,0.169707,MOVE,0,0,0.011683,1.000000,0.250000,1,216.247
7.258258,0.043598,0.005091,-0.037631,1.015972,1.016682,0.000669,-0.000105,-0.001982,0.002094,-0.001982,0.000000,0.167750,MOVE,0,0,0.011596,1.000000,0.250000,1,216.404
7.309020,0.050762,0.001455,-0.032324,1.019140,1.019654,0.000356,-0.000375,-0.001313,0.001411,-0.001313,0.000000,0.168664,MOVE,0,0,0.011530,1.000000,0.250000,1,216.796
7.353809,0.044789,-0.001975,-0.019298,0.992090,0.992280,-0.007430,0.015536,-0.001554,0.017291,-0.001554,0.000000,0.144849,MOVE,0,0,0.011460,1.000000,0.250000,1,217.287
7.405491,0.051682,-0.003703,-0.041732,1.023770,1.024627,-0.008450,-0.003331,-0.001137,0.009153,-0.001137,0.000000,0.152528,MOVE,0,0,0.011401,1.000000,0.250000,1,217.732
7.449726,0.044235,0.002909,-0.048969,1.017191,1.018373,0.004041,-0.002794,0.004865,0.006914,0.004865,0.000000,0.153811,MOVE,0,0,0.011616,1.000000,0.250000,1,217.563
7.499170,0.049444,-0.003949,-0.024123,1.024014,1.024306,-0.001495,0.008416,-0.000436,0.008559,-0.000436,0.000000,0.160305,MOVE,0,0,0.011595,1.000000,0.250000,1,217.454
7.548716,0.049546,-0.006418,-0.019057,1.015728,1.015927,0.000051,-0.002243,-0.006615,0.006985,-0.006615,0.000000,0.158610,MOVE,0,0,0.011267,1.000000,0.250000,1,217.510
7.603021,0.054305,0.009940,-0.048969,1.013779,1.015009,-0.000217,0.001442,-0.004746,0.004965,-0.004746,0.000000,0.156257,MOVE,0,0,0.011009,1.000000,0.250000,1,217.376
7.644739,0.041718,0.009940,-0.047522,1.018653,1.019809,-0.001052,-0.001552,0.004943,0.005287,0.004943,0.000000,0.158460,MOVE,0,0,0.011216,1.000000,0.250000,1,216.938
7.686275,0.041536,0.000242,-0.029912,1.014510,1.014951,-0.001119,0.000241,0.001796,0.002129,0.001796,0.000000,0.156069,MOVE,0,0,0.011290,1.000000,0.250000,1,216.871
7.731278,0.045004,-0.002468,-0.026294,1.022552,1.022893,-0.000818,-0.002760,-0.002152,0.003594,-0.002152,0.000000,0.161066,MOVE,0,0,0.011193,1.000000,0.250000,1,216.899
7.780263,0.048984,0.001697,-0.030636,1.019140,1.019602,0.000089,0.001426,-0.002941,0.003270,-0.002941,0.000000,0.162601,MOVE,0,0,0.011049,1.000000,0.250000,1,216.723
7.825321,0.045058,0.001212,-0.032083,1.017922,1.018428,-0.000201,0.000775,-0.003066,0.003168,-0.003066,0.000000,0.162926,MOVE,0,0,0.010911,1.000000,0.250000,1,216.565
7.866749,0.041428,0.006546,-0.038837,1.018897,1.019658,-0.000451,-0.001045,-0.002924,0.003137,-0.002924,0.000000,0.164325,MOVE,0,0,0.010790,1.000000,0.250000,1,216.123
7.911683,0.044934,0.004122,-0.035460,1.016703,1.017330,0.002854,-0.001059,-0.001377,0.003341,-0.001377,0.000000,0.163490,MOVE,0,0,0.010728,1.000000,0.250000,1,215.701
7.962191,0.050507,-0.000987,-0.027259,1.016703,1.017069,-0.000851,-0.001948,-0.001384,0.002536,-0.001384,0.000000,0.162503,MOVE,0,0,0.010658,1.000000,0.250000,1,215.538
8.005250,0.043060,0.000970,-0.031842,1.018897,1.019394,0.002510,0.000501,-0.002447,0.003541,-0.002447,0.000000,0.163708,MOVE,0,0,0.010553,1.000000,0.250000,1,215.390
8.047453,0.042203,0.003394,-0.037872,1.018653,1.019362,0.000979,-0.001606,0.000072,0.001882,0.000072,0.000000,0.164763,MOVE,0,0,0.010556,1.000000,0.250000,1,215.468
8.093236,0.045783,0.002667,-0.035219,1.016947,1.017560,-0.000281,0.001091,-0.000217,0.001148,-0.000217,0.000000,0.164091,MOVE,0,0,0.010546,1.000000,0.250000,1,215.476
8.135520,0.042284,0.003394,-0.035219,1.018165,1.018780,0.000359,-0.000454,-0.077353,0.077355,-0.077353,0.000000,0.164584,MOVE,0,0,0.007275,1.000000,0.250000,1,215.335
8.186306,0.050786,-0.000000,-0.028947,1.017191,1.017602,-0.002366,-0.003144,-0.000100,0.003936,-0.000100,0.000000,0.163967,MOVE,0,0,0.007270,1.000000,0.250000,1,215.302
8.235982,0.049677,0.001455,-0.030636,1.021577,1.022038,-0.005161,-0.001395,-0.000641,0.005384,-0.000641,0.000000,0.167404,MOVE,0,0,0.007238,1.000000,0.250000,1,215.311
8.281642,0.045659,0.012850,-0.037872,1.019871,1.020655,-0.003048,0.012536,0.001197,0.012957,0.001197,0.000000,0.169254,MOVE,0,0,0.007293,1.000000,0.250000,1,215.338
8.324880,0.043238,0.003394,-0.034495,1.019871,1.020460,-0.013763,0.025042,-0.011490,0.030799,-0.011490,0.000000,0.170743,MOVE,0,0,0.006796,1.000000,0.250000,1,215.270
8.374552,0.049672,-0.043690,-0.043179,0.966989,0.968938,0.187301,-0.453713,-0.079852,0.497307,-0.079852,0.000000,0.125713,MOVE,0,0,0.002830,1.000000,0.250000,1,215.197
8.417010,0.042458,-0.022215,0.000486,1.084938,1.085166,0.117052,0.127830,-0.075271,0.188964,-0.075271,0.000000,0.189791,MOVE,0,0,-0.000366,1.000000,0.250000,1,214.851
8.459190,0.042181,0.008970,-0.003618,1.015728,1.015775,-0.022531,0.156541,-0.448815,0.475865,-0.448815,0.000000,0.185009,MOVE,0,0,-0.019297,1.000000,0.250000,1,213.707
8.510498,0.051308,0.013577,-0.019539,1.018653,1.018931,-0.089115,0.304370,-0.017850,0.317650,-0.017850,0.000000,0.183545,MOVE,0,0,-0.020213,1.000000,0.250000,1,213.330
8.552150,0.041652,-0.003456,-0.039802,1.049359,1.050119,-0.028870,0.043673,0.021478,0.056587,0.021478,0.000000,0.210298,MOVE,0,0,-0.019319,1.000000,0.250000,1,213.052
8.590223,0.038072,0.124860,-0.071885,1.170476,1.179310,0.612233,0.115450,0.059351,0.625844,0.059351,0.000000,0.350647,MOVE,0,0,-0.017059,1.000000,0.250000,1,212.907
8.638715,0.048492,0.042428,0.029378,1.073485,1.074724,0.377661,-0.065061,0.117078,0.400709,0.117078,0.000000,0.382834,MOVE,0,0,-0.011382,1.000000,0.250000,1,213.335
8.683672,0.044958,-0.117741,0.007527,1.198989,1.204779,0.574054,0.119420,0.231921,0.630545,0.231921,0.000000,0.528852,MOVE,0,0,-0.000955,1.000000,0.250000,1,213.688
8.725075,0.041402,-0.025671,-0.003136,1.082258,1.082567,0.690118,0.075744,0.460384,0.833039,0.460384,0.000000,0.550277,MOVE,0,0,0.018106,1.000000,0.250000,1,214.726
8.769990,0.044916,0.007031,0.100273,1.176812,1.181097,1.037090,0.674086,0.537048,1.348469,0.537048,0.000000,0.658237,MOVE,0,0,0.042228,1.000000,0.250000,1,216.727
8.811447,0.041457,-0.023943,0.177724,0.976981,0.993303,0.651328,0.374457,0.479016,0.891012,0.479016,0.000000,0.586385,MOVE,0,0,0.062086,1.000000,0.250000,1,218.973
8.856511,0.045064,-0.012589,0.173354,1.042779,1.057165,0.294888,0.371708,0.256966,0.539590,0.256966,0.000000,0.579195,MOVE,0,0,0.073666,1.000000,0.250000,1,220.875
8.905176,0.048666,-0.164639,0.162428,1.005981,1.032224,0.182489,0.358574,0.020256,0.402850,0.020256,0.000000,0.550277,MOVE,0,0,0.074652,1.000000,0.250000,1,222.055
8.950152,0.044976,-0.005677,0.160729,0.968208,0.981474,0.180046,0.629493,-0.191714,0.682226,-0.191714,0.000000,0.478576,MOVE,0,0,0.066029,1.000000,0.250000,1,222.975
8.991590,0.041438,-0.131810,0.172626,0.992821,1.016301,0.100939,0.847266,-0.273570,0.896041,-0.273570,0.000000,0.445389,MOVE,0,0,0.054693,1.000000,0.250000,1,223.284
9.036723,0.045132,-0.189570,0.206616,1.015972,1.053958,-0.136382,0.896136,-0.551819,1.061209,-0.551819,0.000000,0.449412,MOVE,0,0,0.029788,1.000000,0.250000,1,222.627
9.085469,0.048746,-0.225608,0.244007,1.049602,1.100955,-0.044447,0.858873,-0.505394,0.997527,-0.505394,0.000000,0.495331,MOVE,0,0,0.005152,1.000000,0.250000,1,221.873
9.130625,0.045155,-0.248810,0.228711,0.934090,0.993348,-0.432957,0.587038,-0.312665,0.793615,-0.312665,0.000000,0.439811,MOVE,0,0,-0.008966,1.000000,0.250000,1,221.271
9.172364,0.041739,-0.278924,0.145190,0.850989,0.907228,-0.296735,0.467003,-0.234169,0.600815,-0.234169,0.000000,0.312334,MOVE,0,0,-0.018741,1.000000,0.250000,1,220.285
9.217345,0.044981,-0.259671,0.124553,0.918006,0.962121,-0.503512,0.037564,0.084091,0.511866,0.084091,0.000000,0.247010,MOVE,0,0,-0.014958,1.000000,0.250000,1,219.737
9.265762,0.048418,-0.372722,0.065311,0.874141,0.952528,-0.249392,-0.091023,0.291175,0.394036,0.291175,0.000000,0.179584,MOVE,0,0,-0.000860,1.000000,0.250000,1,219.248
9.311242,0.045480,-0.206601,0.015539,0.773494,0.800761,-0.502901,-0.295357,0.043774,0.584861,0.043774,0.000000,-0.017689,MOVE,1,1,0.001131,1.450000,0.250509,1,218.324
9.352856,0.041614,-0.227829,0.126009,0.892905,0.930088,-0.327583,-0.018941,-0.022810,0.328922,-0.022810,0.000000,-0.078841,MOVE,0,1,0.000182,1.450000,0.250509,1,217.224
9.394508,0.041652,-0.093304,0.012382,0.843435,0.848670,0.092081,-0.277337,-0.124214,0.317527,-0.124214,0.000000,-0.207154,MOVE,0,1,-0.004992,1.450000,0.250509,1,215.257
9.439488,0.044980,-0.178709,-0.016162,0.950418,0.967208,0.501666,-0.153942,-0.344736,0.627862,-0.344736,0.000000,-0.215951,MOVE,0,1,-0.020498,1.450000,0.250509,1,213.215
9.480878,0.041390,-0.418140,0.116055,0.881208,0.982261,-2.372760,-1.885439,0.069431,3.031451,0.069431,0.000000,-0.210321,MOVE,0,1,-0.017625,1.450000,0.250509,1,211.222
9.525846,0.044968,-0.309532,0.022337,1.042048,1.087278,-0.896604,-0.270617,-0.020672,0.936782,-0.020672,0.000000,-0.110739,MOVE,0,1,-0.018554,1.450000,0.250509,1,209.567
9.567318,0.041472,-0.249551,-0.247015,0.957729,1.020067,0.441496,-0.534205,0.315609,0.761514,0.315609,0.000000,-0.081605,MOVE,0,1,-0.005465,1.450000,0.250509,1,208.273
9.612298,0.044981,-0.227089,-0.008202,1.126854,1.149538,0.774112,-0.426693,0.087146,0.888207,0.087146,0.000000,0.061139,MOVE,0,1,-0.001545,1.450000,0.250509,1,206.986
9.660853,0.048555,-0.125393,0.143248,1.106384,1.122643,0.216392,-0.157607,0.069736,0.276638,0.069736,0.000000,0.165404,MOVE,0,1,0.001841,1.450000,0.250509,1,205.835
9.705823,0.044969,-0.147114,-0.090701,1.102728,1.116189,0.060927,-0.129202,-0.100390,0.174595,-0.100390,0.000000,0.253435,MOVE,0,1,-0.002674,1.450000,0.250509,1,204.278
9.747209,0.041386,-0.152544,0.048073,0.960166,0.973395,0.145837,-0.068726,-0.204237,0.260201,-0.204237,0.000000,0.204147,MOVE,0,1,-0.011126,1.450000,0.250509,1,203.530
9.792137,0.044929,-0.129589,0.019423,0.994283,1.002881,-0.096253,0.009306,-0.132636,0.164145,-0.132636,0.000000,0.186325,MOVE,0,1,-0.017086,1.450000,0.250509,1,202.984
9.833680,0.041543,-0.162665,0.001700,0.947737,0.961597,0.127630,0.258539,-0.114005,0.310046,-0.114005,0.000000,0.133129,MOVE,0,1,-0.021822,1.450000,0.250509,1,202.259
9.878690,0.045009,-0.135019,0.059241,0.943107,0.954563,-0.417262,0.090245,-0.369347,0.564508,-0.369347,0.000000,0.078923,MOVE,0,1,-0.038446,1.450000,0.250509,1,201.005
9.927136,0.048446,-0.104905,-0.109999,1.050577,1.061516,-0.590443,0.177294,-0.009853,0.616565,-0.009853,0.000000,0.126395,MOVE,0,1,-0.038923,1.450000,0.250509,1,200.069
9.972090,0.044954,-0.173032,-0.109034,1.008417,1.028948,-0.295700,0.322679,0.132479,0.457287,0.132479,0.000000,0.139809,MOVE,0,1,-0.032968,1.450000,0.250509,1,198.686
10.013609,0.041519,-0.213513,-0.120613,1.026695,1.055574,0.344181,-0.087822,-0.120419,0.375066,-0.120419,0.000000,0.175845,MOVE,0,1,-0.037967,1.450000,0.250509,1,196.612
10.058571,0.044962,-0.220671,-0.026052,0.899241,0.926288,0.029586,0.120789,-0.040396,0.130755,-0.040396,0.000000,0.091920,MOVE,0,1,-0.039784,1.450000,0.250509,1,194.945
10.107162,0.048590,-0.189323,-0.042215,1.030107,1.048210,0.088262,-0.098164,0.108304,0.170751,0.108304,0.000000,0.126117,MOVE,0,1,-0.034521,1.450000,0.250509,1,193.928
10.145203,0.038041,-0.242639,0.011897,1.032300,1.060499,-0.161852,-0.175200,0.089125,0.254626,0.089125,0.000000,0.167955,MOVE,0,1,-0.031131,1.450000,0.250509,1,192.845
10.186678,0.041476,-0.198703,-0.054517,1.052283,1.072266,-0.153605,-0.258583,0.022235,0.301586,0.022235,0.000000,0.216199,MOVE,0,1,-0.030208,1.450000,0.250509,1,191.462
10.228332,0.041653,-0.191298,-0.040285,1.097854,1.115124,-0.037846,-0.445508,-0.069395,0.452466,-0.069395,0.000000,0.298190,MOVE,0,1,-0.033099,1.450000,0.250509,1,190.067
10.273349,0.045017,-0.079481,-0.031601,1.001594,1.005239,-0.176512,-0.175811,0.014905,0.249576,0.014905,0.000000,0.273087,MOVE,0,1,-0.032428,1.450000,0.250509,1,188.716
10.321974,0.048625,-0.183399,-0.152214,1.264787,1.287047,0.141137,-0.352657,-0.198593,0.428632,-0.198593,0.000000,0.504120,MOVE,0,1,-0.042084,1.450000,0.250509,1,186.851
10.367034,0.045060,-0.051095,-0.009649,1.023283,1.024603,0.403199,-0.594254,-0.037324,0.719096,-0.037324,0.000000,0.475851,MOVE,0,1,-0.043766,1.450000,0.250509,1,185.470
10.408625,0.041591,-0.060228,0.008012,0.929947,0.931930,0.015342,-0.043427,0.055795,0.072349,0.055795,0.000000,0.367003,MOVE,0,1,-0.041446,1.450000,0.250509,1,184.836
10.453606,0.044981,-0.111076,0.002185,0.844410,0.851687,0.073294,0.068606,0.127941,0.162627,0.127941,0.000000,0.196821,MOVE,0,1,-0.035691,1.450000,0.250509,1,184.067
10.495001,0.041396,-0.051589,-0.059824,0.886813,0.890324,0.149957,0.251255,-0.156722,0.331931,-0.156722,0.000000,0.078430,MOVE,0,1,-0.042178,1.450000,0.250509,1,182.530
10.547287,0.052285,-0.066152,-0.007237,0.914107,0.916526,0.282515,0.301345,-0.276452,0.497041,-0.276452,0.000000,-0.004539,MOVE,1,2,-0.056633,1.899278,0.225038,1,181.534
10.588763,0.041477,-0.080222,0.079150,0.904846,0.911837,-0.014060,0.344106,-0.286837,0.448199,-0.286837,0.000000,-0.083432,MOVE,0,2,-0.068530,1.899278,0.225038,1,181.018
10.633774,0.045011,-0.084911,0.024765,1.059594,1.063279,-0.230001,-0.239576,-0.296305,0.445077,-0.296305,0.000000,-0.018137,MOVE,0,2,-0.081867,1.899278,0.225038,1,180.077
10.675291,0.041517,-0.075532,-0.018816,0.991602,0.994653,-0.145091,0.127860,-0.062955,0.203378,-0.062955,0.000000,-0.021136,MOVE,0,2,-0.084481,1.899278,0.225038,1,179.122
10.720325,0.045034,-0.086639,-0.015438,0.942132,0.946233,-0.165051,-0.170140,0.051786,0.242634,0.051786,0.000000,-0.067412,MOVE,0,2,-0.082148,1.899278,0.225038,1,177.926
10.768761,0.048436,-0.056772,-0.003377,0.878527,0.880366,-0.239577,0.135598,-0.023656,0.276303,-0.023656,0.000000,-0.168342,MOVE,0,2,-0.083294,1.899278,0.225038,1,176.657
10.813708,0.044947,-0.155013,-0.060789,1.013535,1.027121,-0.375189,0.065043,0.056367,0.384935,0.056367,0.000000,-0.127098,MOVE,0,2,-0.080761,1.899278,0.225038,1,175.397
10.855220,0.041512,-0.138228,-0.131951,1.030350,1.047922,-0.249045,0.098640,-0.039233,0.270726,-0.039233,0.000000,-0.071259,MOVE,0,2,-0.082389,1.899278,0.225038,1,173.805
10.896729,0.041509,-0.107374,-0.052587,0.966745,0.974110,-0.396264,0.130711,0.013301,0.417477,0.013301,0.000000,-0.087434,MOVE,0,2,-0.081837,1.899278,0.225038,1,172.277
10.934709,0.037980,-0.110089,-0.111205,1.082014,1.093270,-0.206896,0.110247,0.193507,0.303982,0.193507,0.000000,0.005253,MOVE,1,3,-0.074488,2.348030,0.191549,1,170.887
10.983181,0.048472,-0.131563,-0.126644,1.095661,1.110775,0.211242,-0.255967,0.242070,0.410780,0.242070,0.000000,0.104425,MOVE,0,3,-0.062754,2.348030,0.191549,1,169.369
11.021214,0.038033,-0.120703,-0.048486,1.046678,1.054730,-0.118931,-0.132572,0.016661,0.178879,0.016661,0.000000,0.143239,MOVE,0,3,-0.062121,2.348030,0.191549,1,167.388
11.069671,0.048457,-0.088861,-0.104451,1.021333,1.030499,0.061226,0.030398,0.121693,0.139578,0.121693,0.000000,0.156364,MOVE,0,3,-0.056224,2.348030,0.191549,1,165.790
11.114824,0.045152,-0.184633,-0.126644,1.034249,1.058206,0.372157,-0.084139,-0.023387,0.382265,-0.023387,0.000000,0.193113,MOVE,0,3,-0.057280,2.348030,0.191549,1,164.337
11.157121,0.042298,-0.109842,-0.071403,0.969182,0.977997,0.252427,0.135467,0.024260,0.287505,0.024260,0.000000,0.153999,MOVE,0,3,-0.056254,2.348030,0.191549,1,163.526
11.198785,0.041664,-0.196975,-0.060789,1.025233,1.045752,-0.034397,-0.125367,-0.082153,0.153783,-0.082153,0.000000,0.179776,MOVE,0,3,-0.059676,2.348030,0.191549,1,162.436
11.243809,0.045024,-0.084911,-0.084912,0.981611,0.988929,-0.091777,0.018181,-0.057649,0.109895,-0.057649,0.000000,0.151834,MOVE,0,3,-0.062272,2.348030,0.191549,1,161.310
11.285262,0.041453,-0.181177,-0.082499,1.034493,1.053474,0.085610,0.012485,0.056335,0.103240,0.056335,0.000000,0.184777,MOVE,0,3,-0.059937,2.348030,0.191549,1,160.789
11.330390,0.045129,-0.126133,-0.067302,0.953098,0.963761,-0.081594,0.080443,0.043976,0.122730,0.043976,0.000000,0.133684,MOVE,0,3,-0.057952,2.348030,0.191549,1,160.371
11.379312,0.048922,-0.165874,-0.109999,0.990384,1.010185,-0.160090,-0.088156,-0.039101,0.186893,-0.039101,0.000000,0.129483,MOVE,0,3,-0.059865,2.348030,0.191549,1,159.328
11.424323,0.045011,-0.076766,-0.089736,0.984292,0.991350,-0.061741,0.125342,0.037562,0.144684,0.037562,0.000000,0.108750,MOVE,0,3,-0.058174,2.348030,0.191549,1,158.435
11.472758,0.048435,-0.131563,-0.137258,1.062275,1.079155,-0.058013,-0.089204,-0.063537,0.123935,-0.063537,0.000000,0.169114,MOVE,0,3,-0.061252,2.348030,0.191549,1,157.470
11.510705,0.037947,-0.131317,-0.084188,1.003056,1.015112,0.197023,-0.346684,0.014043,0.399005,0.014043,0.000000,0.165804,MOVE,0,3,-0.060719,2.348030,0.191549,1,156.831
11.559159,0.048454,-0.094538,-0.077192,0.980392,0.987960,-0.147499,-0.072861,-0.034804,0.168155,-0.034804,0.000000,0.138388,MOVE,0,3,-0.062405,2.348030,0.191549,1,155.892
11.604102,0.044944,-0.078987,-0.055241,1.024502,1.029026,0.029007,-0.074261,0.173369,0.190822,0.173369,0.000000,0.150672,MOVE,0,3,-0.054613,2.348030,0.191549,1,155.432
11.645549,0.041446,-0.071089,-0.046798,0.997939,1.001561,-0.139897,0.127325,0.221017,0.290915,0.221017,0.000000,0.137010,MOVE,0,3,-0.045453,2.348030,0.191549,1,155.014
11.690566,0.045018,-0.143658,-0.164275,1.062031,1.084220,0.195162,-0.010731,0.299513,0.357647,0.299513,0.000000,0.199107,MOVE,0,3,-0.031970,2.348030,0.191549,1,155.146
11.739052,0.048486,-0.039247,-0.016645,0.990384,0.991301,0.510674,-0.210789,0.764076,0.942885,0.764076,0.000000,0.171368,MOVE,0,3,0.005077,2.348030,0.191549,1,155.684
11.777019,0.037967,-0.206601,-0.039802,1.014754,1.036337,0.095897,-0.020199,0.348993,0.362492,0.348993,0.000000,0.186934,MOVE,0,3,0.018327,2.348030,0.191549,1,156.122
11.825558,0.048539,-0.178709,-0.066337,1.101022,1.117402,-0.109965,-0.249885,0.077463,0.283787,0.077463,0.000000,0.273903,MOVE,0,3,0.022087,2.348030,0.191549,1,156.115
11.870541,0.044982,-0.083677,-0.035943,1.088838,1.092639,0.008543,-0.285620,0.142521,0.319318,0.142521,0.000000,0.329888,MOVE,0,3,0.028498,2.348030,0.191549,1,156.942
11.912200,0.041660,-0.067633,-0.095043,1.099560,1.105730,0.056801,-0.033944,0.254003,0.262481,0.254003,0.000000,0.392056,MOVE,0,3,0.039080,2.348030,0.191549,1,157.013
11.957183,0.044982,-0.130576,-0.061754,1.112232,1.121572,0.197606,-0.047383,0.064941,0.213332,0.064941,0.000000,0.462266,MOVE,0,3,0.042001,2.348030,0.191549,1,156.833
12.005889,0.048706,-0.186114,-0.091907,1.108577,1.127842,0.131327,-0.121908,-0.230107,0.291647,-0.230107,0.000000,0.531097,MOVE,0,3,0.030794,2.348030,0.191549,1,156.792
12.050911,0.045022,-0.176734,-0.082982,1.006468,1.025231,0.120637,-0.391911,-0.273479,0.492887,-0.273479,0.000000,0.500696,MOVE,0,3,0.018481,2.348030,0.191549,1,156.986
12.092481,0.041570,-0.050354,-0.111688,1.063980,1.071011,0.130716,0.192076,-0.178489,0.292982,-0.178489,0.000000,0.514536,MOVE,0,3,0.011061,2.348030,0.191549,1,153.561
12.137547,0.045067,-0.058747,-0.081534,1.074216,1.078906,0.111779,-0.038831,-0.062730,0.133931,-0.062730,0.000000,0.534098,MOVE,0,3,0.008234,2.348030,0.191549,1,148.925
12.179580,0.042032,-0.072076,-0.147630,1.014023,1.027245,0.197452,0.169093,0.001259,0.259964,0.001259,0.000000,0.505208,MOVE,0,3,0.008287,2.348030,0.191549,1,145.168
12.221097,0.041517,-0.165627,-0.112652,1.012560,1.032183,0.411866,-0.035242,0.070897,0.419406,0.070897,0.000000,0.483652,MOVE,0,3,0.011231,2.348030,0.191549,1,139.939
12.266023,0.044925,-0.060228,0.011654,0.937502,0.939507,0.144612,-0.120763,0.160694,0.247627,0.160694,0.000000,0.380843,MOVE,0,3,0.018450,2.348030,0.191549,1,131.581
12.314732,0.048709,-0.039741,-0.050175,1.096392,1.098259,-0.157766,-0.043794,0.218116,0.272732,0.218116,0.000000,0.431191,MOVE,0,3,0.029074,2.348030,0.191549,1,124.136
12.359812,0.045080,-0.007405,-0.168376,0.985510,0.999818,-0.041396,-0.236827,0.184824,0.303250,0.184824,0.000000,0.387908,MOVE,0,3,0.037406,2.348030,0.191549,1,118.180
12.401914,0.042102,-0.014070,-0.032565,1.034493,1.035101,-0.126307,0.111060,0.391602,0.426192,0.391602,0.000000,0.380708,MOVE,0,3,0.053893,2.348030,0.191549,1,112.052
12.443397,0.041483,-0.055044,-0.168376,0.976250,0.992191,0.157746,-0.158331,0.145423,0.266646,0.145423,0.000000,0.335610,MOVE,0,3,0.059926,2.348030,0.191549,1,106.398
12.481391,0.037994,-0.025918,0.043945,0.997207,0.998512,-0.001079,-0.127482,-0.143516,0.191963,-0.143516,0.000000,0.300709,MOVE,0,3,0.054473,2.348030,0.191549,1,99.819
12.524892,0.043500,0.024487,-0.053070,0.992821,0.994540,-0.157155,-0.146419,-0.504538,0.548356,-0.504538,0.000000,0.265724,MOVE,0,3,0.032526,2.348030,0.191549,1,93.085
12.575538,0.050646,0.043398,-0.012303,0.978930,0.979969,0.471730,0.020042,-0.315475,0.567852,-0.315475,0.000000,0.221124,MOVE,0,3,0.016548,2.348030,0.191549,1,87.407
12.619216,0.043679,-0.009627,0.062155,0.976006,0.978030,0.278086,0.080517,-0.375340,0.474020,-0.375340,0.000000,0.179239,MOVE,0,3,0.000154,2.348030,0.191549,1,82.083
12.669881,0.050665,0.021578,0.006798,0.980149,0.980410,0.144917,0.181921,-0.246447,0.338869,-0.246447,0.000000,0.143684,MOVE,0,3,-0.012333,2.348030,0.191549,1,77.875
12.713689,0.043808,-0.013823,0.029135,0.952611,0.953157,0.527319,-0.072505,-0.198494,0.568087,-0.198494,0.000000,0.087156,MOVE,0,3,-0.021028,2.348030,0.191549,1,74.201
12.764362,0.050672,-0.035051,0.134750,0.952611,0.962732,0.235936,-0.065785,0.045852,0.249191,0.045852,0.000000,0.044900,MOVE,0,3,-0.018705,2.348030,0.191549,1,70.993
12.807900,0.043538,0.041216,0.015539,0.973325,0.974321,0.323596,0.204828,0.146339,0.409980,0.146339,0.000000,0.017299,MOVE,1,4,-0.012333,2.797996,0.185999,1,68.010
12.851424,0.043524,-0.031101,0.088134,0.945544,0.950152,-0.042710,0.074606,0.208436,0.225468,0.208436,0.000000,-0.029294,MOVE,0,4,-0.003261,2.797996,0.185999,1,65.677
12.902006,0.050582,-0.019994,0.032534,0.976737,0.977483,0.412384,0.048949,0.214850,0.467565,0.214850,0.000000,-0.046630,MOVE,0,4,0.007606,2.797996,0.185999,1,63.231
12.945589,0.043584,-0.047886,0.055842,0.979418,0.982176,0.099010,-0.146528,-0.125402,0.216792,-0.125402,0.000000,-0.058008,MOVE,0,4,0.002141,2.797996,0.185999,1,59.645
12.996247,0.050658,0.000727,0.009226,0.991846,0.991889,0.298152,-0.220442,-0.213672,0.427955,-0.213672,0.000000,-0.059507,MOVE,0,4,-0.008684,2.797996,0.185999,1,55.168
13.039967,0.043720,0.020608,0.134993,0.986972,0.996374,-0.076919,-0.110792,0.151626,0.202933,0.151626,0.000000,-0.056819,MOVE,0,4,-0.002055,2.797996,0.185999,1,51.210
13.090852,0.050885,-0.002962,0.079393,0.918493,0.921923,-0.160607,-0.036877,0.139103,0.215649,0.139103,0.000000,-0.121407,MOVE,0,4,0.005024,2.797996,0.185999,1,48.301
13.134504,0.043651,0.099888,0.051958,1.005493,1.011778,-1.027425,1.037024,-0.024609,1.460009,-0.024609,0.000000,-0.098666,MOVE,0,4,0.003950,2.797996,0.185999,1,46.537
13.182777,0.048274,-0.130576,0.064826,1.171694,1.180729,-0.342034,-0.002058,-0.684038,0.764787,-0.684038,0.000000,0.073856,MOVE,0,4,-0.029071,2.797996,0.185999,1,44.887
13.226125,0.043348,-0.025918,0.143248,1.118812,1.128243,-0.027744,-0.028631,-0.724966,0.726061,-0.724966,0.000000,0.181889,MOVE,0,4,-0.060497,2.797996,0.185999,1,44.240
13.279868,0.053743,-0.029127,0.154173,1.008905,1.021032,0.268525,-0.411643,-0.892037,1.018473,-0.892037,0.000000,0.182629,MOVE,0,4,-0.108438,2.797996,0.185999,1,45.133
13.323841,0.043973,0.049944,0.164856,1.021090,1.035517,-0.186875,-0.174627,-0.768032,0.809500,-0.768032,0.000000,0.196332,MOVE,0,4,-0.142211,2.797996,0.185999,1,46.186
13.372549,0.048708,0.054793,0.215357,0.993308,1.017862,0.285630,-0.445852,-0.765894,0.931107,-0.765894,0.000000,0.192775,MOVE,0,4,-0.179516,2.797996,0.185999,1,47.152
13.416606,0.044057,-0.178462,0.096874,1.088594,1.107371,-0.069894,-0.029852,0.461335,0.467553,0.461335,0.000000,0.270131,MOVE,0,4,-0.159191,2.797996,0.185999,1,51.725
13.459057,0.042451,-0.017032,0.099302,0.979661,0.984829,-0.263233,-0.949510,0.345881,1.044267,0.345881,0.000000,0.229463,MOVE,0,4,-0.144508,2.797996,0.185999,1,55.582
13.501886,0.042829,0.217959,0.112413,1.001594,1.031180,-0.258346,0.456396,-0.009643,0.524531,-0.009643,0.000000,0.234579,MOVE,0,4,-0.144921,2.797996,0.185999,1,57.284
13.545434,0.043548,0.051156,-0.067061,1.028888,1.032339,-0.019192,0.875450,0.004407,0.875671,0.004407,0.000000,0.240227,MOVE,0,4,-0.144729,2.797996,0.185999,1,59.883
13.596145,0.050711,0.027881,-0.004583,1.054964,1.055342,-0.270563,0.287492,-0.042324,0.397048,-0.042324,0.000000,0.266012,MOVE,0,4,-0.146875,2.797996,0.185999,1,62.354
13.639710,0.043566,-0.034557,-0.082017,0.943107,0.947297,-0.264149,0.074911,-0.374329,0.464229,-0.374329,0.000000,0.191978,MOVE,0,4,-0.163183,2.797996,0.185999,1,64.398
13.690414,0.050703,0.006304,-0.047039,0.957241,0.958417,-0.323098,0.140579,-0.164497,0.388862,-0.164497,0.000000,0.135355,MOVE,0,4,-0.171524,2.797996,0.185999,1,67.050
13.733966,0.043552,-0.068867,-0.039079,0.995258,0.998403,-0.035386,0.092271,0.111840,0.149246,0.111840,0.000000,0.120382,MOVE,0,4,-0.166653,2.797996,0.185999,1,70.330
13.777433,0.043467,-0.106880,-0.010614,1.072997,1.078359,0.008619,-0.186333,0.316241,0.367155,0.316241,0.000000,0.178868,MOVE,0,4,-0.152907,2.797996,0.185999,1,74.047
13.828199,0.050766,-0.028633,-0.021952,1.000863,1.001513,-0.011540,-0.255361,0.296998,0.391855,0.296998,0.000000,0.162343,MOVE,0,4,-0.137829,2.797996,0.185999,1,77.284
13.871819,0.043620,-0.014316,0.055357,0.979905,0.981572,0.088337,-0.430679,0.372135,0.575997,0.372135,0.000000,0.129523,MOVE,0,4,-0.121597,2.797996,0.185999,1,80.169
13.922595,0.050775,0.141346,0.150046,0.994283,1.015427,-0.062853,-0.025065,0.305245,0.312655,0.305245,0.000000,0.130455,MOVE,0,4,-0.106098,2.797996,0.185999,1,82.414
13.966290,0.043695,0.074431,0.014810,1.105409,1.108011,-0.138294,0.204315,0.517215,0.573046,0.517215,0.000000,0.214619,MOVE,0,4,-0.083498,2.797996,0.185999,1,85.113
14.017008,0.050718,0.031276,-0.048245,1.032787,1.034386,0.201347,-0.263913,0.372135,0.498673,0.372135,0.000000,0.224105,MOVE,0,4,-0.064624,2.797996,0.185999,1,86.934
14.060528,0.043520,0.089220,-0.005789,0.920930,0.925260,0.000983,-0.134104,0.010503,0.134518,0.010503,0.000000,0.134429,MOVE,0,4,-0.064167,2.797996,0.185999,1,87.628
14.111361,0.050833,0.096009,0.040061,0.937989,0.943741,0.172331,-0.123414,0.281421,0.352316,0.281421,0.000000,0.070352,MOVE,0,4,-0.049862,2.797996,0.185999,1,88.428
14.155364,0.044003,0.080492,0.010683,0.945300,0.948781,0.181799,-0.156095,0.038908,0.242756,0.038908,0.000000,0.017220,MOVE,1,5,-0.048150,3.247475,0.164340,1,88.413
14.206303,0.050939,0.150559,-0.014474,1.055938,1.066716,0.055095,-0.121753,-0.014363,0.134409,-0.014363,0.000000,0.075542,MOVE,0,5,-0.048881,3.247475,0.164340,1,87.938
14.257237,0.050935,0.138679,0.000243,1.035955,1.045196,0.087776,-0.243621,-0.066287,0.267301,-0.066287,0.000000,0.108665,MOVE,0,5,-0.052258,3.247475,0.164340,1,86.986
14.301502,0.044264,0.016244,0.057056,0.816384,0.818537,-0.261944,-1.162057,0.440426,1.270026,0.440426,0.000000,-0.065518,MOVE,0,5,-0.032762,3.247475,0.164340,1,86.490
14.352612,0.051111,0.063763,-0.141600,1.095905,1.106853,0.538289,-1.004759,0.565958,1.272637,0.565958,0.000000,0.037201,MOVE,0,5,-0.003836,3.247475,0.164340,1,86.131
14.403442,0.050830,-0.029127,0.161943,1.224089,1.235099,0.782635,-0.249119,0.659115,1.053096,0.659115,0.000000,0.245070,MOVE,0,5,0.029667,3.247475,0.164340,1,84.893
14.446976,0.043534,-0.097253,0.007041,1.277946,1.281661,-0.245145,-0.197195,0.615744,0.691464,0.615744,0.000000,0.474057,MOVE,0,5,0.056473,3.247475,0.164340,1,83.101
14.490448,0.043471,0.067400,0.004127,0.984292,0.986605,0.054484,-0.019739,-0.076977,0.096351,-0.076977,0.000000,0.414596,MOVE,0,5,0.053126,3.247475,0.164340,1,79.334
14.534079,0.043631,-0.032582,0.010683,1.021821,1.022396,0.200175,0.079221,-0.009477,0.215490,-0.009477,0.000000,0.393293,MOVE,0,5,0.052713,3.247475,0.164340,1,75.562
14.577577,0.043498,-0.103918,-0.045592,0.980392,0.986938,0.113731,-0.058351,-0.152175,0.198738,-0.152175,0.000000,0.342208,MOVE,0,5,0.046094,3.247475,0.164340,1,71.465
14.628240,0.050663,-0.089108,0.025008,0.984292,0.988633,-0.141423,0.125282,0.008220,0.189113,0.008220,0.000000,0.297757,MOVE,0,5,0.046510,3.247475,0.164340,1,67.764
14.671833,0.043593,-0.074544,0.026707,0.918981,0.922386,0.087071,-0.020666,0.030258,0.094467,0.030258,0.000000,0.198129,MOVE,0,5,0.047829,3.247475,0.164340,1,64.257
14.715300,0.043467,-0.033816,0.054143,0.994527,0.996573,0.007068,0.156155,0.098727,0.184882,0.098727,0.000000,0.175232,MOVE,0,5,0.052121,3.247475,0.164340,1,61.076
14.765965,0.050665,0.015032,-0.000000,0.944569,0.944689,-0.086700,0.212660,0.103309,0.251821,0.103309,0.000000,0.107929,MOVE,0,5,0.057355,3.247475,0.164340,1,57.984
14.809501,0.043536,0.017699,0.011168,1.040586,1.040796,-0.114672,0.066744,-0.032361,0.136571,-0.032361,0.000000,0.133852,MOVE,0,5,0.055946,3.247475,0.164340,1,54.624
14.860317,0.050816,0.092857,0.067982,0.999644,1.006247,-0.079298,0.008326,-0.025027,0.083570,-0.025027,0.000000,0.126089,MOVE,0,5,0.054674,3.247475,0.164340,1,51.441
14.903861,0.043543,0.029821,-0.007237,1.110527,1.110950,0.063644,0.042839,0.190303,0.205186,0.190303,0.000000,0.213336,MOVE,0,5,0.062960,3.247475,0.164340,1,49.038
14.954591,0.050730,0.030791,-0.032083,1.032787,1.033744,-0.124895,0.138852,-0.025351,0.188471,-0.025351,0.000000,0.222372,MOVE,0,5,0.061674,3.247475,0.164340,1,46.230
14.998250,0.043659,-0.022709,-0.046315,0.942376,0.943786,0.248038,-0.141229,-0.390954,0.484059,-0.390954,0.000000,0.149542,MOVE,0,5,0.044606,3.247475,0.164340,1,42.703
15.049267,0.051018,0.093099,0.092747,0.930922,0.940152,0.020796,0.181613,-0.409585,0.448526,-0.409585,0.000000,0.080725,MOVE,0,5,0.023710,3.247475,0.164340,1,39.421
15.092933,0.043666,0.075886,0.056328,1.078846,1.082977,0.033625,0.392361,-0.378431,0.546158,-0.378431,0.000000,0.147332,MOVE,0,5,0.007185,3.247475,0.164340,1,36.206
15.145179,0.052246,0.074431,-0.004583,1.023770,1.026483,0.201918,0.043252,-0.545808,0.583565,-0.545808,0.000000,0.156433,MOVE,0,5,-0.021331,3.247475,0.164340,1,32.795
15.192466,0.047288,0.110313,0.054386,1.032787,1.040085,0.098682,0.177032,-0.626748,0.658704,-0.626748,0.000000,0.176866,MOVE,0,5,-0.050968,3.247475,0.164340,1,29.559
15.235706,0.043240,0.096493,-0.077192,1.005981,1.013542,0.195504,0.177032,-0.842688,0.882998,-0.842688,0.000000,0.171367,MOVE,0,5,-0.087406,3.247475,0.164340,1,25.810
15.279669,0.043962,0.090432,-0.013026,1.007443,1.011577,0.084937,0.023704,-0.942259,0.946377,-0.942259,0.000000,0.164650,MOVE,0,5,-0.128830,3.247475,0.164340,1,21.924
15.323248,0.043579,0.089220,-0.056206,1.025233,1.030641,-0.132225,0.137631,-1.210124,1.225082,-1.210124,0.000000,0.175762,MOVE,0,5,-0.181566,3.247475,0.164340,1,17.113
15.374122,0.050874,0.051641,-0.065131,1.012073,1.015481,0.035763,-0.091749,-1.401936,1.405390,-1.401936,0.000000,0.172118,MOVE,0,5,-0.252888,3.247475,0.164340,1,12.474
15.425596,0.051474,0.054065,-0.045592,1.009392,1.011867,-0.051591,0.003240,-1.580614,1.581459,-1.580614,0.000000,0.165587,MOVE,0,5,-0.334249,3.247475,0.164340,1,10.967
15.468705,0.043109,0.046307,-0.020022,1.025964,1.027203,-0.106569,-0.019973,-1.715004,1.718428,-1.715004,0.000000,0.173511,MOVE,0,5,-0.408182,3.247475,0.164340,1,12.106
15.511976,0.043271,0.050671,-0.022675,1.042535,1.044012,0.026905,-0.041047,-1.786170,1.786844,-1.786170,0.000000,0.195771,MOVE,0,5,-0.485470,3.247475,0.164340,1,13.026
15.562789,0.050813,0.022790,0.016267,1.016216,1.016602,-0.051591,-0.190099,-1.775785,1.786676,-1.775785,0.000000,0.191135,MOVE,0,5,-0.575704,3.247475,0.164340,1,14.852
15.606361,0.043572,0.006061,-0.047522,0.944325,0.945540,-0.147497,-0.076783,-1.828014,1.835562,-1.828014,0.000000,0.123007,MOVE,0,5,-0.655354,3.247475,0.164340,1,16.641
15.649919,0.043558,-0.037272,0.086920,1.064224,1.068418,0.095933,-0.087779,-1.865888,1.870413,-1.865888,0.000000,0.172283,MOVE,0,5,-0.736628,3.247475,0.164340,1,18.221
15.693519,0.043600,-0.027646,0.037147,1.013779,1.014836,-0.148719,-0.083503,-1.806328,1.814363,-1.806328,0.000000,0.168407,MOVE,0,5,-0.815383,3.247475,0.164340,1,19.703
15.737492,0.043974,-0.032335,-0.046798,1.066174,1.067690,-0.123979,0.024010,-2.023796,2.027732,-2.023796,0.000000,0.212487,MOVE,0,5,-0.904377,3.247475,0.164340,1,20.173
15.784690,0.047197,-0.039741,-0.058618,1.006468,1.008957,-0.049758,-0.128401,-2.029905,2.034570,-2.029905,0.000000,0.199299,MOVE,0,5,-1.000183,3.247475,0.164340,1,20.873
15.829696,0.045006,-0.040234,0.021366,1.013048,1.014072,-0.062281,-0.046851,-1.910481,1.912070,-1.910481,0.000000,0.192034,MOVE,0,5,-1.086167,3.247475,0.164340,1,20.899
15.881107,0.051411,-0.014316,-0.008443,0.973082,0.973223,-0.130393,-0.005923,-1.833817,1.838457,-1.833817,0.000000,0.148731,MOVE,0,5,-1.180444,3.247475,0.164340,1,21.819
15.924716,0.043610,-0.063437,-0.025811,1.085669,1.087827,-0.013412,-0.059373,-1.788002,1.789038,-1.788002,0.000000,0.212903,MOVE,0,5,-1.258419,3.247475,0.164340,1,21.969
15.975197,0.050480,-0.041962,-0.010373,1.003787,1.004718,-0.128866,0.020955,-1.734246,1.739154,-1.734246,0.000000,0.195858,MOVE,0,5,-1.345964,3.247475,0.164340,1,22.983
16.018812,0.043615,-0.022462,0.059484,0.975031,0.977102,-0.079080,0.057302,-1.370171,1.373646,-1.370171,0.000000,0.155665,MOVE,0,5,-1.405724,3.247475,0.164340,1,24.640
16.062056,0.043244,-0.072570,0.028407,1.008174,1.011181,-0.065336,-0.118627,-1.316109,1.323059,-1.316109,0.000000,0.150161,MOVE,0,5,-1.462638,3.247475,0.164340,1,25.823
16.112646,0.050590,-0.010614,-0.013750,1.014510,1.014659,-0.007303,0.005073,-1.187522,1.187555,-1.187522,0.000000,0.148338,MOVE,0,5,-1.522715,3.247475,0.164340,1,27.746
16.155972,0.043325,-0.033323,-0.004342,1.120031,1.120535,0.084021,-0.036771,-1.001819,1.006008,-1.001819,0.000000,0.241985,MOVE,0,5,-1.566119,3.247475,0.164340,1,29.826
16.198987,0.043016,0.009213,0.054628,0.945544,0.947165,-0.029295,-0.138786,-0.881173,0.892516,-0.881173,0.000000,0.170236,MOVE,0,5,-1.604024,3.247475,0.164340,1,32.035
16.242067,0.043079,0.048004,0.058513,1.013048,1.015871,-0.040290,0.131217,-0.471893,0.491451,-0.471893,0.000000,0.167496,MOVE,0,5,-1.624353,3.247475,0.164340,1,34.819
16.284983,0.042916,-0.042949,0.010683,1.024989,1.025944,-0.039985,-0.007144,-0.505796,0.507425,-0.505796,0.000000,0.174096,MOVE,0,5,-1.646060,3.247475,0.164340,1,37.168
16.336223,0.051240,0.009698,0.063126,1.000863,1.002899,-0.054645,0.067687,-0.569326,0.575934,-0.569326,0.000000,0.159295,MOVE,0,5,-1.675232,3.247475,0.164340,1,39.416
16.379885,0.043663,0.019396,0.108285,1.024014,1.029906,-0.222939,0.111058,-0.587041,0.637694,-0.587041,0.000000,0.170281,MOVE,0,5,-1.700863,3.247475,0.164340,1,41.465
16.424310,0.044425,0.020608,0.128194,1.021821,1.030037,-0.222939,0.104949,-0.528704,0.583304,-0.528704,0.000000,0.180287,MOVE,0,5,-1.724351,3.247475,0.164340,1,43.435
16.474514,0.050204,0.016486,0.110471,1.007686,1.013858,-0.041817,0.115945,-0.242819,0.272310,-0.242819,0.000000,0.174730,MOVE,0,5,-1.736541,3.247475,0.164340,1,45.941
16.525066,0.050552,0.022547,0.074052,0.981855,0.984901,0.200696,0.037014,-0.027627,0.205942,-0.027627,0.000000,0.143668,MOVE,0,5,-1.737938,3.247475,0.164340,1,48.857
16.568863,0.043797,0.024972,0.065068,1.016947,1.019332,0.144802,0.045871,-0.009606,0.152197,-0.009606,0.000000,0.146700,MOVE,0,5,-1.738359,3.247475,0.164340,1,51.603
16.619570,0.050707,0.048489,0.021366,1.056670,1.057997,-0.087305,0.153080,-0.134451,0.221659,-0.134451,0.000000,0.184228,MOVE,0,5,-1.745176,3.247475,0.164340,1,53.993
16.663070,0.043500,0.060369,0.010440,1.024258,1.026089,0.068161,0.180569,0.038424,0.196793,0.038424,0.000000,0.189285,MOVE,0,5,-1.743505,3.247475,0.164340,1,56.619
16.713691,0.050621,0.018911,-0.002895,1.028401,1.028579,-0.028457,0.102167,-0.008760,0.106417,-0.008760,0.000000,0.196077,MOVE,0,5,-1.743948,3.247475,0.164340,1,59.050
16.757224,0.043533,0.049701,0.016995,0.967964,0.969388,-0.060143,0.106417,-0.041510,0.129092,-0.041510,0.000000,0.148919,MOVE,0,5,-1.745755,3.247475,0.164340,1,61.326
16.800914,0.043690,0.039276,0.039818,1.035224,1.036734,-0.079714,0.106567,0.034903,0.137583,0.034903,0.000000,0.167087,MOVE,0,5,-1.744230,3.247475,0.164340,1,63.608
16.844656,0.043743,0.054793,0.007769,1.048628,1.050087,-0.103538,0.220799,0.026351,0.245289,0.026351,0.000000,0.195457,MOVE,0,5,-1.743078,3.247475,0.164340,1,65.836
16.888184,0.043527,0.034185,0.007527,1.076409,1.076978,0.024040,0.020928,-0.009766,0.033336,-0.009766,0.000000,0.245191,MOVE,0,5,-1.743503,3.247475,0.164340,1,67.846
16.938869,0.050685,0.068127,0.012140,1.025964,1.028295,-0.044866,0.009479,-0.044996,0.064245,-0.044996,0.000000,0.246138,MOVE,0,5,-1.745784,3.247475,0.164340,1,69.703
16.983231,0.044362,0.101100,0.006070,1.006468,1.011551,0.071806,0.031772,-0.069719,0.105006,-0.069719,0.000000,0.231920,MOVE,0,5,-1.748876,3.247475,0.164340,1,71.444
17.030773,0.047542,0.117101,0.030349,1.030838,1.037911,0.062012,0.028102,0.065888,0.094744,0.065888,0.000000,0.242848,MOVE,0,5,-1.745744,3.247475,0.164340,1,73.373
17.074326,0.043553,0.073219,-0.005066,1.054964,1.057514,0.188140,-0.027789,0.066799,0.201571,0.066799,0.000000,0.270326,MOVE,0,5,-1.742835,3.247475,0.164340,1,75.208
17.117925,0.043599,0.072734,-0.015438,1.031325,1.034002,0.135568,-0.068396,0.018530,0.152971,0.018530,0.000000,0.273895,MOVE,0,5,-1.742027,3.247475,0.164340,1,76.796
17.161606,0.043680,0.086311,-0.049451,0.986485,0.991487,0.052176,-0.037845,-0.108828,0.126484,-0.108828,0.000000,0.238844,MOVE,0,5,-1.746780,3.247475,0.164340,1,77.990
17.212275,0.050670,0.112737,-0.038114,0.973569,0.980815,0.090653,-0.032650,-0.164708,0.190821,-0.164708,0.000000,0.197693,MOVE,0,5,-1.755126,3.247475,0.164340,1,78.967
17.255695,0.043420,0.129224,-0.038355,0.972594,0.981891,0.003605,-0.098624,-0.208690,0.230849,-0.208690,0.000000,0.161626,MOVE,0,5,-1.764187,3.247475,0.164340,1,79.731
17.306566,0.050871,0.133588,-0.032083,0.986972,0.996488,0.035370,-0.030818,-0.226711,0.231514,-0.226711,0.000000,0.142303,MOVE,0,5,-1.775720,3.247475,0.164340,1,80.497
17.350274,0.043708,0.085826,-0.005307,1.060569,1.064049,-0.006780,-0.263557,-0.243510,0.358895,-0.243510,0.000000,0.185717,MOVE,0,5,-1.786364,3.247475,0.164340,1,80.942
17.401448,0.051174,0.067885,0.005099,1.054476,1.056671,-0.082527,-0.407722,-0.333001,0.532858,-0.333001,0.000000,0.218149,MOVE,0,5,-1.803405,3.247475,0.164340,1,81.286
17.445046,0.043597,0.115162,0.084735,1.201425,1.209903,0.172204,-0.139246,0.167297,0.277546,0.167297,0.000000,0.385247,MOVE,0,5,-1.796111,3.247475,0.164340,1,82.728
17.495621,0.050575,-0.049367,-0.030636,1.085669,1.087223,-0.255707,-0.162765,0.334064,0.451084,0.334064,0.000000,0.425223,MOVE,0,5,-1.779216,3.247475,0.164340,1,84.429
17.539241,0.043620,-0.133291,-0.026052,1.137577,1.145655,0.110201,-0.119699,0.240907,0.290703,0.240907,0.000000,0.513790,MOVE,0,5,-1.768707,3.247475,0.164340,1,85.840
17.589852,0.050611,-0.094538,0.039332,0.955535,0.961006,0.161514,-0.313648,0.136449,0.378259,0.136449,0.000000,0.427317,MOVE,0,5,-1.761802,3.247475,0.164340,1,86.906
17.633528,0.043676,-0.077013,0.076480,0.974300,0.980327,-0.061147,-0.215299,0.290081,0.366387,0.290081,0.000000,0.366879,MOVE,0,5,-1.749132,3.247475,0.164340,1,88.183
17.684170,0.050642,-0.078247,0.004127,0.974787,0.977931,-0.128036,-0.174066,0.305047,0.373826,0.305047,0.000000,0.310330,MOVE,0,5,-1.733684,3.247475,0.164340,1,89.371
17.727684,0.043515,-0.086146,0.006313,1.021090,1.024737,-0.103602,-0.024709,0.312072,0.329747,0.312072,0.000000,0.301560,MOVE,0,5,-1.720104,3.247475,0.164340,1,90.512
17.771190,0.043505,-0.064918,-0.013026,1.052527,1.054607,0.029872,-0.065026,0.219526,0.230895,0.219526,0.000000,0.320550,MOVE,0,5,-1.710554,3.247475,0.164340,1,91.358
17.821793,0.050603,-0.005677,-0.005307,0.989165,0.989196,-0.020213,0.000955,-0.077968,0.080552,-0.077968,0.000000,0.278772,MOVE,0,5,-1.714499,3.247475,0.164340,1,91.504
17.865375,0.043582,0.031760,0.043703,1.051796,1.053182,-0.017156,0.111820,-0.140878,0.180678,-0.140878,0.000000,0.298758,MOVE,0,5,-1.720639,3.247475,0.164340,1,91.362
17.916037,0.050662,0.059642,0.044431,1.023770,1.026468,-0.034558,0.033922,-0.094118,0.105845,-0.094118,0.000000,0.292704,MOVE,0,5,-1.725407,3.247475,0.164340,1,91.434
17.959568,0.043531,0.088493,0.022337,0.936527,0.940964,0.123347,-0.245850,0.065628,0.282779,0.065628,0.000000,0.210301,MOVE,0,5,-1.722550,3.247475,0.164340,1,91.844
18.003579,0.044011,0.069582,-0.000965,1.000863,1.003279,0.390601,-0.132535,-0.020810,0.412998,-0.020810,0.000000,0.192222,MOVE,0,5,-1.723466,3.247475,0.164340,1,92.011
18.047251,0.043672,0.054065,0.014568,1.056426,1.057909,0.036604,0.000329,-0.226977,0.229909,-0.226977,0.000000,0.225118,MOVE,0,5,-1.733379,3.247475,0.164340,1,91.673
18.090880,0.043628,0.026911,-0.027017,1.023039,1.023750,-0.111836,0.055612,-0.448415,0.465485,-0.448415,0.000000,0.223981,MOVE,0,5,-1.752942,3.247475,0.164340,1,90.849
18.138123,0.047243,0.055278,0.059970,0.947981,0.951483,0.077532,-0.103519,-0.444445,0.462880,-0.444445,0.000000,0.157917,MOVE,0,5,-1.773939,3.247475,0.164340,1,90.014
18.182734,0.044611,0.102070,-0.026052,0.902166,0.908295,0.088222,0.226654,-0.514389,0.568991,-0.514389,0.000000,0.059591,MOVE,0,5,-1.796887,3.247475,0.164340,1,89.168
18.226358,0.043624,0.072006,-0.047280,1.038149,1.041716,0.207341,0.169844,-0.591969,0.649818,-0.591969,0.000000,0.091177,MOVE,0,5,-1.822711,3.247475,0.164340,1,87.961
18.276990,0.050632,0.096736,-0.087324,0.969426,0.978146,0.043935,0.290184,-0.931915,0.977038,-0.931915,0.000000,0.062391,MOVE,0,5,-1.869896,3.247475,0.164340,1,86.250
18.320716,0.043726,0.137467,-0.072609,0.951880,0.964492,-0.043725,0.175036,-1.309430,1.321800,-1.309430,0.000000,0.024194,MOVE,1,6,-1.927152,3.090487,-0.257388,0,83.175
18.371748,0.051032,0.059157,-0.126644,1.121980,1.130654,0.111130,0.069662,-1.508266,1.513958,-1.508266,0.000000,0.139363,MOVE,0,6,-2.004121,3.090487,-0.257388,0,80.268
18.416167,0.044420,0.083886,-0.149560,1.065199,1.078913,-0.133522,0.120669,-1.578516,1.588742,-1.578516,0.000000,0.196449,MOVE,0,6,-2.074238,3.090487,-0.257388,0,77.331
18.459637,0.043470,0.060369,-0.068026,1.033031,1.037027,-0.037005,-0.085498,-1.813699,1.816090,-1.813699,0.000000,0.210128,MOVE,0,6,-2.153079,3.090487,-0.257388,0,73.169
18.510314,0.050677,0.025699,-0.078157,1.000863,1.004239,0.035688,-0.100159,-1.945341,1.948244,-1.945341,0.000000,0.192930,MOVE,0,6,-2.251663,3.090487,-0.257388,0,69.614
18.553873,0.043559,0.007273,-0.022193,0.987703,0.987979,0.157250,-0.214391,-1.940148,1.958281,-1.940148,0.000000,0.162819,MOVE,0,6,-2.336173,3.090487,-0.257388,0,66.067
18.597413,0.043540,-0.008639,-0.009408,0.972594,0.972678,-0.073046,-0.061063,-1.825305,1.827787,-1.825305,0.000000,0.121947,MOVE,0,6,-2.415647,3.090487,-0.257388,0,61.887
18.648048,0.050635,-0.001234,-0.031601,0.954561,0.955084,-0.009516,0.035453,-1.992683,1.993021,-1.992683,0.000000,0.069328,MOVE,0,6,-2.516547,3.090487,-0.257388,0,58.391
18.691566,0.043518,-0.049614,-0.011096,1.066174,1.067385,0.034466,-0.020441,-1.883032,1.883459,-1.883032,0.000000,0.123042,MOVE,0,6,-2.598493,3.090487,-0.257388,0,54.291
18.742274,0.050708,-0.070101,-0.035219,0.947250,0.950493,0.081197,-0.057704,-2.047966,2.050387,-2.047966,0.000000,0.066181,MOVE,0,6,-2.702341,3.090487,-0.257388,0,50.730
18.785741,0.043467,-0.037272,-0.002653,0.971132,0.971851,0.032023,-0.027466,-1.878451,1.878924,-1.878451,0.000000,0.034229,MOVE,1,7,-2.783993,2.668955,-0.414900,0,47.607
18.829292,0.043550,-0.055538,-0.021469,1.023770,1.025501,-0.071214,-0.013110,-1.860125,1.861534,-1.860125,0.000000,0.053756,MOVE,0,7,-2.865002,2.668955,-0.414900,0,43.914
18.880004,0.050712,-0.024930,-0.078398,1.012560,1.015897,-0.223319,0.037897,-1.694580,1.709652,-1.694580,0.000000,0.062688,MOVE,0,7,-2.950938,2.668955,-0.414900,0,41.383
18.923513,0.043509,-0.020981,-0.098903,1.061787,1.066590,0.084252,0.083712,-1.536061,1.540646,-1.536061,0.000000,0.116350,MOVE,0,7,-3.017770,2.668955,-0.414900,0,38.651
18.974260,0.050747,-0.056279,0.004127,1.121493,1.122912,0.072340,0.067524,-1.353412,1.357025,-1.353412,0.000000,0.215335,MOVE,0,7,-3.086452,2.668955,-0.414900,0,36.884
19.018093,0.043833,-0.153038,0.008012,1.038880,1.050122,0.182296,-0.113598,-1.181148,1.200519,-1.181148,0.000000,0.238911,MOVE,0,7,-3.138225,2.668955,-0.414900,0,35.117
19.068843,0.050750,-0.111817,0.099059,0.966745,0.978219,0.171911,-0.061369,-0.883046,0.901715,-0.883046,0.000000,0.195417,MOVE,0,7,3.100145,2.668955,-0.414900,0,34.632
19.112519,0.043675,-0.101943,0.102701,0.948224,0.959203,0.002396,-0.070226,-0.487511,0.492549,-0.487511,0.000000,0.139158,MOVE,0,7,3.078853,2.668955,-0.414900,0,34.626
19.163395,0.050876,-0.066152,0.140577,0.977224,0.989498,-0.095954,0.043089,-0.569367,0.579001,-0.569367,0.000000,0.115790,MOVE,0,7,3.049886,2.668955,-0.414900,0,34.665
19.207146,0.043751,-0.082690,0.175539,1.139039,1.155449,-0.610302,0.196722,-0.624955,0.895398,-0.624955,0.000000,0.244115,MOVE,0,7,3.022543,2.668955,-0.414900,0,34.527
19.255162,0.048015,-0.001728,0.026950,0.981855,0.982226,-0.753245,0.078214,-0.686042,1.021836,-0.686042,0.000000,0.203707,MOVE,0,7,2.989603,2.668955,-0.414900,0,34.259
19.298955,0.043794,0.035155,0.040546,0.999888,1.001327,-0.230039,0.195195,-0.405960,0.505789,-0.405960,0.000000,0.184530,MOVE,0,7,2.971824,2.668955,-0.414900,0,34.607
19.342667,0.043712,0.045095,0.053172,1.009636,1.012040,0.323711,0.076381,-0.178718,0.377575,-0.178718,0.000000,0.176914,MOVE,0,7,2.964012,2.668955,-0.414900,0,35.526
19.385913,0.043246,0.000727,0.033991,1.004275,1.004850,0.475205,0.133192,-0.186354,0.527530,-0.186354,0.000000,0.163587,MOVE,0,7,2.955953,2.668955,-0.414900,0,36.349
19.436467,0.050554,0.013819,0.007527,0.961140,0.961269,0.305385,-0.002420,-0.108469,0.324085,-0.108469,0.000000,0.112371,MOVE,0,7,2.950469,2.668955,-0.414900,0,37.371
19.480149,0.043681,-0.000000,0.007527,0.973813,0.973842,0.102883,0.127389,-0.078536,0.181606,-0.078536,0.000000,0.077591,MOVE,0,7,2.947039,2.668955,-0.414900,0,38.340
19.523533,0.043384,-0.002222,-0.022916,1.030594,1.030851,-0.137187,0.155183,-0.309749,0.372621,-0.309749,0.000000,0.097598,MOVE,0,7,2.933601,2.668955,-0.414900,0,38.670
19.574033,0.050500,0.072491,0.016753,1.040586,1.043242,-0.019595,0.126778,-0.237361,0.269809,-0.237361,0.000000,0.126756,MOVE,0,7,2.921614,2.668955,-0.414900,0,39.224
19.617325,0.043292,0.094554,0.047587,1.081283,1.086452,0.098293,-0.026871,-0.023848,0.104653,-0.023848,0.000000,0.191887,MOVE,0,7,2.920582,2.668955,-0.414900,0,40.107
19.660803,0.043478,0.061824,0.025250,1.056182,1.058291,0.051239,0.062000,-0.175330,0.192900,-0.175330,0.000000,0.225161,MOVE,0,7,2.912959,2.668955,-0.414900,0,40.664
19.711268,0.050466,0.026911,0.036662,1.020602,1.021615,0.017947,-0.070863,-0.193656,0.206994,-0.193656,0.000000,0.222098,MOVE,0,7,2.903185,2.668955,-0.414900,0,41.180
19.754644,0.043375,0.026911,-0.010373,0.938233,0.938676,-0.007402,0.053451,-0.186615,0.194260,-0.186615,0.000000,0.144697,MOVE,0,7,2.895091,2.668955,-0.414900,0,41.667
19.798011,0.043367,0.016001,0.011897,1.012073,1.012269,-0.038853,-0.056811,-0.144424,0.159986,-0.144424,0.000000,0.141270,MOVE,0,7,2.888828,2.668955,-0.414900,0,42.140
19.848573,0.050562,0.049701,0.011897,0.971376,0.972719,-0.047394,-0.026559,-0.152328,0.161726,-0.152328,0.000000,0.102590,MOVE,0,7,2.881126,2.668955,-0.414900,0,42.661
19.891997,0.043424,0.067885,0.034962,0.977955,0.980932,-0.017456,0.070556,-0.055480,0.091437,-0.055480,0.000000,0.075170,MOVE,0,7,2.878717,2.668955,-0.414900,0,43.361
19.935359,0.043362,0.056975,0.023308,0.994527,0.996430,0.008509,0.070234,-0.012715,0.071881,-0.012715,0.000000,0.064440,MOVE,0,7,2.878165,2.668955,-0.414900,0,44.180
19.978750,0.043392,0.063521,0.024036,0.992821,0.995141,0.077214,0.106253,-0.026761,0.134045,-0.026761,0.000000,0.053623,MOVE,0,7,2.877004,2.668955,-0.414900,0,44.997
20.029447,0.050696,0.069340,0.062155,1.059838,1.063921,0.130348,0.090362,0.106709,0.191162,0.106709,0.000000,0.105789,MOVE,0,7,2.882414,2.668955,-0.414900,0,46.012
20.072811,0.043365,0.070794,0.021366,0.936527,0.939442,0.090635,-0.092889,0.085627,0.155483,0.085627,0.000000,0.040708,MOVE,0,7,2.886127,2.668955,-0.414900,0,46.936
20.116256,0.043445,0.140134,0.062155,0.970888,0.982916,0.150782,-0.005837,0.129291,0.198709,0.129291,0.000000,0.021262,MOVE,1,8,2.891744,2.232927,-0.303635,0,47.911
20.165485,0.049228,0.128011,0.053657,1.026695,1.036035,0.134899,-0.086166,0.186407,0.245703,0.186407,0.000000,0.051567,MOVE,0,8,2.900920,2.232927,-0.303635,0,49.061
20.208899,0.043414,0.197836,0.039575,1.073972,1.092758,0.208814,-0.076086,0.249326,0.334000,0.249326,0.000000,0.129893,MOVE,0,8,2.911745,2.232927,-0.303635,0,50.381
20.259570,0.050672,0.165833,0.028650,1.148543,1.160807,0.279980,-0.211393,0.299111,0.461024,0.299111,0.000000,0.261630,MOVE,0,8,2.926901,2.232927,-0.303635,0,51.496
20.303188,0.043617,0.088008,0.040061,1.205568,1.209440,0.206370,-0.498194,0.004369,0.539264,0.004369,0.000000,0.423963,MOVE,0,8,2.927092,2.232927,-0.303635,0,51.797
20.346669,0.043481,0.070794,0.045888,1.141232,1.144346,0.213701,-0.795686,-0.221040,0.853020,-0.221040,0.000000,0.511479,MOVE,0,8,2.917481,2.232927,-0.303635,0,51.654
20.390127,0.043459,-0.029867,0.008498,1.326929,1.327293,0.418646,-0.475592,-0.086955,0.639542,-0.086955,0.000000,0.754894,MOVE,0,8,2.913702,2.232927,-0.303635,0,51.567
20.433813,0.043686,-0.163405,0.055599,1.100779,1.114229,0.005090,-0.554089,-0.030145,0.554931,-0.030145,0.000000,0.782211,MOVE,0,8,2.912385,2.232927,-0.303635,0,51.639
20.484321,0.050508,-0.138968,0.017481,0.977955,0.987935,-0.144877,-0.215669,0.226113,0.344427,0.226113,0.000000,0.693131,MOVE,0,8,2.923805,2.232927,-0.303635,0,52.300
20.527917,0.043597,-0.180931,0.036662,1.059838,1.075795,-0.082569,-0.034548,0.263070,0.277880,0.263070,0.000000,0.692034,MOVE,0,8,2.935274,2.232927,-0.303635,0,53.096
20.571308,0.043391,-0.118481,0.055357,1.024014,1.032331,-0.182445,-0.076697,0.494894,0.533000,0.494894,0.000000,0.651928,MOVE,0,8,2.956748,2.232927,-0.303635,0,54.508
20.622285,0.050977,-0.125393,0.035448,0.952367,0.961241,-0.120442,-0.039129,0.501308,0.517056,0.501308,0.000000,0.551852,MOVE,0,8,2.982303,2.232927,-0.303635,0,55.676
20.665754,0.043468,-0.103918,0.109257,0.923611,0.935838,-0.008349,-0.052568,0.247188,0.252854,0.247188,0.000000,0.438921,MOVE,0,8,2.993048,2.232927,-0.303635,0,56.178
20.716452,0.050698,0.034912,0.084735,0.893880,0.898566,0.020362,0.241258,0.078894,0.254646,0.078894,0.000000,0.303738,MOVE,0,8,2.997048,2.232927,-0.303635,0,56.338
20.759858,0.043406,-0.042456,0.113141,0.984292,0.991682,-0.146404,0.294403,0.096915,0.342783,0.096915,0.000000,0.265878,MOVE,0,8,3.001255,2.232927,-0.303635,0,56.664
20.803208,0.043350,0.013819,0.012625,0.951149,0.951333,0.047851,0.276994,0.228862,0.362482,0.228862,0.000000,0.195490,MOVE,0,8,3.011176,2.232927,-0.303635,0,57.351
20.854040,0.050833,-0.059487,0.028892,1.065199,1.067250,0.193848,0.402832,0.357449,0.572381,0.357449,0.000000,0.236466,MOVE,0,8,3.029346,2.232927,-0.303635,0,58.317
20.897552,0.043512,-0.020734,0.053172,0.947250,0.948967,0.239968,0.200025,0.472903,0.566773,0.472903,0.000000,0.166890,MOVE,0,8,3.049923,2.232927,-0.303635,0,59.702
20.948145,0.050592,0.104252,0.086920,0.874384,0.884857,0.217977,0.261417,0.416092,0.537573,0.416092,0.000000,0.046572,MOVE,0,8,3.070974,2.232927,-0.303635,0,60.861
20.991558,0.043413,0.019153,0.071624,1.041317,1.043953,-0.050498,0.412911,0.340039,0.537282,0.340039,0.000000,0.081472,MOVE,0,8,3.085736,2.232927,-0.303635,0,61.813
21.035180,0.043623,0.009940,-0.000482,1.014997,1.015046,0.026468,0.158778,0.036742,0.165109,0.036742,0.000000,0.086867,MOVE,0,8,3.087339,2.232927,-0.303635,0,62.078
21.085639,0.050459,0.038306,0.041275,1.042048,1.043568,-0.069732,0.095231,-0.050914,0.128544,-0.050914,0.000000,0.117391,MOVE,0,8,3.084770,2.232927,-0.303635,0,62.119
21.130835,0.045195,0.041943,0.052686,1.018653,1.020876,0.087261,-0.041608,-0.082961,0.127390,-0.082961,0.000000,0.124441,MOVE,0,8,3.081020,2.232927,-0.303635,0,61.975
21.179888,0.049053,0.047519,0.044674,0.974787,0.976967,0.075952,-0.072757,-0.333402,0.349599,-0.333402,0.000000,0.091267,MOVE,0,8,3.064666,2.232927,-0.303635,0,61.438
21.224645,0.044757,0.079037,0.133536,1.031569,1.043174,0.099165,-0.089250,-0.361502,0.385335,-0.361502,0.000000,0.120997,MOVE,0,8,3.048486,2.232927,-0.303635,0,60.717
21.273752,0.049107,0.069340,0.141548,1.005493,1.017772,0.027083,0.064077,-0.230777,0.241034,-0.230777,0.000000,0.124893,MOVE,0,8,3.037153,2.232927,-0.303635,0,60.626
21.315843,0.042091,-0.001728,0.109257,1.068854,1.074425,0.422313,-0.203177,-0.134871,0.487667,-0.134871,0.000000,0.179386,MOVE,0,8,3.031476,2.232927,-0.303635,0,60.530
21.361536,0.045693,0.034912,0.216085,0.982098,1.006195,0.553038,-0.429502,-0.107688,0.708463,-0.107688,0.000000,0.167023,MOVE,0,8,3.026556,2.232927,-0.303635,0,60.481
21.403580,0.042044,0.011395,0.163157,0.980149,0.993701,0.541126,-0.750206,-0.235358,0.954474,-0.235358,0.000000,0.144652,MOVE,0,8,3.016660,2.232927,-0.303635,0,59.988
21.445765,0.042185,0.032003,0.308104,1.132459,1.174060,-0.315918,-0.302442,-0.629061,0.766155,-0.629061,0.000000,0.286840,MOVE,0,8,2.990123,2.232927,-0.303635,0,58.520
21.491141,0.045376,-0.037766,0.107557,1.148299,1.153944,-0.372423,-0.044046,-0.547816,0.663884,-0.547816,0.000000,0.396706,MOVE,0,8,2.965266,2.232927,-0.303635,0,57.537
21.533063,0.041922,-0.088367,0.186950,1.228476,1.245758,0.056099,-0.014419,-0.119294,0.132613,-0.119294,0.000000,0.578217,MOVE,0,8,2.960265,2.232927,-0.303635,0,57.556
21.574921,0.041858,-0.096760,0.031563,1.103947,1.108628,-0.058133,0.089733,0.304341,0.322575,0.304341,0.000000,0.618161,MOVE,0,8,2.973004,2.232927,-0.303635,0,58.527
21.616777,0.041856,-0.097500,-0.050657,0.913620,0.920203,0.309913,-0.047101,0.210879,0.377802,0.210879,0.000000,0.484527,MOVE,0,8,2.981830,2.232927,-0.303635,0,59.204
21.662307,0.045530,-0.057019,0.020152,0.943107,0.945044,0.122683,-0.150337,-0.129984,0.233556,-0.129984,0.000000,0.386614,MOVE,0,8,2.975912,2.232927,-0.303635,0,59.072
21.711388,0.049081,-0.051589,0.075266,0.935552,0.939992,-0.242003,-0.158889,-0.134871,0.319377,-0.134871,0.000000,0.293945,MOVE,0,8,2.969293,2.232927,-0.303635,0,58.973
21.756415,0.045027,-0.041222,0.041275,0.986972,0.988695,-0.358984,0.031701,-0.036216,0.362196,-0.036216,0.000000,0.254376,MOVE,0,8,2.967662,2.232927,-0.303635,0,59.166
21.797929,0.041514,-0.070101,0.032777,0.986485,0.989515,-0.309809,-0.066954,0.187360,0.368196,0.187360,0.000000,0.219502,MOVE,0,8,2.975440,2.232927,-0.303635,0,59.946
21.843006,0.045077,-0.052823,0.100031,1.010855,1.017164,0.016087,-0.092915,0.436899,0.446959,0.436899,0.000000,0.213000,MOVE,0,8,2.995134,2.232927,-0.303635,0,61.314
21.891576,0.048571,-0.030854,0.089348,0.989165,0.993672,-0.063325,-0.075200,0.508981,0.518389,0.508981,0.000000,0.186004,MOVE,0,8,3.019855,2.232927,-0.303635,0,62.901
21.936584,0.045008,-0.061215,0.078179,1.021333,1.026149,-0.348905,0.090039,0.631765,0.727302,0.631765,0.000000,0.190938,MOVE,0,8,3.048290,2.232927,-0.303635,0,64.673
21.978058,0.041474,-0.062943,0.087891,1.036199,1.041823,-0.213904,0.108059,0.914290,0.945176,0.914290,0.000000,0.209485,MOVE,0,8,3.086209,2.232927,-0.303635,0,67.164
22.023222,0.045164,-0.099722,0.068468,1.064468,1.071319,-0.182444,0.108365,1.039212,1.060655,1.039212,0.000000,0.252723,MOVE,0,8,3.133144,2.232927,-0.303635,0,70.116
22.071852,0.048630,-0.067386,0.176996,1.004275,1.021977,0.000205,0.042086,1.283558,1.284248,1.283558,0.000000,0.247230,MOVE,0,8,-3.087622,2.232927,-0.303635,0,73.426
22.117091,0.045239,-0.084665,0.145676,0.999157,1.013264,-0.068823,-0.050155,1.545314,1.547658,1.545314,0.000000,0.234444,MOVE,0,8,-3.017714,2.232927,-0.303635,0,76.953
22.159219,0.042128,-0.062203,0.065797,0.998426,1.002523,0.069843,-0.077644,1.791798,1.794839,1.791798,0.000000,0.213271,MOVE,0,8,-2.942229,2.232927,-0.303635,0,80.868
22.200786,0.041567,-0.070842,0.040304,1.037661,1.040857,0.276927,-0.102078,2.168091,2.188087,2.168091,0.000000,0.228715,MOVE,0,8,-2.852107,2.232927,-0.303635,0,85.962
22.245781,0.044995,-0.111323,-0.036908,1.062275,1.068729,0.250965,-0.000675,2.326305,2.339803,2.326305,0.000000,0.267700,MOVE,0,8,-2.747436,2.232927,-0.303635,0,90.773
22.287265,0.041484,-0.144399,-0.004101,1.096879,1.106351,0.146812,-0.047711,2.347991,2.353060,2.347991,0.000000,0.336646,MOVE,0,8,-2.650032,2.232927,-0.303635,0,95.892
22.332535,0.045270,-0.110336,-0.015197,0.987216,0.993479,-0.016594,0.073240,2.173589,2.174886,2.173589,0.000000,0.297112,MOVE,0,8,-2.551633,2.232927,-0.303635,0,100.893
22.381169,0.048634,-0.090836,-0.023158,0.959922,0.964488,-0.022703,0.023454,2.007128,2.007393,2.007128,0.000000,0.235440,MOVE,0,8,-2.454018,2.232927,-0.303635,0,104.799
22.426576,0.045407,-0.030854,0.019666,0.938233,0.938946,0.041133,-0.015336,1.760644,1.761191,1.760644,0.000000,0.156948,MOVE,0,8,-2.374073,2.232927,-0.303635,0,107.865
22.468242,0.041666,-0.048627,0.084735,1.016460,1.021144,-0.042861,0.085763,1.962840,1.965180,1.962840,0.000000,0.160282,MOVE,0,8,-2.292289,2.232927,-0.303635,0,111.189
22.509884,0.041642,-0.057760,0.005827,1.042535,1.044150,-0.040112,0.116000,1.751786,1.756081,1.751786,0.000000,0.183989,MOVE,0,8,-2.219342,2.232927,-0.303635,0,114.513
22.554931,0.045048,-0.024437,0.003156,1.038392,1.038684,-0.112500,0.105310,1.649772,1.656953,1.649772,0.000000,0.200406,MOVE,0,8,-2.145023,2.232927,-0.303635,0,116.948
22.596515,0.041584,-0.030854,-0.008684,1.005493,1.006004,-0.075237,0.024676,1.315628,1.318009,1.315628,0.000000,0.185769,MOVE,0,8,-2.090314,2.232927,-0.303635,0,118.923
22.641908,0.045392,-0.007158,-0.075021,1.047165,1.049874,0.035940,-0.078866,0.837932,0.842402,0.837932,0.000000,0.212079,MOVE,0,8,-2.052279,2.232927,-0.303635,0,119.968
22.690466,0.048559,0.040004,-0.058859,0.999157,1.001688,-0.034004,-0.097192,0.839764,0.846054,0.839764,0.000000,0.192390,MOVE,0,8,-2.011501,2.232927,-0.303635,0,120.747
22.735600,0.045133,0.049459,0.011411,1.058619,1.059835,-0.017205,-0.069092,0.805556,0.808696,0.805556,0.000000,0.227003,MOVE,0,8,-1.975144,2.232927,-0.303635,0,121.292
22.777668,0.042069,0.028366,-0.029671,1.081283,1.082062,-0.218180,0.170062,0.802196,0.848553,0.802196,0.000000,0.278158,MOVE,0,8,-1.941396,2.232927,-0.303635,0,121.792
22.819139,0.041471,-0.027892,-0.045833,1.076896,1.078232,-0.195272,0.009404,0.548687,0.582475,0.548687,0.000000,0.320751,MOVE,0,8,-1.918642,2.232927,-0.303635,0,121.905
22.864352,0.045213,0.050429,0.011897,0.984779,0.986141,0.042660,-0.142090,0.456446,0.479951,0.456446,0.000000,0.276203,MOVE,0,8,-1.898004,2.232927,-0.303635,0,121.686
22.905886,0.041534,0.088008,0.020880,0.990628,0.994749,0.015476,0.054914,0.516311,0.519454,0.516311,0.000000,0.243857,MOVE,0,8,-1.876560,2.232927,-0.303635,0,121.716
22.950912,0.045026,0.040004,-0.007237,1.010367,1.011185,-0.292400,0.115695,0.473245,0.568194,0.473245,0.000000,0.229537,MOVE,0,8,-1.855252,2.232927,-0.303635,0,121.755
22.999416,0.048505,0.045822,-0.077192,0.991846,0.995900,-0.105780,0.251002,0.435066,0.513297,0.435066,0.000000,0.202894,MOVE,0,8,-1.834149,2.232927,-0.303635,0,121.595
23.044560,0.045143,0.031760,-0.065372,1.062518,1.065001,-0.012013,0.176476,0.175143,0.248924,0.175143,0.000000,0.241105,MOVE,0,8,-1.826242,2.232927,-0.303635,0,120.963
23.086075,0.041515,0.028609,-0.023158,1.087863,1.088485,0.087551,0.073234,0.089614,0.145118,0.089614,0.000000,0.296631,MOVE,0,8,-1.822522,2.232927,-0.303635,0,120.242
23.131264,0.045189,0.021820,-0.074056,1.063493,1.066292,0.174268,-0.063287,0.004393,0.185456,0.004393,0.000000,0.326631,MOVE,0,8,-1.822324,2.232927,-0.303635,0,119.462
23.174185,0.042921,-0.018266,-0.027259,1.008661,1.009195,0.136689,-0.046175,-0.011190,0.144711,-0.011190,0.000000,0.302243,MOVE,0,8,-1.822804,2.232927,-0.303635,0,118.718
23.222711,0.048526,-0.063684,0.006798,1.009880,1.011909,0.146744,-0.161004,-0.026458,0.219445,-0.026458,0.000000,0.282736,MOVE,0,8,-1.824088,2.232927,-0.303635,0,117.769
23.267739,0.045028,-0.037272,0.054871,0.933603,0.935956,-0.145250,-0.051354,-0.192308,0.246408,-0.192308,0.000000,0.196823,MOVE,0,8,-1.832747,2.232927,-0.303635,0,116.630
23.309374,0.041635,-0.041468,0.034719,0.980636,0.982126,-0.000468,-0.015009,-0.081422,0.082795,-0.081422,0.000000,0.161055,MOVE,0,8,-1.836137,2.232927,-0.303635,0,115.765
23.354521,0.045147,-0.000247,0.074052,1.057644,1.060234,-0.042003,0.097993,0.038915,0.113496,0.038915,0.000000,0.199159,MOVE,0,8,-1.834380,2.232927,-0.303635,0,115.188
23.403018,0.048496,-0.007158,0.007527,1.074216,1.074266,0.020000,0.174351,0.140013,0.224504,0.140013,0.000000,0.246083,MOVE,0,8,-1.827590,2.232927,-0.303635,0,114.930
23.448153,0.045136,-0.007405,-0.014715,1.077140,1.077266,-0.062162,0.171602,0.030363,0.185023,0.030363,0.000000,0.291014,MOVE,0,8,-1.826219,2.232927,-0.303635,0,114.440
23.489676,0.041523,0.009940,-0.020745,1.014510,1.014771,0.122000,0.021615,-0.015136,0.124821,-0.015136,0.000000,0.275206,MOVE,0,8,-1.826848,2.232927,-0.303635,0,113.965
23.534702,0.045026,-0.042209,-0.014715,1.018897,1.019877,0.059361,-0.023586,0.050520,0.081438,0.050520,0.000000,0.265575,MOVE,0,8,-1.824573,2.232927,-0.303635,0,113.677
23.583175,0.048473,-0.092070,-0.027741,1.011098,1.015660,-0.046620,-0.000677,-0.006292,0.047048,-0.006292,0.000000,0.253111,MOVE,0,8,-1.824878,2.232927,-0.303635,0,113.273
23.621171,0.037996,-0.081949,0.008983,0.996233,0.999638,-0.034695,0.003596,-0.038352,0.051842,-0.038352,0.000000,0.227475,MOVE,0,8,-1.826335,2.232927,-0.303635,0,112.835
23.669753,0.048582,-0.043443,0.038604,1.007443,1.009118,0.022419,0.020699,0.064268,0.071144,0.064268,0.000000,0.212933,MOVE,0,8,-1.823213,2.232927,-0.303635,0,112.599
23.714925,0.045173,-0.024930,0.035691,1.015972,1.016904,0.017835,0.050016,0.080449,0.096394,0.080449,0.000000,0.206854,MOVE,0,8,-1.819579,2.232927,-0.303635,0,112.484
23.756546,0.041620,-0.025177,-0.007719,1.020359,1.020699,0.105167,0.093977,-0.008746,0.141309,-0.008746,0.000000,0.204797,MOVE,0,8,-1.819943,2.232927,-0.303635,0,112.222
23.797994,0.041449,-0.021228,0.039332,1.071048,1.071980,0.037037,0.118995,-0.020039,0.126226,-0.020039,0.000000,0.249099,MOVE,0,8,-1.820774,2.232927,-0.303635,0,111.992
23.836001,0.038007,-0.041468,0.035933,1.057644,1.059067,-0.044811,0.069808,0.028213,0.087620,0.028213,0.000000,0.277349,MOVE,0,8,-1.819701,2.232927,-0.303635,0,111.893
23.877854,0.041853,-0.016044,0.020637,0.987703,0.988049,0.015054,0.111331,-0.041726,0.119842,-0.041726,0.000000,0.238859,MOVE,0,8,-1.821448,2.232927,-0.303635,0,111.691
23.919297,0.041442,-0.034310,-0.011579,1.007930,1.008580,0.191284,0.146140,-0.162978,0.290703,-0.162978,0.000000,0.222695,MOVE,0,8,-1.828202,2.232927,-0.303635,0,111.252
23.964385,0.045089,-0.079481,0.113870,1.054964,1.064064,-0.180731,-0.122634,-0.003235,0.218433,-0.003235,0.000000,0.258083,MOVE,0,8,-1.828348,2.232927,-0.303635,0,111.200
24.012923,0.048537,-0.041962,0.045159,1.010855,1.012733,-0.088767,-0.041373,0.052955,0.111336,0.052955,0.000000,0.243734,MOVE,0,8,-1.825778,2.232927,-0.303635,0,111.301
24.057855,0.044932,-0.046899,0.000486,0.999157,1.000257,-0.013007,-0.209932,0.019348,0.211223,0.019348,0.000000,0.219592,MOVE,0,8,-1.824908,2.232927,-0.303635,0,111.283
24.099304,0.041449,-0.033323,0.005341,0.966502,0.967091,0.141228,-0.161358,0.131439,0.251511,0.131439,0.000000,0.168015,MOVE,0,8,-1.819460,2.232927,-0.303635,0,111.425
24.141080,0.041776,-0.026658,-0.007237,0.951149,0.951550,0.059977,0.035948,0.103330,0.124766,0.103330,0.000000,0.107608,MOVE,0,8,-1.815143,2.232927,-0.303635,0,111.601
24.183935,0.042855,-0.031101,-0.062960,1.026695,1.029093,-0.052116,0.261357,-0.045721,0.270396,-0.045721,0.000000,0.123031,MOVE,0,8,-1.817103,2.232927,-0.303635,0,111.275
24.221871,0.037935,-0.036285,-0.007719,1.048871,1.049527,-0.051505,0.087261,-0.130020,0.164841,-0.130020,0.000000,0.155303,MOVE,0,8,-1.822035,2.232927,-0.303635,0,110.753
24.270684,0.048813,0.009213,-0.076710,0.959678,0.962783,-0.078078,0.167895,-0.032587,0.188008,-0.032587,0.000000,0.106277,MOVE,0,8,-1.823626,2.232927,-0.303635,0,110.521
24.315785,0.045101,-0.034310,0.023308,1.099316,1.100099,0.031264,0.105272,0.082554,0.137386,0.082554,0.000000,0.185738,MOVE,0,8,-1.819903,2.232927,-0.303635,0,110.587
24.357398,0.041613,0.013577,-0.054758,1.035712,1.037247,0.064556,-0.181529,0.249320,0.315088,0.249320,0.000000,0.200687,MOVE,0,8,-1.809528,2.232927,-0.303635,0,111.116
24.402393,0.044994,-0.050108,-0.055723,1.042291,1.044982,-0.046010,-0.032478,0.288415,0.293862,0.288415,0.000000,0.221102,MOVE,0,8,-1.796551,2.232927,-0.303635,0,111.738
24.451030,0.048637,-0.049614,-0.074780,0.978687,0.982792,0.018129,-0.038278,0.185774,0.190541,0.185774,0.000000,0.183505,MOVE,0,8,-1.787515,2.232927,-0.303635,0,112.025
24.495993,0.044964,-0.003456,0.039575,0.992821,0.993615,-0.084788,-0.041936,0.070003,0.117678,0.070003,0.000000,0.159408,MOVE,0,8,-1.784368,2.232927,-0.303635,0,112.078
24.537436,0.041443,0.024972,0.057542,0.971863,0.973885,-0.000785,-0.040398,0.296306,0.299048,0.296306,0.000000,0.119964,MOVE,0,8,-1.772088,2.232927,-0.303635,0,112.456
24.582402,0.044966,0.032245,0.037633,0.943107,0.944408,-0.103410,0.072917,0.237968,0.269517,0.237968,0.000000,0.057935,MOVE,0,8,-1.761387,2.232927,-0.303635,0,112.717
24.623938,0.041536,0.041458,0.029378,0.972594,0.973921,0.043199,-0.015658,0.140829,0.148135,0.140829,0.000000,0.028670,MOVE,1,9,-1.755538,2.150265,-0.745977,0,112.878
24.669096,0.045158,0.080492,0.072595,1.054233,1.059790,0.100009,0.071695,0.542778,0.556552,0.542778,0.000000,0.079614,MOVE,0,9,-1.731027,2.150265,-0.745977,0,114.041
24.717540,0.048444,0.016244,-0.023158,1.103947,1.104309,0.140632,-0.037650,0.242232,0.282615,0.242232,0.000000,0.165531,MOVE,0,9,-1.719292,2.150265,-0.745977,0,114.417
24.762503,0.044963,0.045337,0.016995,1.147568,1.148589,-0.148002,-0.092017,0.265140,0.317287,0.265140,0.000000,0.282708,MOVE,0,9,-1.707371,2.150265,-0.745977,0,114.781
24.803941,0.041438,0.040004,-0.053311,1.100779,1.102795,0.309842,-0.330254,0.346996,0.570505,0.346996,0.000000,0.346952,MOVE,0,9,-1.692992,2.150265,-0.745977,0,115.371
24.849043,0.045102,0.014789,-0.011579,1.169745,1.169896,0.321143,0.055507,0.679612,0.753715,0.679612,0.000000,0.465163,MOVE,0,9,-1.662340,2.150265,-0.745977,0,116.806
24.897523,0.048480,-0.154766,-0.153178,1.070560,1.092481,0.376731,-0.149743,0.495131,0.639925,0.495131,0.000000,0.501880,MOVE,0,9,-1.638336,2.150265,-0.745977,0,117.659
24.942635,0.045112,-0.130329,-0.053552,1.067636,1.076894,0.155293,0.042068,0.267278,0.311966,0.267278,0.000000,0.520897,MOVE,0,9,-1.626279,2.150265,-0.745977,0,117.896
24.984145,0.041510,-0.183152,-0.080087,0.976006,0.996266,0.154987,-0.308263,-0.231799,0.415666,-0.231799,0.000000,0.465446,MOVE,0,9,-1.635901,2.150265,-0.745977,0,116.948
25.029314,0.045169,-0.072076,0.081336,0.961384,0.967507,-0.027048,-0.059941,-0.198185,0.208810,-0.198185,0.000000,0.389658,MOVE,0,9,-1.644853,2.150265,-0.745977,0,116.010
25.077724,0.048410,-0.124652,0.043703,1.057888,1.066103,-0.096076,0.116904,-0.046079,0.158179,-0.046079,0.000000,0.410185,MOVE,0,9,-1.647083,2.150265,-0.745977,0,115.544
25.115744,0.038020,-0.157481,0.052200,1.065443,1.078282,-0.116215,-0.077958,-0.075385,0.158954,-0.075385,0.000000,0.439620,MOVE,0,9,-1.649949,2.150265,-0.745977,0,115.061
25.165560,0.049816,-0.099968,0.073081,0.980392,0.988182,-0.083213,-0.167421,-0.013077,0.187418,-0.013077,0.000000,0.385022,MOVE,0,9,-1.650601,2.150265,-0.745977,0,114.781
25.206957,0.041397,-0.088614,0.010683,0.957241,0.961393,-0.054192,-0.260866,-0.067747,0.274914,-0.067747,0.000000,0.311774,MOVE,0,9,-1.653405,2.150265,-0.745977,0,114.299
25.252224,0.045267,-0.079481,0.077451,0.978199,0.984474,-0.094204,-0.267891,-0.078132,0.294524,-0.078132,0.000000,0.266623,MOVE,0,9,-1.656942,2.150265,-0.745977,0,113.809
25.293676,0.041453,-0.102190,-0.017609,1.028401,1.033616,0.023693,-0.201307,-0.035371,0.205759,-0.035371,0.000000,0.270215,MOVE,0,9,-1.658408,2.150265,-0.745977,0,113.382
25.338841,0.045165,-0.097253,0.024279,1.112476,1.116983,-0.004712,-0.163128,-0.107453,0.195394,-0.107453,0.000000,0.348478,MOVE,0,9,-1.663261,2.150265,-0.745977,0,112.723
25.387378,0.048537,-0.049614,0.027921,1.023283,1.024865,0.009955,-0.183854,-0.030778,0.186678,-0.030778,0.000000,0.336009,MOVE,0,9,-1.664755,2.150265,-0.745977,0,112.213
25.432423,0.045046,0.001940,0.014568,1.009149,1.009256,0.148621,-0.259907,-0.137374,0.329410,-0.137374,0.000000,0.310738,MOVE,0,9,-1.670943,2.150265,-0.745977,0,111.496
25.473786,0.041363,0.059884,0.091533,1.013779,1.019663,0.087534,-0.277927,-0.006343,0.291455,-0.006343,0.000000,0.297361,MOVE,0,9,-1.671206,2.150265,-0.745977,0,110.972
25.518712,0.044925,0.135527,0.054143,0.989409,1.000115,-0.019367,-0.381469,0.059630,0.386587,0.059630,0.000000,0.267728,MOVE,0,9,-1.668527,2.150265,-0.745977,0,110.653
25.560080,0.041368,0.040246,0.035448,1.002813,1.004246,-0.032501,-0.195155,-0.174331,0.263691,-0.174331,0.000000,0.244777,MOVE,0,9,-1.675739,2.150265,-0.745977,0,109.808
25.605005,0.044925,0.088250,0.050501,0.966014,0.971351,0.023394,-0.294115,-0.044522,0.298384,-0.044522,0.000000,0.194514,MOVE,0,9,-1.677739,2.150265,-0.745977,0,109.168
25.653449,0.048444,0.081219,0.008983,0.971132,0.974564,0.006891,-0.135871,-0.199059,0.241108,-0.199059,0.000000,0.152170,MOVE,0,9,-1.687382,2.150265,-0.745977,0,108.289
25.698408,0.044959,0.123405,0.058756,0.965527,0.975153,0.028880,-0.136470,-0.017020,0.140527,-0.017020,0.000000,0.114591,MOVE,0,9,-1.688147,2.150265,-0.745977,0,107.689
25.739890,0.041482,0.157105,-0.003377,0.987703,1.000126,0.070100,-0.065591,-0.193862,0.216330,-0.193862,0.000000,0.103245,MOVE,0,9,-1.696189,2.150265,-0.745977,0,106.646
25.784948,0.045058,0.098675,0.066040,1.098098,1.104499,0.081402,-0.274813,-0.415911,0.505104,-0.415911,0.000000,0.186969,MOVE,0,9,-1.714929,2.150265,-0.745977,0,105.177
25.826360,0.041411,0.113465,0.071138,0.988922,0.997949,0.074377,-0.627282,-0.681332,0.929101,-0.681332,0.000000,0.166426,MOVE,0,9,-1.743144,2.150265,-0.745977,0,102.923
25.871357,0.044998,0.110555,0.264158,1.287694,1.319151,-0.496782,0.673861,-0.447982,0.949510,-0.447982,0.000000,0.437019,MOVE,0,9,-1.763302,2.150265,-0.745977,0,101.243
25.919984,0.048627,-0.303855,-0.230371,1.161703,1.222682,-0.002898,0.027260,-0.667283,0.667845,-0.667283,0.000000,0.593731,MOVE,0,9,-1.795750,2.150265,-0.745977,0,99.397
25.964925,0.044940,-0.019006,0.006313,0.997207,0.997409,-0.162639,0.148823,-0.836187,0.864759,-0.836187,0.000000,0.532026,MOVE,0,9,-1.833329,2.150265,-0.745977,0,97.401
26.006414,0.041490,0.053581,0.070410,0.912157,0.916438,0.008098,-0.072311,-0.626660,0.630870,-0.626660,0.000000,0.403618,MOVE,0,9,-1.859329,2.150265,-0.745977,0,95.861
26.051383,0.044969,-0.024437,-0.023640,0.947250,0.947860,0.014817,-0.106519,-0.371929,0.387166,-0.371929,0.000000,0.316330,MOVE,0,9,-1.876054,2.150265,-0.745977,0,94.894
26.099965,0.048582,-0.108361,-0.009167,0.997939,1.003846,-0.083532,-0.116598,-0.389950,0.415492,-0.389950,0.000000,0.288158,MOVE,0,9,-1.894998,2.150265,-0.745977,0,94.068
26.145281,0.045317,-0.088120,-0.063442,1.016947,1.022727,-0.015726,0.089569,-0.171260,0.193907,-0.171260,0.000000,0.279797,MOVE,0,9,-1.902759,2.150265,-0.745977,0,93.698
26.187001,0.041719,-0.106139,-0.105898,1.034493,1.045302,-0.004730,0.032453,-0.212188,0.214707,-0.212188,0.000000,0.292589,MOVE,0,9,-1.911611,2.150265,-0.745977,0,93.257
26.232800,0.045799,-0.065411,0.008012,1.025233,1.027348,-0.018778,0.000379,-0.123894,0.125309,-0.123894,0.000000,0.287944,MOVE,0,9,-1.917286,2.150265,-0.745977,0,93.029
26.283272,0.050472,-0.026165,0.021123,0.941401,0.942001,-0.040768,-0.050934,-0.061883,0.089921,-0.061883,0.000000,0.206951,MOVE,0,9,-1.920409,2.150265,-0.745977,0,93.017
26.327568,0.044296,-0.003456,0.027921,1.010123,1.010515,-0.075257,-0.033526,0.042576,0.092738,0.042576,0.000000,0.195719,MOVE,0,9,-1.918523,2.150265,-0.745977,0,93.153
26.375512,0.047944,0.005576,-0.030877,1.021577,1.022059,-0.037060,-0.152915,-0.079900,0.176467,-0.079900,0.000000,0.196000,MOVE,0,9,-1.922354,2.150265,-0.745977,0,92.928
26.419638,0.044126,0.071522,0.029135,1.044728,1.047579,0.026776,-0.228052,-0.173362,0.287713,-0.173362,0.000000,0.219221,MOVE,0,9,-1.930004,2.150265,-0.745977,0,92.612
26.463447,0.043808,0.063763,0.131836,1.075190,1.085118,0.097014,0.078928,0.399007,0.418149,0.399007,0.000000,0.273905,MOVE,0,9,-1.912524,2.150265,-0.745977,0,93.471
26.513981,0.050535,-0.049614,-0.074539,1.075678,1.079398,0.161155,-0.165418,0.075249,0.242891,0.075249,0.000000,0.317973,MOVE,0,9,-1.908721,2.150265,-0.745977,0,93.648
26.557564,0.043582,0.034670,-0.047280,0.921661,0.923524,0.295545,-0.219785,-0.174901,0.407728,-0.174901,0.000000,0.217348,MOVE,0,9,-1.916344,2.150265,-0.745977,0,93.137
26.608130,0.050566,0.113707,0.012868,0.945300,0.952201,0.210635,0.059992,-0.121755,0.250580,-0.121755,0.000000,0.152594,MOVE,0,9,-1.922500,2.150265,-0.745977,0,92.863
26.651913,0.043784,0.084856,0.048073,1.170963,1.175018,0.160849,0.124743,0.119842,0.236211,0.119842,0.000000,0.294851,MOVE,0,9,-1.917253,2.150265,-0.745977,0,93.010
26.695356,0.043443,0.057217,-0.023158,1.104190,1.105914,-0.018138,0.017524,-0.079620,0.083519,-0.079620,0.000000,0.360689,MOVE,0,9,-1.920712,2.150265,-0.745977,0,92.738
26.746214,0.050858,0.096251,-0.013267,0.994039,0.998777,0.110144,-0.041425,-0.239667,0.266998,-0.239667,0.000000,0.323519,MOVE,0,9,-1.932901,2.150265,-0.745977,0,92.109
26.789647,0.043433,0.089220,-0.049693,0.962602,0.968005,0.106479,-0.018517,-0.460495,0.473007,-0.460495,0.000000,0.262371,MOVE,0,9,-1.952902,2.150265,-0.745977,0,90.770
26.840455,0.050807,0.071522,-0.032083,1.019871,1.022879,0.106784,0.014164,-0.642838,0.651801,-0.642838,0.000000,0.256725,MOVE,0,9,-1.985563,2.150265,-0.745977,0,89.272
26.884414,0.043960,0.059157,0.005584,1.073728,1.075371,0.056388,0.008055,-0.696594,0.698919,-0.696594,0.000000,0.298887,MOVE,0,9,-2.016185,2.150265,-0.745977,0,87.426
26.935058,0.050643,0.069097,0.018938,1.025720,1.028219,0.082655,-0.046923,-0.735690,0.741804,-0.735690,0.000000,0.294396,MOVE,0,9,-2.053443,2.150265,-0.745977,0,85.889
26.978467,0.043409,0.062066,0.050744,1.059838,1.062866,0.036229,-0.080826,-0.680712,0.686450,-0.680712,0.000000,0.321535,MOVE,0,9,-2.082992,2.150265,-0.745977,0,84.126
27.029505,0.051038,0.052853,0.036176,0.976981,0.979078,-0.054790,0.015080,-0.776923,0.778998,-0.776923,0.000000,0.270551,MOVE,0,9,-2.122645,2.150265,-0.745977,0,82.578
27.072897,0.043392,0.048732,0.014082,1.051796,1.053018,0.004770,0.123814,-0.936664,0.944824,-0.936664,0.000000,0.291213,MOVE,0,9,-2.163288,2.150265,-0.745977,0,80.355
27.123581,0.050684,0.059399,-0.003860,0.999888,1.001658,0.001715,0.137864,-1.059143,1.068079,-1.059143,0.000000,0.263584,MOVE,0,9,-2.216970,2.150265,-0.745977,0,78.467
27.165196,0.041615,0.052611,-0.046798,1.026939,1.029350,0.102508,0.219109,-1.345944,1.367509,-1.345944,0.000000,0.263640,MOVE,0,9,-2.272981,2.150265,-0.745977,0,75.817
27.208970,0.043774,0.043155,-0.059100,1.031081,1.033675,-0.158637,-0.013325,-1.464452,1.473079,-1.464452,0.000000,0.267584,MOVE,0,9,-2.337086,2.150265,-0.745977,0,72.428
27.259766,0.050796,0.063763,-0.044386,1.023527,1.026471,-0.083500,0.191009,-1.498966,1.513392,-1.498966,0.000000,0.264649,MOVE,0,9,-2.413228,2.150265,-0.745977,0,69.711
27.303266,0.043499,0.016971,-0.053793,1.055451,1.056957,0.012711,0.000114,-1.411917,1.411975,-1.411917,0.000000,0.289446,MOVE,0,9,-2.474646,2.150265,-0.745977,0,67.266
27.347134,0.043869,0.032003,-0.044386,1.063980,1.065387,0.042338,-0.133055,-1.417415,1.424276,-1.417415,0.000000,0.319349,MOVE,0,9,-2.536826,2.150265,-0.745977,0,64.883
27.390743,0.043609,0.043640,-0.030877,1.031812,1.033196,-0.160164,-0.132138,-1.457732,1.472446,-1.457732,0.000000,0.317291,MOVE,0,9,-2.600396,2.150265,-0.745977,0,61.742
27.442026,0.051283,-0.019006,-0.065131,1.058619,1.060791,-0.090220,-0.173983,-1.621750,1.633549,-1.621750,0.000000,0.340274,MOVE,0,9,-2.683564,2.150265,-0.745977,0,58.995
27.485450,0.043424,-0.029620,0.003885,1.021577,1.022014,-0.166272,-0.167874,-1.578073,1.595663,-1.578073,0.000000,0.326059,MOVE,0,9,-2.752090,2.150265,-0.745977,0,55.724
27.536047,0.050596,-0.050848,0.043217,1.047409,1.049533,-0.280504,-0.139469,-1.517903,1.549891,-1.517903,0.000000,0.338033,MOVE,0,9,-2.828891,2.150265,-0.745977,0,53.298
27.579901,0.043855,-0.029373,0.047587,1.004275,1.005831,-0.151917,-0.039592,-1.218273,1.228347,-1.218273,0.000000,0.309477,MOVE,0,9,-2.882318,2.150265,-0.745977,0,51.110
27.630771,0.050870,-0.037025,0.050015,1.063249,1.065069,-0.235606,0.028519,-1.185897,1.209411,-1.185897,0.000000,0.337091,MOVE,0,9,-2.942644,2.150265,-0.745977,0,49.467
27.674244,0.043473,-0.012835,0.052929,1.068854,1.070241,-0.087471,-0.095792,-1.223466,1.230323,-1.223466,0.000000,0.366599,MOVE,0,9,-2.995832,2.150265,-0.745977,0,47.356
27.724798,0.050555,-0.037025,0.097603,1.073728,1.078791,-0.074337,-0.102206,-0.921393,0.930020,-0.921393,0.000000,0.400851,MOVE,0,9,-3.042412,2.150265,-0.745977,0,46.411
27.768273,0.043475,-0.033076,-0.027500,0.936040,0.937027,0.178256,-0.112896,-0.689569,0.721129,-0.689569,0.000000,0.304090,MOVE,0,9,-3.072391,2.150265,-0.745977,0,45.917
27.811814,0.043540,0.019153,0.009226,0.981855,0.982085,0.103730,-0.014241,-0.753405,0.760645,-0.753405,0.000000,0.257558,MOVE,0,9,-3.105195,2.150265,-0.745977,0,44.953
27.862852,0.051038,0.000242,-0.020504,0.991602,0.991814,0.173063,-0.054558,-0.850227,0.869375,-0.850227,0.000000,0.224435,MOVE,0,9,3.134597,2.150265,-0.745977,0,43.551
27.914611,0.051759,0.048732,0.005827,0.919712,0.921021,0.013933,0.042569,-1.011801,1.012792,-1.011801,0.000000,0.130910,MOVE,0,9,3.082227,2.150265,-0.745977,0,41.966
27.965258,0.050647,0.028609,0.048801,1.031081,1.032632,0.313868,0.148554,-0.725305,0.804145,-0.725305,0.000000,0.147188,MOVE,0,9,3.045492,2.150265,-0.745977,0,41.197
28.008305,0.043047,0.007758,-0.035701,1.048871,1.049507,0.113198,0.093271,-0.879548,0.891694,-0.879548,0.000000,0.177026,MOVE,0,9,3.007630,2.150265,-0.745977,0,40.198
28.051087,0.042782,0.036124,0.042489,1.067880,1.069335,0.135190,0.180625,-0.746380,0.779733,-0.746380,0.000000,0.221725,MOVE,0,9,2.975699,2.150265,-0.745977,0,39.491
28.093836,0.042749,0.054550,-0.017127,1.021090,1.022689,-0.005004,0.059979,-0.928723,0.930671,-0.928723,0.000000,0.219972,MOVE,0,9,2.935997,2.150265,-0.745977,0,37.939
28.149064,0.055228,0.069582,-0.019539,0.987216,0.989858,0.009351,-0.082964,-0.913451,0.917259,-0.913451,0.000000,0.188847,MOVE,0,9,2.885549,2.150265,-0.745977,0,37.037
28.188165,0.039101,0.097706,0.022094,0.980149,0.985254,-0.022108,-0.030429,-0.972094,0.972822,-0.972094,0.000000,0.156692,MOVE,0,9,2.847539,2.150265,-0.745977,0,35.747
28.233109,0.044944,0.082189,0.002185,1.021333,1.024637,0.038367,-0.036843,-0.975149,0.976599,-0.975149,0.000000,0.163196,MOVE,0,9,2.803712,2.150265,-0.745977,0,34.255
28.281525,0.048417,0.084614,0.009954,1.063006,1.066414,0.056693,0.059368,-1.006914,1.010254,-1.006914,0.000000,0.206649,MOVE,0,9,2.754961,2.150265,-0.745977,0,33.299
28.319534,0.038008,-0.000494,0.002671,1.148543,1.148546,0.051501,-0.077160,-1.006914,1.011178,-1.006914,0.000000,0.319676,MOVE,0,9,2.716689,2.150265,-0.745977,0,32.109
28.361104,0.041570,-0.025424,-0.014715,1.013291,1.013717,0.063718,-0.273554,-1.203307,1.235653,-1.203307,0.000000,0.300054,MOVE,0,9,2.666668,2.150265,-0.745977,0,30.531
28.402514,0.041410,-0.000000,0.024279,0.933359,0.933675,0.111366,-0.230488,-1.210027,1.236807,-1.210027,0.000000,0.210356,MOVE,0,9,2.616561,2.150265,-0.745977,0,28.942
28.444082,0.041569,0.027396,0.041032,0.957485,0.958755,0.088764,-0.121448,-1.131836,1.141788,-1.131836,0.000000,0.152200,MOVE,0,9,2.569512,2.150265,-0.745977,0,27.742
28.481992,0.037910,0.015032,0.070167,1.016460,1.018989,-0.037685,-0.016685,-1.082661,1.083445,-1.082661,0.000000,0.154070,MOVE,0,9,2.528468,2.150265,-0.745977,0,26.045
28.530411,0.048419,-0.014316,0.059727,1.078602,1.080350,-0.035853,-0.126335,-0.953768,0.962767,-0.953768,0.000000,0.210978,MOVE,0,9,2.482288,2.150265,-0.745977,0,25.220
28.568334,0.037923,-0.025424,0.078665,1.011342,1.014715,-0.108240,-0.108009,-1.008441,1.019968,-1.008441,0.000000,0.203124,MOVE,0,9,2.444045,2.150265,-0.745977,0,23.692
28.616719,0.048385,-0.009627,0.055599,0.986241,0.987854,-0.092969,0.079526,-1.017604,1.024932,-1.017604,0.000000,0.171880,MOVE,0,9,2.394808,2.150265,-0.745977,0,22.307
28.661722,0.045003,0.008243,0.051472,1.052527,1.053817,-0.012640,0.190399,-1.110150,1.126430,-1.110150,0.000000,0.203127,MOVE,0,9,2.344848,2.150265,-0.745977,0,21.019
28.703143,0.041420,0.011395,0.085949,1.094442,1.097871,-0.066396,0.116789,-1.126338,1.134321,-1.126338,0.000000,0.270899,MOVE,0,9,2.298194,2.150265,-0.745977,0,19.442
28.748063,0.044920,0.017941,0.073323,1.022065,1.024848,0.075019,-0.104039,-1.180094,1.187044,-1.180094,0.000000,0.266172,MOVE,0,9,2.245184,2.150265,-0.745977,0,18.079
28.789446,0.041383,0.017699,0.080850,0.946762,0.950373,0.146796,-0.097624,-1.125727,1.139448,-1.125727,0.000000,0.194891,MOVE,0,9,2.198598,2.150265,-0.745977,0,16.566
28.834340,0.044894,0.005819,0.077451,0.969913,0.973018,0.055777,0.041958,-1.043566,1.045897,-1.043566,0.000000,0.151118,MOVE,0,9,2.151749,2.150265,-0.745977,0,15.038
28.882836,0.048496,-0.025918,0.022580,1.031325,1.031898,0.014238,-0.007216,-1.124200,1.124313,-1.124200,0.000000,0.164714,MOVE,0,9,2.097229,2.150265,-0.745977,0,13.518
28.927779,0.044943,-0.027646,0.042731,1.051308,1.052539,-0.010807,0.010499,-1.294937,1.295024,-1.294937,0.000000,0.195528,MOVE,0,9,2.039031,2.150265,-0.745977,0,11.906
28.969215,0.041436,-0.028880,0.053657,1.034493,1.036286,-0.006837,-0.080826,-1.374960,1.377351,-1.374960,0.000000,0.208633,MOVE,0,9,1.982058,2.150265,-0.745977,0,9.762
29.014318,0.045104,-0.052576,0.084249,1.015485,1.020329,0.160540,-0.176426,-1.421691,1.441564,-1.421691,0.000000,0.206066,MOVE,0,9,1.917935,2.150265,-0.745977,0,7.885
29.055927,0.041608,-0.015057,0.104644,0.973082,0.978808,0.059748,-0.123892,-1.257369,1.264869,-1.257369,0.000000,0.166386,MOVE,0,9,1.865618,2.150265,-0.745977,0,6.417
29.097426,0.041499,-0.045418,0.078665,1.007443,1.011529,-0.054484,-0.052726,-1.246068,1.248372,-1.246068,0.000000,0.160124,MOVE,0,9,1.813907,2.150265,-0.745977,0,5.272
29.135470,0.038044,-0.034063,0.063612,1.002081,1.004676,0.036535,-0.038371,-1.161157,1.162365,-1.161157,0.000000,0.148320,MOVE,0,9,1.769732,2.150265,-0.745977,0,3.998
29.178206,0.042736,-0.014810,0.087163,1.034006,1.037779,-0.045932,0.013858,-0.958350,0.959550,-0.958350,0.000000,0.167489,MOVE,0,9,1.728775,2.150265,-0.745977,0,2.807
29.226652,0.048445,-0.013823,0.025493,1.079821,1.080210,-0.054179,-0.034094,-0.976981,0.979076,-0.976981,0.000000,0.222929,MOVE,0,9,1.681445,2.150265,-0.745977,0,1.875
29.271530,0.044878,0.008243,0.052200,1.009392,1.010775,-0.076475,-0.151075,-0.955601,0.970487,-0.955601,0.000000,0.210334,MOVE,0,9,1.638559,2.150265,-0.745977,0,1.153
29.313057,0.041527,0.004606,0.098088,0.957729,0.962750,-0.095107,-0.129695,-0.878937,0.893531,-0.878937,0.000000,0.155775,MOVE,0,9,1.602060,2.150265,-0.745977,0,0.407
29.358116,0.045059,0.030548,0.097845,0.938720,0.944300,-0.125039,0.139086,-0.732330,0.755835,-0.732330,0.000000,0.090067,MOVE,0,9,1.569062,2.150265,-0.745977,0,359.940
29.406572,0.048456,-0.021722,0.061912,1.055451,1.057488,-0.049292,0.090827,-0.704841,0.712376,-0.704841,0.000000,0.132800,MOVE,0,9,1.534908,2.150265,-0.745977,0,359.942
29.444826,0.038254,-0.003456,0.067011,0.989897,0.992168,-0.068839,-0.014547,-0.661775,0.665505,-0.661775,0.000000,0.112472,MOVE,0,9,1.509593,2.150265,-0.745977,0,359.835
29.486251,0.041425,0.032488,0.107800,1.000863,1.007176,0.000799,0.013553,-0.530439,0.530613,-0.530439,0.000000,0.107683,MOVE,0,9,1.487619,2.150265,-0.745977,0,359.960
29.527683,0.041432,0.073704,0.099788,1.015485,1.023034,0.069827,0.005001,-0.389024,0.395272,-0.389024,0.000000,0.117645,MOVE,0,9,1.471501,2.150265,-0.745977,0,0.392
29.572592,0.044909,0.047519,0.122853,1.073728,1.081778,-0.085333,-0.007216,-0.227144,0.242752,-0.227144,0.000000,0.179481,MOVE,0,9,1.461300,2.150265,-0.745977,0,1.175
29.613976,0.041385,0.039276,0.055114,0.990140,0.992451,-0.166883,0.085941,-0.129100,0.227822,-0.129100,0.000000,0.154738,MOVE,0,9,1.455958,2.150265,-0.745977,0,2.147
29.658946,0.044970,0.015032,0.000971,1.014023,1.014134,0.044167,0.080436,-0.137641,0.165426,-0.137641,0.000000,0.151985,MOVE,0,9,1.449768,2.150265,-0.745977,0,3.043
29.707334,0.048388,0.030548,0.057542,1.024502,1.026571,-0.040747,0.021789,-0.155625,0.162340,-0.155625,0.000000,0.160701,MOVE,0,9,1.442238,2.150265,-0.745977,0,3.913
29.745250,0.037917,0.053823,0.041760,1.019384,1.021658,-0.124741,0.091428,-0.242673,0.287767,-0.242673,0.000000,0.164122,MOVE,0,9,1.433036,2.150265,-0.745977,0,4.478
29.793618,0.048368,0.039761,0.032291,1.016703,1.017993,0.055770,0.004074,-0.218238,0.225288,-0.218238,0.000000,0.163904,MOVE,0,9,1.422481,2.150265,-0.745977,0,5.125
29.838484,0.044865,0.052368,0.063369,0.996964,1.000347,0.075623,0.056914,-0.175172,0.199106,-0.175172,0.000000,0.147826,MOVE,0,9,1.414621,2.150265,-0.745977,0,5.899
29.879986,0.041502,0.084856,0.056571,0.996233,1.001439,0.046903,0.044989,-0.066412,0.092922,-0.066412,0.000000,0.134339,MOVE,0,9,1.411865,2.150265,-0.745977,0,6.852
29.924912,0.044926,0.099160,0.027436,1.002813,1.008077,0.193816,0.178463,0.053317,0.268805,0.053317,0.000000,0.128174,MOVE,0,9,1.414261,2.150265,-0.745977,0,7.964
29.973360,0.048449,0.052368,0.036904,1.056182,1.058123,0.094226,0.044062,-0.009908,0.104490,-0.009908,0.000000,0.167667,MOVE,0,9,1.413780,2.150265,-0.745977,0,8.994
30.011338,0.037978,0.053096,0.068468,1.089569,1.093008,-0.071016,0.072145,-0.075245,0.126135,-0.075245,0.000000,0.234608,MOVE,0,9,1.410923,2.150265,-0.745977,0,9.765
30.059752,0.048413,0.073219,0.029135,1.047653,1.050612,0.014514,0.095030,-0.021175,0.098436,-0.021175,0.000000,0.256698,MOVE,0,9,1.409898,2.150265,-0.745977,0,10.639
30.104637,0.044885,0.067642,0.007041,1.031812,1.034051,0.015731,0.034238,-0.154623,0.159147,-0.154623,0.000000,0.261675,MOVE,0,9,1.402957,2.150265,-0.745977,0,11.308
30.147503,0.042866,0.093342,0.026950,1.005981,1.010661,-0.004427,0.039422,-0.134739,0.140458,-0.134739,0.000000,0.245102,MOVE,0,9,1.397182,2.150265,-0.745977,0,11.869
30.188955,0.041452,0.092614,0.032777,0.992334,0.997185,0.049930,-0.000594,-0.108748,0.119664,-0.108748,0.000000,0.218058,MOVE,0,9,1.392674,2.150265,-0.745977,0,12.419
30.233886,0.044930,0.114677,0.047345,0.951392,0.959448,0.122903,-0.043344,-0.045195,0.137936,-0.045195,0.000000,0.159755,MOVE,0,9,1.390643,2.150265,-0.745977,0,13.180
30.275282,0.041397,0.111040,0.034962,0.994283,1.001075,0.124400,0.009490,0.091312,0.154607,0.091312,0.000000,0.144747,MOVE,0,9,1.394423,2.150265,-0.745977,0,14.175
30.320337,0.045055,0.104009,0.025736,1.054720,1.060148,0.128656,-0.067473,0.009146,0.145563,0.009146,0.000000,0.184406,MOVE,0,9,1.394835,2.150265,-0.745977,0,14.971
30.368871,0.048534,0.090917,0.045402,1.054233,1.059119,0.055636,-0.173428,-0.120957,0.218639,-0.120957,0.000000,0.219173,MOVE,0,9,1.388965,2.150265,-0.745977,0,15.437
30.413780,0.044909,0.081947,0.036662,1.080065,1.083789,0.073351,-0.197557,-0.156999,0.262788,-0.156999,0.000000,0.272666,MOVE,0,9,1.381914,2.150265,-0.745977,0,15.799
30.455465,0.041685,-0.032829,0.024522,1.194602,1.195304,0.069075,-0.351495,-0.280393,0.454907,-0.280393,0.000000,0.421173,MOVE,0,9,1.370226,2.150265,-0.745977,0,15.847
30.500364,0.044899,0.025942,0.093961,1.177543,1.181571,-0.025912,-0.101032,-0.051009,0.116107,-0.051009,0.000000,0.542470,MOVE,0,9,1.367936,2.150265,-0.745977,0,16.462
30.541740,0.041376,-0.033323,0.052686,1.163409,1.165078,0.096264,0.212340,0.288928,0.371260,0.288928,0.000000,0.636793,MOVE,0,9,1.379890,2.150265,-0.745977,0,17.906
30.586609,0.044869,-0.115766,0.060213,1.107115,1.114778,0.269445,-0.050332,0.373227,0.463068,0.373227,0.000000,0.676414,MOVE,0,9,1.396637,2.150265,-0.745977,0,19.523
30.635038,0.048429,-0.127367,0.033263,1.022796,1.031232,0.033345,0.035800,0.464246,0.466817,0.464246,0.000000,0.636881,MOVE,0,9,1.419120,2.150265,-0.745977,0,21.039
30.679990,0.044951,-0.162912,0.027436,0.997695,1.011280,0.005856,-0.158455,0.189662,0.247212,0.189662,0.000000,0.583346,MOVE,0,9,1.427645,2.150265,-0.745977,0,21.957
30.721376,0.041387,-0.107374,0.075023,0.943594,0.952642,0.089850,-0.185333,0.173779,0.269482,0.173779,0.000000,0.482389,MOVE,0,9,1.434837,2.150265,-0.745977,0,22.912
30.766288,0.044912,-0.078000,0.115326,0.958703,0.968760,0.033345,-0.096758,0.413544,0.426020,0.413544,0.000000,0.406034,MOVE,0,9,1.453410,2.150265,-0.745977,0,24.146
30.807707,0.041419,-0.071829,0.089105,0.912401,0.919551,0.064805,-0.019789,0.306948,0.314338,0.306948,0.000000,0.293027,MOVE,0,9,1.466124,2.150265,-0.745977,0,25.229
30.852728,0.045021,-0.052576,0.078908,0.916056,0.920951,0.187589,-0.003601,0.269685,0.328531,0.269685,0.000000,0.192580,MOVE,0,9,1.478265,2.150265,-0.745977,0,26.194
30.901216,0.048488,-0.015797,0.180880,0.967233,0.984127,0.146355,0.057486,0.177139,0.236860,0.177139,0.000000,0.159037,MOVE,0,9,1.486854,2.150265,-0.745977,0,26.822
30.946202,0.044986,0.009940,0.112899,0.979418,0.985953,0.059918,0.138425,0.158813,0.219028,0.158813,0.000000,0.130491,MOVE,0,9,1.493999,2.150265,-0.745977,0,27.289
30.987560,0.041358,0.017941,0.117026,1.024745,1.031562,0.147882,0.127124,0.187218,0.270334,0.187218,0.000000,0.145847,MOVE,0,9,1.501742,2.150265,-0.745977,0,27.843
31.032606,0.045046,-0.000987,0.131594,1.032544,1.040896,0.071518,0.030605,0.114821,0.138692,0.114821,0.000000,0.168069,MOVE,0,9,1.506914,2.150265,-0.745977,0,28.217
31.074024,0.041418,0.045822,0.107557,1.004031,1.010815,0.016226,-0.077811,0.053715,0.095933,0.053715,0.000000,0.160995,MOVE,0,9,1.509139,2.150265,-0.745977,0,28.370
31.118972,0.044949,0.055035,0.122367,0.943107,0.952603,-0.060129,-0.130633,-0.016231,0.144720,-0.016231,0.000000,0.102239,MOVE,0,9,1.508409,2.150265,-0.745977,0,28.333
31.168754,0.049782,0.112252,0.140091,0.971619,0.988064,-0.019806,-0.134871,0.007595,0.136529,0.007595,0.000000,0.081272,MOVE,0,9,1.508787,2.150265,-0.745977,0,28.275
31.213893,0.045139,0.136982,0.141548,0.996720,1.015997,-0.085151,-0.102775,0.048209,0.141907,0.048209,0.000000,0.087543,MOVE,0,9,1.510963,2.150265,-0.745977,0,28.369
31.262460,0.048567,0.127527,0.133293,0.995502,1.012449,-0.051841,-0.149171,0.024989,0.159887,0.024989,0.000000,0.089993,MOVE,0,9,1.512177,2.150265,-0.745977,0,28.327
31.307460,0.045000,0.121223,0.139120,1.059594,1.075541,-0.024648,-0.179075,-0.043116,0.185835,-0.043116,0.000000,0.148981,MOVE,0,9,1.510237,2.150265,-0.745977,0,28.134
31.348974,0.041514,0.087523,0.157330,1.009149,1.025082,-0.029842,-0.381254,-0.107253,0.397175,-0.107253,0.000000,0.156657,MOVE,0,9,1.505784,2.150265,-0.745977,0,27.660
31.393983,0.045009,0.050914,0.152231,1.035955,1.048318,0.087139,-0.278629,-0.238894,0.377224,-0.238894,0.000000,0.184477,MOVE,0,9,1.495032,2.150265,-0.745977,0,26.813
31.442775,0.048792,-0.018266,0.125038,1.244316,1.250716,0.083779,0.238774,0.286450,0.382211,0.286450,0.000000,0.391674,MOVE,0,9,1.509008,2.150265,-0.745977,0,27.236
31.487651,0.044876,-0.142671,0.104886,1.121005,1.134905,0.091415,0.053377,0.114491,0.155930,0.114491,0.000000,0.473921,MOVE,0,9,1.514146,2.150265,-0.745977,0,27.462
31.529055,0.041404,-0.139709,0.172868,1.041804,1.065250,0.083168,0.032607,0.340511,0.352034,0.340511,0.000000,0.485254,MOVE,0,9,1.528245,2.150265,-0.745977,0,28.097
31.573911,0.044856,-0.162665,0.121639,1.012317,1.032493,-0.035645,0.165470,0.417175,0.450207,0.417175,0.000000,0.465972,MOVE,0,9,1.546958,2.150265,-0.745977,0,28.796
31.615342,0.041431,-0.166861,0.099788,1.054233,1.072011,-0.050611,0.096443,0.483759,0.495869,0.483759,0.000000,0.484184,MOVE,0,9,1.567000,2.150265,-0.745977,0,29.711
31.660408,0.045066,-0.194506,0.082307,1.031569,1.052968,-0.064050,-0.031839,0.515830,0.520765,0.515830,0.000000,0.483437,MOVE,0,9,1.590247,2.150265,-0.745977,0,30.745
31.708927,0.048519,-0.176981,0.150289,1.030594,1.056425,-0.046946,-0.068185,0.766590,0.771047,0.766590,0.000000,0.485875,MOVE,0,9,1.627441,2.150265,-0.745977,0,32.123
31.753893,0.044966,-0.150817,0.164128,0.964065,0.989497,-0.150793,-0.062077,0.952904,0.966756,0.952904,0.000000,0.427835,MOVE,0,9,1.670289,2.150265,-0.745977,0,33.705
31.795261,0.041368,-0.148842,0.164856,0.993796,1.018313,-0.119028,-0.084373,1.263223,1.271621,1.263223,0.000000,0.401533,MOVE,0,9,1.722546,2.150265,-0.745977,0,36.231
31.840197,0.044936,-0.130576,0.137178,0.948712,0.967431,-0.194775,-0.018705,1.542389,1.554751,1.542389,0.000000,0.332067,MOVE,0,9,1.791855,2.150265,-0.745977,0,39.705
31.888965,0.048768,-0.079481,0.102944,0.980880,0.989464,-0.323668,0.134011,1.730535,1.765636,1.730535,0.000000,0.289379,MOVE,0,9,1.876250,2.150265,-0.745977,0,43.329
31.933899,0.044935,-0.042209,-0.000000,0.998426,0.999318,-0.169424,0.159973,1.775434,1.790659,1.775434,0.000000,0.259827,MOVE,0,9,1.956028,2.150265,-0.745977,0,46.636
31.975344,0.041445,-0.018019,0.044431,1.061787,1.062869,-0.007545,0.015503,1.823692,1.823774,1.823692,0.000000,0.290426,MOVE,0,9,2.031610,2.150265,-0.745977,0,50.475
32.020333,0.044989,0.001697,0.033020,1.021577,1.022112,0.016889,0.048490,2.028332,2.028982,2.028332,0.000000,0.281285,MOVE,0,9,2.122863,2.150265,-0.745977,0,54.214
32.061809,0.041476,-0.018019,0.022580,1.024502,1.024909,0.053541,0.051239,2.121183,2.122478,2.121183,0.000000,0.275574,MOVE,0,9,2.210841,2.150265,-0.745977,0,58.476
32.106717,0.044908,-0.019500,-0.024605,1.038880,1.039354,0.070646,-0.021149,2.035968,2.037303,2.035968,0.000000,0.283435,MOVE,0,9,2.302272,2.150265,-0.745977,0,62.921
32.155599,0.048882,-0.047639,-0.000241,1.053745,1.054822,-0.210963,-0.026341,1.734811,1.747790,1.734811,0.000000,0.304431,MOVE,0,9,2.387073,2.150265,-0.745977,0,66.023
32.200536,0.044937,-0.005677,-0.053070,0.962359,0.963838,-0.184696,-0.059939,1.451981,1.464907,1.451981,0.000000,0.241442,MOVE,0,9,2.452321,2.150265,-0.745977,0,68.171
32.242049,0.041513,-0.000494,-0.020504,0.917031,0.917261,-0.152626,-0.019622,1.321255,1.330186,1.321255,0.000000,0.142832,MOVE,0,9,2.507170,2.150265,-0.745977,0,70.307
32.286942,0.044893,0.043155,-0.032565,0.990384,0.991859,-0.258916,0.261682,1.116310,1.175442,1.116310,0.000000,0.121222,MOVE,0,9,2.557285,2.150265,-0.745977,0,72.242
32.335610,0.048668,0.032003,-0.083705,1.002081,1.006080,-0.157818,0.109882,0.874408,0.895304,0.874408,0.000000,0.114572,MOVE,0,9,2.599841,2.150265,-0.745977,0,73.377
32.380642,0.045032,0.151529,-0.037390,0.990384,1.002606,0.034605,0.112020,0.812405,0.820821,0.812405,0.000000,0.105461,MOVE,0,9,2.636424,2.150265,-0.745977,0,74.293
32.422060,0.041419,0.118556,-0.066096,1.034249,1.043118,-0.170035,0.149588,0.563477,0.607285,0.563477,0.000000,0.133721,MOVE,0,9,2.659763,2.150265,-0.745977,0,74.698
32.467097,0.045036,0.180865,-0.058377,1.005250,1.023057,0.113712,-0.038559,0.435195,0.451456,0.435195,0.000000,0.141101,MOVE,0,9,2.679362,2.150265,-0.745977,0,74.944
32.508511,0.041414,0.140376,-0.065131,1.009392,1.021186,0.026663,-0.176003,0.720470,0.742135,0.720470,0.000000,0.146058,MOVE,0,9,2.709200,2.150265,-0.745977,0,75.886
