t,dt,acc_x_g,acc_y_g,acc_z_g,acc_mag_g,gyro_x_rads,gyro_y_rads,gyro_z_rads,gyro_mag_rads,yaw_deg,yaw_rad,hp,state,step,step_count,heading_rad,pos_x_m,pos_y_m,walkable
0.000721,0.000721,-0.062449,-0.019298,1.018897,1.020991,-0.001728,-0.000907,-0.000119,0.001955,51.668,0.901784,0.018892,MOVE,0,0,0.901784,1.000000,0.250000,1
0.147546,0.146825,0.000970,-0.019539,1.019384,1.019572,-0.002853,-0.000862,-0.000689,0.003059,51.641,0.901308,0.034617,MOVE,0,0,0.901308,1.000000,0.250000,1
0.191664,0.044118,-0.001481,-0.019539,1.017922,1.018110,-0.000099,-0.001424,-0.000670,0.001577,51.623,0.900983,0.047455,MOVE,0,0,0.900983,1.000000,0.250000,1
0.236532,0.044868,-0.000494,-0.020022,1.018653,1.018850,0.000502,-0.001079,-0.001222,0.001706,51.569,0.900044,0.059674,MOVE,0,0,0.900044,1.000000,0.250000,1
0.283818,0.047286,-0.000987,-0.018333,1.022308,1.022473,0.001108,-0.000454,-0.002388,0.002671,51.517,0.899133,0.073932,MOVE,0,0,0.899133,1.000000,0.250000,1
0.327479,0.043661,-0.000741,-0.018574,1.020846,1.021015,0.000502,-0.000447,0.001609,0.001744,51.494,0.898734,0.085453,MOVE,0,0,0.898734,1.000000,0.250000,1
0.378504,0.051025,-0.000987,-0.019781,1.017434,1.017627,-0.001925,-0.000435,0.000383,0.002011,51.492,0.898712,0.092772,MOVE,0,0,0.898712,1.000000,0.250000,1
0.415932,0.037428,0.001697,-0.023158,1.018165,1.018430,-0.001840,0.001979,-0.001067,0.002905,51.502,0.898878,0.100082,MOVE,0,0,0.898878,1.000000,0.250000,1
0.459736,0.043804,-0.001481,-0.017368,1.019871,1.020020,0.000349,-0.000212,-0.001034,0.001112,51.505,0.898931,0.108092,MOVE,0,0,0.898931,1.000000,0.250000,1
0.510248,0.050512,0.000242,-0.020987,1.018653,1.018869,-0.002341,-0.001382,-0.000993,0.002894,51.488,0.898638,0.114265,MOVE,0,0,0.898638,1.000000,0.250000,1
0.561406,0.051157,-0.000987,-0.017127,1.020359,1.020503,0.001253,-0.000713,-0.000068,0.001443,51.462,0.898188,0.121291,MOVE,0,0,0.898188,1.000000,0.250000,1
0.604309,0.042903,-0.000987,-0.018574,1.017922,1.018092,0.001236,0.000219,0.000536,0.001365,51.450,0.897967,0.125444,MOVE,0,0,0.897967,1.000000,0.250000,1
0.647123,0.042814,0.000242,-0.020022,1.019628,1.019824,0.000929,0.000788,-0.000672,0.001392,51.449,0.897948,0.130742,MOVE,0,0,0.897948,1.000000,0.250000,1
0.697422,0.050299,-0.000247,-0.019781,1.018653,1.018845,-0.001179,0.002331,-0.002745,0.003789,51.452,0.898004,0.134628,MOVE,0,0,0.898004,1.000000,0.250000,1
0.742306,0.044884,-0.000494,-0.019781,1.019871,1.020063,0.000091,-0.002510,0.001540,0.002946,51.467,0.898266,0.139222,MOVE,0,0,0.898266,1.000000,0.250000,1
0.790377,0.048072,-0.000987,-0.019298,1.019628,1.019811,-0.000815,-0.001299,-0.000213,0.001548,51.495,0.898755,0.143129,MOVE,0,0,0.898755,1.000000,0.250000,1
0.833789,0.043411,-0.000000,-0.020504,1.019140,1.019346,0.000451,-0.001550,-0.001989,0.002562,51.521,0.899206,0.146228,MOVE,0,0,0.899206,1.000000,0.250000,1
0.877225,0.043436,-0.000247,-0.019057,1.018165,1.018344,-0.000742,-0.001228,-0.000188,0.001447,51.526,0.899301,0.148115,MOVE,0,0,0.899301,1.000000,0.250000,1
0.931380,0.054155,-0.001481,-0.020504,1.019628,1.019835,-0.001356,0.001226,-0.001120,0.002144,51.521,0.899209,0.151155,MOVE,0,0,0.899209,1.000000,0.250000,1
0.974143,0.042763,-0.000000,-0.019781,1.017434,1.017627,-0.000073,-0.002394,-0.000224,0.002405,51.486,0.898595,0.151903,MOVE,0,0,0.898595,1.000000,0.250000,1
1.017643,0.043500,-0.000494,-0.019539,1.017922,1.018109,0.001152,-0.001734,-0.001424,0.002522,51.455,0.898055,0.153011,MOVE,0,0,0.898055,1.000000,0.250000,1
1.069665,0.052022,-0.000247,-0.019539,1.017191,1.017378,0.000254,-0.001098,-0.000482,0.001226,51.451,0.897992,0.153351,MOVE,0,0,0.897992,1.000000,0.250000,1
1.120148,0.050483,-0.000741,-0.019298,1.019871,1.020054,0.000287,0.000428,0.000152,0.000537,51.443,0.897852,0.156064,MOVE,0,0,0.897852,1.000000,0.250000,1
1.171097,0.050949,-0.000494,-0.018816,1.017678,1.017852,-0.000028,0.000717,0.000185,0.000741,51.438,0.897765,0.156525,MOVE,0,0,0.897765,1.000000,0.250000,1
1.214556,0.043459,-0.000494,-0.020504,1.019871,1.020078,0.002381,-0.001110,-0.001576,0.003063,51.411,0.897283,0.158942,MOVE,0,0,0.897283,1.000000,0.250000,1
1.265549,0.050993,-0.000247,-0.019781,1.017191,1.017383,-0.000420,-0.000509,-0.000582,0.000880,51.360,0.896397,0.158693,MOVE,0,0,0.896397,1.000000,0.250000,1
1.309595,0.044045,0.000242,-0.019057,1.019871,1.020049,-0.001285,-0.000174,-0.001444,0.001941,51.312,0.895570,0.160868,MOVE,0,0,0.895570,1.000000,0.250000,1
1.352430,0.042835,-0.000741,-0.019781,1.019384,1.019576,-0.001862,0.001351,-0.000526,0.002360,51.277,0.894956,0.162400,MOVE,0,0,0.894956,1.000000,0.250000,1
1.395099,0.042669,-0.000494,-0.020263,1.017678,1.017880,-0.000954,0.001319,-0.001997,0.002576,51.269,0.894813,0.162252,MOVE,0,0,0.894813,1.000000,0.250000,1
1.444092,0.048992,-0.000247,-0.019781,1.019140,1.019332,-0.001267,0.002515,-0.000462,0.002854,51.285,0.895099,0.163425,MOVE,0,0,0.895099,1.000000,0.250000,1
1.497527,0.053435,-0.000247,-0.020022,1.018165,1.018362,0.000578,0.000078,-0.001094,0.001240,51.283,0.895060,0.163609,MOVE,0,0,0.895060,1.000000,0.250000,1
1.540622,0.043096,-0.001728,-0.018816,1.020602,1.020777,-0.001518,-0.002619,-0.003227,0.004425,51.281,0.895017,0.165948,MOVE,0,0,0.895017,1.000000,0.250000,1
1.583991,0.043368,0.000970,-0.020022,1.019384,1.019581,0.000029,0.000499,0.000141,0.000519,51.303,0.895404,0.166976,MOVE,0,0,0.895404,1.000000,0.250000,1
1.627141,0.043150,-0.000987,-0.018816,1.018409,1.018583,-0.002370,-0.000061,0.000449,0.002413,51.327,0.895827,0.167003,MOVE,0,0,0.895827,1.000000,0.250000,1
1.669822,0.042681,-0.000494,-0.019057,1.019384,1.019562,-0.001978,-0.001530,-0.001640,0.002990,51.352,0.896266,0.167909,MOVE,0,0,0.896266,1.000000,0.250000,1
1.712867,0.043046,-0.000987,-0.019539,1.019384,1.019572,-0.001029,0.001524,-0.000712,0.001972,51.370,0.896573,0.168732,MOVE,0,0,0.896573,1.000000,0.250000,1
1.763509,0.050642,-0.001728,-0.019298,1.021090,1.021274,-0.000972,-0.001219,0.000789,0.001748,51.365,0.896493,0.171005,MOVE,0,0,0.896493,1.000000,0.250000,1
1.806590,0.043081,-0.000247,-0.020263,1.019384,1.019585,-0.002456,0.000623,0.001361,0.002876,51.371,0.896586,0.171532,MOVE,0,0,0.896586,1.000000,0.250000,1
1.856680,0.050091,-0.000494,-0.018816,1.019384,1.019558,0.004548,-0.001495,-0.001059,0.004903,51.388,0.896898,0.171980,MOVE,0,0,0.896898,1.000000,0.250000,1
1.899578,0.042897,-0.000247,-0.020745,1.019628,1.019839,-0.000587,0.000941,-0.000441,0.001194,51.420,0.897443,0.172637,MOVE,0,0,0.897443,1.000000,0.250000,1
1.942588,0.043010,-0.000247,-0.019057,1.017922,1.018100,0.000028,-0.001783,-0.001630,0.002416,51.450,0.897971,0.171663,MOVE,0,0,0.897971,1.000000,0.250000,1
1.985952,0.043364,-0.000987,-0.018816,1.020359,1.020533,0.000282,-0.000258,-0.000964,0.001037,51.464,0.898212,0.172977,MOVE,0,0,0.898212,1.000000,0.250000,1
2.028771,0.042819,-0.000247,-0.020022,1.020359,1.020555,0.001475,-0.001447,-0.000040,0.002066,51.451,0.897990,0.174179,MOVE,0,0,0.897990,1.000000,0.250000,1
2.071198,0.042427,-0.000247,-0.019539,1.020115,1.020302,-0.002162,-0.001430,-0.001239,0.002873,51.441,0.897817,0.175033,MOVE,0,0,0.897817,1.000000,0.250000,1
2.125503,0.054305,-0.000000,-0.020263,1.019140,1.019342,0.000538,0.000983,-0.000267,0.001152,51.432,0.897657,0.174937,MOVE,0,0,0.897657,1.000000,0.250000,1
2.181632,0.056129,-0.000247,-0.019057,1.017434,1.017613,0.000531,-0.000817,0.001863,0.002103,51.451,0.897988,0.173295,MOVE,0,0,0.897988,1.000000,0.250000,1
2.224397,0.042765,0.000242,-0.020022,1.019628,1.019824,-0.001552,-0.000551,0.000649,0.001770,51.460,0.898144,0.173807,MOVE,0,0,0.898144,1.000000,0.250000,1
2.267446,0.043049,-0.000494,-0.018816,1.019871,1.020045,0.000542,0.000397,0.000652,0.000936,51.467,0.898265,0.174467,MOVE,0,0,0.898265,1.000000,0.250000,1
2.310562,0.043117,-0.000494,-0.020504,1.019628,1.019834,-0.001287,-0.001109,-0.001132,0.002041,51.475,0.898409,0.174871,MOVE,0,0,0.898409,1.000000,0.250000,1
2.353707,0.043145,-0.000741,-0.019781,1.021090,1.021282,0.002351,0.000107,-0.000515,0.002409,51.488,0.898627,0.176537,MOVE,0,0,0.898627,1.000000,0.250000,1
2.396663,0.042955,0.000242,-0.020504,1.017434,1.017641,0.002024,-0.001390,0.000096,0.002457,51.511,0.899028,0.174760,MOVE,0,0,0.899028,1.000000,0.250000,1
2.441873,0.045210,-0.000494,-0.019781,1.017922,1.018114,-0.000779,-0.001046,-0.001065,0.001684,51.528,0.899330,0.173587,MOVE,0,0,0.899330,1.000000,0.250000,1
2.491845,0.049973,-0.000741,-0.019057,1.020602,1.020781,0.001902,0.001353,0.000464,0.002380,51.521,0.899218,0.174931,MOVE,0,0,0.899218,1.000000,0.250000,1
2.545473,0.053628,-0.001728,-0.018574,1.018897,1.019067,-0.000840,-0.002258,-0.000425,0.002446,51.509,0.898996,0.174598,MOVE,0,0,0.898996,1.000000,0.250000,1
2.588943,0.043469,0.000242,-0.018816,1.018165,1.018339,-0.000558,0.000456,0.000532,0.000896,51.486,0.898603,0.173644,MOVE,0,0,0.898603,1.000000,0.250000,1
2.631791,0.042848,-0.000247,-0.019057,1.019871,1.020049,-0.000876,-0.001373,0.000506,0.001706,51.485,0.898583,0.174324,MOVE,0,0,0.898583,1.000000,0.250000,1
2.674142,0.042351,-0.001234,-0.019298,1.019140,1.019324,-0.000858,-0.000419,0.000190,0.000974,51.488,0.898633,0.174283,MOVE,0,0,0.898633,1.000000,0.250000,1
2.722837,0.048695,-0.000247,-0.020263,1.019140,1.019342,0.000040,0.001373,0.000181,0.001386,51.509,0.899005,0.174262,MOVE,0,0,0.899005,1.000000,0.250000,1
2.768372,0.045534,0.000242,-0.020022,1.018897,1.019093,0.000954,-0.001107,-0.001290,0.001949,51.525,0.899273,0.174020,MOVE,0,0,0.899273,1.000000,0.250000,1
2.809797,0.041425,-0.001234,-0.019539,1.020359,1.020547,0.002148,0.001005,-0.000360,0.002399,51.529,0.899353,0.175110,MOVE,0,0,0.899353,1.000000,0.250000,1
2.854918,0.045121,0.000727,-0.018816,1.020602,1.020776,-0.001502,0.000995,0.000284,0.001824,51.540,0.899535,0.176297,MOVE,0,0,0.899535,1.000000,0.250000,1
2.903517,0.048600,-0.000494,-0.018816,1.021333,1.021507,0.002712,0.002492,-0.000636,0.003738,51.561,0.899903,0.178024,MOVE,0,0,0.899903,1.000000,0.250000,1
2.948672,0.045154,-0.001234,-0.020022,1.019871,1.020069,-0.000606,0.001523,-0.000315,0.001669,51.602,0.900623,0.178283,MOVE,0,0,0.900623,1.000000,0.250000,1
2.990118,0.041446,-0.000494,-0.018816,1.020846,1.021020,-0.001847,0.000306,-0.000324,0.001900,51.648,0.901425,0.179372,MOVE,0,0,0.901425,1.000000,0.250000,1
3.035156,0.045038,-0.000247,-0.019539,1.019871,1.020059,-0.000864,-0.000905,-0.000878,0.001529,51.672,0.901850,0.179488,MOVE,0,0,0.901850,1.000000,0.250000,1
3.083926,0.048770,-0.000247,-0.019298,1.018897,1.019079,-0.001482,-0.001176,-0.000285,0.001913,51.692,0.902193,0.178710,MOVE,0,0,0.902193,1.000000,0.250000,1
3.128953,0.045027,0.000242,-0.020022,1.017434,1.017631,-0.001729,-0.000216,-0.000871,0.001948,51.695,0.902244,0.176708,MOVE,0,0,0.902244,1.000000,0.250000,1
3.170514,0.041561,0.000970,-0.020022,1.020115,1.020312,0.002241,-0.000181,0.000088,0.002250,51.684,0.902061,0.177318,MOVE,0,0,0.902061,1.000000,0.250000,1
3.215440,0.044926,-0.000741,-0.020022,1.021090,1.021286,0.001234,-0.001393,0.000374,0.001898,51.698,0.902302,0.178744,MOVE,0,0,0.902302,1.000000,0.250000,1
3.264221,0.048780,-0.000494,-0.019781,1.019140,1.019332,-0.000859,0.001909,0.000361,0.002124,51.736,0.902965,0.178268,MOVE,0,0,0.902965,1.000000,0.250000,1
3.309174,0.044953,-0.001234,-0.019781,1.019871,1.020064,0.000365,0.001259,0.000393,0.001368,51.788,0.903878,0.178499,MOVE,0,0,0.903878,1.000000,0.250000,1
3.350740,0.041567,-0.000247,-0.019298,1.019628,1.019810,-0.001426,-0.002337,-0.002029,0.003408,51.842,0.904811,0.178478,MOVE,0,0,0.904811,1.000000,0.250000,1
3.395698,0.044958,-0.000247,-0.018816,1.020846,1.021019,0.000382,-0.000470,0.000399,0.000725,51.894,0.905727,0.179548,MOVE,0,0,0.905727,1.000000,0.250000,1
3.444193,0.048496,-0.000000,-0.019298,1.020846,1.021028,0.000668,-0.000181,0.000369,0.000784,51.942,0.906554,0.180519,MOVE,0,0,0.906554,1.000000,0.250000,1
3.482110,0.037916,-0.000494,-0.019298,1.020115,1.020298,0.000670,-0.001644,-0.000245,0.001792,51.962,0.906912,0.180735,MOVE,0,0,0.906912,1.000000,0.250000,1
3.530584,0.048474,-0.000987,-0.020263,1.022552,1.022753,-0.000254,-0.000121,0.000638,0.000698,51.967,0.907000,0.183139,MOVE,0,0,0.907000,1.000000,0.250000,1
3.575848,0.045264,-0.000741,-0.019298,1.020602,1.020785,-0.001423,0.001326,-0.000259,0.001962,51.999,0.907552,0.183532,MOVE,0,0,0.907552,1.000000,0.250000,1
3.617245,0.041397,-0.000494,-0.020022,1.017434,1.017631,-0.000817,-0.000781,0.000069,0.001132,52.054,0.908511,0.181047,MOVE,0,0,0.908511,1.000000,0.250000,1
3.662413,0.045168,-0.000247,-0.019781,1.019871,1.020063,0.000405,0.001605,-0.000330,0.001688,52.116,0.909593,0.180999,MOVE,0,0,0.909593,1.000000,0.250000,1
3.710878,0.048465,-0.000000,-0.019298,1.021821,1.022003,-0.001127,0.000685,-0.000264,0.001345,52.169,0.910517,0.182702,MOVE,0,0,0.910517,1.000000,0.250000,1
3.756197,0.045318,-0.000494,-0.019057,1.020115,1.020293,0.001552,0.000390,-0.000280,0.001625,52.225,0.911505,0.182696,MOVE,0,0,0.911505,1.000000,0.250000,1
3.797623,0.041426,0.000485,-0.019057,1.019140,1.019319,0.000018,0.000381,-0.000872,0.000951,52.277,0.912412,0.181813,MOVE,0,0,0.912412,1.000000,0.250000,1
3.842669,0.045045,-0.000741,-0.019298,1.020602,1.020785,0.000864,0.000667,0.001569,0.001911,52.329,0.913306,0.182338,MOVE,0,0,0.913306,1.000000,0.250000,1
3.891347,0.048679,-0.001234,-0.018816,1.018653,1.018827,0.000551,-0.000006,0.000325,0.000640,52.375,0.914115,0.181049,MOVE,0,0,0.914115,1.000000,0.250000,1
3.936453,0.045105,-0.000741,-0.019539,1.020602,1.020790,0.000269,0.001200,0.000940,0.001548,52.406,0.914652,0.181655,MOVE,0,0,0.914652,1.000000,0.250000,1
3.977869,0.041416,-0.000494,-0.019781,1.020602,1.020794,0.000530,-0.000916,0.000027,0.001059,52.400,0.914548,0.182204,MOVE,0,0,0.914548,1.000000,0.250000,1
4.022820,0.044952,-0.000247,-0.020022,1.020602,1.020799,0.000294,0.000315,0.001532,0.001592,52.375,0.914110,0.182702,MOVE,0,0,0.914110,1.000000,0.250000,1
4.071574,0.048753,-0.001728,-0.019781,1.022065,1.022257,0.000875,-0.001787,0.000580,0.002073,52.337,0.913449,0.184464,MOVE,0,0,0.913449,1.000000,0.250000,1
4.116536,0.044963,0.000485,-0.018816,1.019628,1.019801,-0.000930,-0.000542,0.000241,0.001103,52.297,0.912760,0.183839,MOVE,0,0,0.912760,1.000000,0.250000,1
4.158145,0.041609,-0.000987,-0.019298,1.021333,1.021516,0.000288,0.000325,-0.000351,0.000558,52.262,0.912146,0.184819,MOVE,0,0,0.912146,1.000000,0.250000,1
4.203204,0.045059,-0.000494,-0.018574,1.022308,1.022477,-0.000057,-0.002364,-0.000969,0.002556,52.235,0.911678,0.186567,MOVE,0,0,0.911678,1.000000,0.250000,1
4.251948,0.048744,-0.000741,-0.019298,1.021333,1.021516,-0.000019,-0.000249,-0.000066,0.000259,52.221,0.911433,0.187274,MOVE,0,0,0.911433,1.000000,0.250000,1
4.296963,0.045015,-0.000741,-0.019781,1.020359,1.020551,-0.000653,0.000098,-0.000683,0.000950,52.200,0.911053,0.187043,MOVE,0,0,0.911053,1.000000,0.250000,1
4.338496,0.041532,-0.000247,-0.019057,1.020846,1.021024,-0.001542,0.000133,0.001993,0.002524,52.186,0.910825,0.187260,MOVE,0,0,0.910825,1.000000,0.250000,1
4.383415,0.044919,-0.000247,-0.018816,1.019628,1.019801,-0.000325,0.001353,-0.000453,0.001463,52.195,0.910980,0.186355,MOVE,0,0,0.910980,1.000000,0.250000,1
4.432041,0.048626,-0.001728,-0.019298,1.019628,1.019812,-0.000294,0.001641,-0.000731,0.001820,52.203,0.911109,0.185550,MOVE,0,0,0.911109,1.000000,0.250000,1
4.476928,0.044887,-0.000247,-0.018816,1.018897,1.019070,-0.000555,0.000684,0.000502,0.001013,52.193,0.910935,0.184158,MOVE,0,0,0.910935,1.000000,0.250000,1
4.518307,0.041379,0.000242,-0.020022,1.019628,1.019824,0.001595,-0.000831,0.000166,0.001806,52.178,0.910673,0.183584,MOVE,0,0,0.910673,1.000000,0.250000,1
4.563465,0.045158,-0.001234,-0.019298,1.021577,1.021760,-0.001136,0.002218,0.000148,0.002496,52.192,0.910915,0.184810,MOVE,0,0,0.910915,1.000000,0.250000,1
4.604891,0.041426,-0.000000,-0.019781,1.018653,1.018845,-0.001150,-0.000780,-0.000160,0.001399,52.208,0.911203,0.183289,MOVE,0,0,0.911203,1.000000,0.250000,1
4.650194,0.045302,-0.000987,-0.019539,1.018409,1.018597,0.000023,0.001320,-0.000777,0.001532,52.229,0.911569,0.181698,MOVE,0,0,0.911569,1.000000,0.250000,1
4.698609,0.048416,-0.000247,-0.019298,1.019140,1.019323,-0.001179,0.000068,-0.001034,0.001570,52.260,0.912114,0.180919,MOVE,0,0,0.912114,1.000000,0.250000,1
4.743896,0.045287,0.000727,-0.019298,1.019384,1.019567,0.002158,0.001261,0.000484,0.002545,52.280,0.912450,0.180437,MOVE,0,0,0.912450,1.000000,0.250000,1
4.785348,0.041452,-0.000741,-0.019539,1.017191,1.017379,0.001475,-0.001189,-0.000451,0.001948,52.281,0.912474,0.178034,MOVE,0,0,0.912474,1.000000,0.250000,1
4.830472,0.045123,-0.000247,-0.019298,1.019871,1.020054,0.000216,-0.001455,-0.000704,0.001631,52.260,0.912106,0.178279,MOVE,0,0,0.912106,1.000000,0.250000,1
4.879168,0.048696,0.000727,-0.019057,1.020115,1.020293,0.002623,0.001900,0.001067,0.003410,52.227,0.911535,0.178715,MOVE,0,0,0.911535,1.000000,0.250000,1
4.924133,0.044965,-0.001234,-0.019539,1.020115,1.020303,-0.000390,-0.000556,-0.001403,0.001559,52.114,0.909557,0.179116,MOVE,0,0,0.909557,1.000000,0.250000,1
4.965687,0.041554,-0.001234,-0.019298,1.020115,1.020298,-0.000360,-0.001160,0.000202,0.001231,52.088,0.909110,0.179473,MOVE,0,0,0.909110,1.000000,0.250000,1
5.010564,0.044877,-0.001234,-0.019781,1.019628,1.019820,-0.001859,-0.001743,0.000743,0.002654,52.053,0.908505,0.179364,MOVE,0,0,0.908505,1.000000,0.250000,1
5.059259,0.048695,-0.000987,-0.020987,1.020115,1.020331,0.002687,-0.000500,0.001001,0.002911,52.023,0.907980,0.179726,MOVE,0,0,0.907980,1.000000,0.250000,1
5.104382,0.045123,-0.000741,-0.020504,1.019140,1.019347,-0.000714,0.000966,0.001212,0.001706,52.020,0.907920,0.179165,MOVE,0,0,0.907920,1.000000,0.250000,1
5.146969,0.042588,-0.000741,-0.020263,1.019628,1.019829,0.001098,-0.000588,0.000530,0.001354,52.028,0.908056,0.179095,MOVE,0,0,0.908056,1.000000,0.250000,1
5.189369,0.042400,-0.001481,-0.019539,1.020359,1.020547,-0.000398,-0.000609,-0.000977,0.001218,52.018,0.907887,0.179678,MOVE,0,0,0.907887,1.000000,0.250000,1
5.232792,0.043423,-0.000987,-0.018816,1.019384,1.019558,0.001719,0.000282,-0.000353,0.001778,52.022,0.907959,0.179312,MOVE,0,0,0.907959,1.000000,0.250000,1
5.276451,0.043659,-0.000494,-0.019298,1.020359,1.020541,-0.002490,-0.000953,-0.000095,0.002668,52.012,0.907778,0.179868,MOVE,0,0,0.907778,1.000000,0.250000,1
5.328513,0.052062,-0.000494,-0.019781,1.019871,1.020063,0.001998,-0.000941,0.000790,0.002345,51.987,0.907340,0.179938,MOVE,0,0,0.907340,1.000000,0.250000,1
5.371971,0.043459,-0.000494,-0.019539,1.019871,1.020059,-0.000133,0.000012,0.001387,0.001393,51.941,0.906534,0.179997,MOVE,0,0,0.906534,1.000000,0.250000,1
5.415156,0.043184,-0.001975,-0.019057,1.019628,1.019808,0.001070,0.000342,-0.000469,0.001217,51.907,0.905957,0.179824,MOVE,0,0,0.905957,1.000000,0.250000,1
5.458074,0.042918,-0.000247,-0.019539,1.020846,1.021033,0.000121,-0.000280,0.000114,0.000326,51.889,0.905641,0.180772,MOVE,0,0,0.905641,1.000000,0.250000,1
5.501050,0.042975,-0.001481,-0.019781,1.022552,1.022744,0.001326,0.002121,0.000985,0.002688,51.896,0.905750,0.183164,MOVE,0,0,0.905750,1.000000,0.250000,1
5.551759,0.050710,-0.000494,-0.020022,1.020846,1.021042,-0.001353,0.000329,0.000045,0.001393,51.916,0.906098,0.183786,MOVE,0,0,0.906098,1.000000,0.250000,1
5.595269,0.043509,-0.000741,-0.020263,1.019384,1.019586,0.000811,-0.000553,0.000618,0.001161,51.937,0.906475,0.183035,MOVE,0,0,0.906475,1.000000,0.250000,1
5.638926,0.043658,-0.000741,-0.019057,1.019384,1.019562,0.000426,-0.000826,-0.000603,0.001109,51.946,0.906624,0.182337,MOVE,0,0,0.906624,1.000000,0.250000,1
5.689334,0.050408,-0.000247,-0.020022,1.019140,1.019337,-0.001036,0.001912,0.000628,0.002264,51.958,0.906830,0.181507,MOVE,0,0,0.906830,1.000000,0.250000,1
5.732711,0.043377,-0.000494,-0.019298,1.020359,1.020541,-0.000119,-0.000200,0.000592,0.000636,51.935,0.906434,0.181843,MOVE,0,0,0.906434,1.000000,0.250000,1
5.781119,0.048408,-0.000247,-0.019539,1.020602,1.020789,0.000232,0.001267,-0.000023,0.001288,51.901,0.905838,0.182369,MOVE,0,0,0.905838,1.000000,0.250000,1
5.824492,0.043374,-0.001234,-0.019781,1.019384,1.019577,0.001127,-0.000528,-0.000593,0.001378,51.895,0.905733,0.181751,MOVE,0,0,0.905733,1.000000,0.250000,1
5.874954,0.050462,-0.000247,-0.019781,1.020115,1.020307,-0.001287,0.001916,0.000573,0.002378,51.915,0.906093,0.181852,MOVE,0,0,0.906093,1.000000,0.250000,1
5.918199,0.043245,-0.000247,-0.020263,1.021090,1.021291,0.001419,0.000104,-0.000717,0.001593,51.947,0.906651,0.182829,MOVE,0,0,0.906651,1.000000,0.250000,1
5.962133,0.043934,-0.000741,-0.019298,1.019140,1.019323,0.000798,0.000709,-0.000386,0.001136,51.970,0.907049,0.181937,MOVE,0,0,0.907049,1.000000,0.250000,1
6.012667,0.050534,-0.000987,-0.018574,1.019871,1.020041,-0.000112,-0.000222,-0.000066,0.000257,51.974,0.907116,0.181780,MOVE,0,0,0.907116,1.000000,0.250000,1
6.057003,0.044336,-0.000494,-0.018574,1.021090,1.021259,-0.000691,-0.000516,-0.000688,0.001104,51.965,0.906962,0.182735,MOVE,0,0,0.906962,1.000000,0.250000,1
6.100679,0.043675,-0.000741,-0.019298,1.020602,1.020785,-0.000927,-0.000531,0.001127,0.001553,51.957,0.906821,0.183168,MOVE,0,0,0.906821,1.000000,0.250000,1
6.144307,0.043628,-0.000494,-0.020263,1.018409,1.018611,0.002386,0.001898,0.000236,0.003058,51.960,0.906874,0.181601,MOVE,0,0,0.906874,1.000000,0.250000,1
6.187692,0.043385,0.000242,-0.019057,1.019628,1.019806,0.001423,0.001824,0.000215,0.002323,51.957,0.906822,0.181266,MOVE,0,0,0.906822,1.000000,0.250000,1
6.231047,0.043355,-0.000987,-0.019057,1.019871,1.020050,0.000151,-0.000028,0.000524,0.000546,51.938,0.906486,0.181184,MOVE,0,0,0.906486,1.000000,0.250000,1
6.281838,0.050791,-0.000741,-0.019781,1.019140,1.019332,-0.001303,0.001705,0.001374,0.002548,51.917,0.906114,0.180465,MOVE,0,0,0.906114,1.000000,0.250000,1
6.325263,0.043426,-0.000741,-0.019539,1.021577,1.021764,0.000544,-0.000716,-0.001667,0.001894,51.920,0.906177,0.182006,MOVE,0,0,0.906177,1.000000,0.250000,1
6.368690,0.043427,-0.000987,-0.020022,1.020602,1.020799,0.001718,0.000250,0.001664,0.002405,51.931,0.906367,0.182525,MOVE,0,0,0.906367,1.000000,0.250000,1
6.419129,0.050439,-0.000247,-0.018574,1.019140,1.019310,0.001743,0.001714,0.001346,0.002791,51.961,0.906884,0.181651,MOVE,0,0,0.906884,1.000000,0.250000,1
6.462570,0.043442,-0.000000,-0.019781,1.020602,1.020794,-0.000110,-0.001909,-0.001383,0.002360,51.977,0.907166,0.182201,MOVE,0,0,0.907166,1.000000,0.250000,1
6.505856,0.043286,-0.001975,-0.019781,1.020115,1.020309,0.000461,0.000547,-0.000184,0.000739,51.993,0.907442,0.182258,MOVE,0,0,0.907442,1.000000,0.250000,1
6.549287,0.043431,-0.000494,-0.019057,1.019384,1.019562,0.001084,0.000555,0.000126,0.001225,52.017,0.907872,0.181638,MOVE,0,0,0.907872,1.000000,0.250000,1
6.599950,0.050663,0.000242,-0.019298,1.018897,1.019079,-0.001087,0.001153,0.000735,0.001747,52.029,0.908083,0.180646,MOVE,0,0,0.908083,1.000000,0.250000,1
6.643529,0.043579,-0.000494,-0.020263,1.019628,1.019829,0.000729,-0.000090,-0.000478,0.000876,52.037,0.908221,0.180428,MOVE,0,0,0.908221,1.000000,0.250000,1
6.694012,0.050483,-0.000247,-0.019057,1.019140,1.019318,-0.001099,0.000825,0.001923,0.002364,52.045,0.908350,0.179771,MOVE,0,0,0.908350,1.000000,0.250000,1
6.737403,0.043391,-0.000987,-0.020504,1.019140,1.019347,-0.000789,0.002346,-0.000199,0.002483,52.049,0.908429,0.179207,MOVE,0,0,0.908429,1.000000,0.250000,1
6.780974,0.043571,-0.000987,-0.019298,1.018897,1.019080,0.000436,-0.000994,0.000652,0.001266,52.054,0.908519,0.178458,MOVE,0,0,0.908519,1.000000,0.250000,1
6.831508,0.050534,0.000485,-0.018816,1.019140,1.019314,0.002277,0.001443,0.000314,0.002713,52.072,0.908828,0.177995,MOVE,0,0,0.908828,1.000000,0.250000,1
6.875151,0.043643,-0.000741,-0.019781,1.019871,1.020063,-0.001100,0.000821,0.002140,0.002542,52.087,0.909094,0.178252,MOVE,0,0,0.909094,1.000000,0.250000,1
6.918548,0.043396,-0.000987,-0.019298,1.020359,1.020542,0.000095,0.000225,0.001493,0.001513,52.101,0.909335,0.178915,MOVE,0,0,0.909335,1.000000,0.250000,1
6.969234,0.050687,-0.001728,-0.020263,1.018165,1.018368,0.001567,0.001755,0.001469,0.002774,52.110,0.909499,0.177555,MOVE,0,0,0.909499,1.000000,0.250000,1
7.012639,0.043404,-0.000000,-0.018816,1.017922,1.018096,0.000363,0.001112,0.000831,0.001435,52.105,0.909410,0.176085,MOVE,0,0,0.909410,1.000000,0.250000,1
7.056960,0.044321,-0.000000,-0.019057,1.019384,1.019562,0.000370,-0.000434,-0.000677,0.000885,52.086,0.909064,0.176083,MOVE,0,0,0.909064,1.000000,0.250000,1
7.096981,0.040021,-0.000741,-0.020745,1.019871,1.020083,0.000587,-0.000978,0.000523,0.001255,52.061,0.908640,0.176549,MOVE,0,0,0.908640,1.000000,0.250000,1
7.141027,0.044045,-0.000000,-0.020022,1.017922,1.018119,-0.000318,0.000242,-0.001019,0.001095,52.058,0.908589,0.175200,MOVE,0,0,0.908589,1.000000,0.250000,1
7.184399,0.043372,-0.000000,-0.019781,1.020602,1.020794,-0.000868,-0.000055,0.000517,0.001012,52.064,0.908688,0.176395,MOVE,0,0,0.908688,1.000000,0.250000,1
7.228167,0.043767,-0.000741,-0.018574,1.018653,1.018822,0.000582,-0.001264,0.000512,0.001482,52.060,0.908620,0.175696,MOVE,0,0,0.908620,1.000000,0.250000,1
7.276470,0.048304,0.000727,-0.020022,1.018409,1.018606,-0.001819,-0.000350,-0.002216,0.002888,52.067,0.908745,0.174872,MOVE,0,0,0.908745,1.000000,0.250000,1
7.319962,0.043492,-0.001728,-0.018816,1.019871,1.020046,-0.000287,0.000588,-0.001276,0.001434,52.062,0.908654,0.175426,MOVE,0,0,0.908654,1.000000,0.250000,1
7.363103,0.043141,-0.000494,-0.020022,1.019628,1.019824,0.000974,0.000604,0.000244,0.001171,52.045,0.908363,0.175725,MOVE,0,0,0.908363,1.000000,0.250000,1
7.406057,0.042954,-0.000741,-0.018333,1.020359,1.020524,-0.000836,-0.000903,0.000232,0.001252,52.031,0.908118,0.176624,MOVE,0,0,0.908118,1.000000,0.250000,1
7.449460,0.043403,-0.000987,-0.018574,1.019140,1.019310,-0.001966,0.000258,0.002057,0.002857,52.016,0.907847,0.176341,MOVE,0,0,0.907847,1.000000,0.250000,1
7.499866,0.050405,0.000242,-0.020022,1.018897,1.019093,-0.000727,-0.000045,0.000539,0.000906,51.998,0.907542,0.175891,MOVE,0,0,0.907542,1.000000,0.250000,1
7.543559,0.043693,-0.001481,-0.019781,1.019140,1.019333,-0.000080,-0.001849,-0.000389,0.001891,52.000,0.907570,0.175702,MOVE,0,0,0.907570,1.000000,0.250000,1
7.594622,0.051063,0.000242,-0.017851,1.019384,1.019540,0.002566,0.000525,-0.001270,0.002911,52.006,0.907672,0.175718,MOVE,0,0,0.907672,1.000000,0.250000,1
7.638838,0.044216,-0.000494,-0.020022,1.019384,1.019581,0.001578,-0.000373,0.000279,0.001645,52.007,0.907702,0.175768,MOVE,0,0,0.907702,1.000000,0.250000,1
7.682280,0.043442,0.000242,-0.020263,1.019384,1.019585,-0.000222,0.000802,0.001181,0.001445,52.007,0.907695,0.175818,MOVE,0,0,0.907695,1.000000,0.250000,1
7.725607,0.043327,-0.000000,-0.020263,1.019628,1.019829,-0.000846,-0.000394,0.000897,0.001295,52.010,0.907743,0.176083,MOVE,0,0,0.907743,1.000000,0.250000,1
7.773740,0.048133,0.000485,-0.020263,1.018653,1.018854,-0.001405,-0.000449,0.000292,0.001504,51.998,0.907543,0.175443,MOVE,0,0,0.907543,1.000000,0.250000,1
7.817226,0.043486,-0.000494,-0.019057,1.018897,1.019075,0.000131,-0.001628,-0.000027,0.001634,51.999,0.907547,0.175066,MOVE,0,0,0.907547,1.000000,0.250000,1
7.868230,0.051004,-0.000741,-0.019781,1.021090,1.021282,-0.001617,-0.000992,0.001451,0.002388,52.018,0.907881,0.176713,MOVE,0,0,0.907881,1.000000,0.250000,1
7.911275,0.043045,-0.001234,-0.019781,1.020359,1.020551,-0.000050,-0.001013,0.000222,0.001038,52.052,0.908472,0.177538,MOVE,0,0,0.908472,1.000000,0.250000,1
7.955007,0.043731,-0.000000,-0.019781,1.021090,1.021281,-0.000959,-0.000377,-0.000680,0.001234,52.083,0.909019,0.178937,MOVE,0,0,0.909019,1.000000,0.250000,1
7.998503,0.043497,0.000242,-0.018816,1.018897,1.019070,-0.002708,0.001123,-0.000060,0.002932,52.088,0.909111,0.178207,MOVE,0,0,0.909111,1.000000,0.250000,1
8.042082,0.043578,-0.000494,-0.020263,1.018653,1.018854,-0.000602,0.001959,0.001174,0.002361,52.111,0.909504,0.177355,MOVE,0,0,0.909504,1.000000,0.250000,1
8.093195,0.051114,-0.000494,-0.019298,1.019628,1.019810,-0.000272,-0.000486,-0.000351,0.000658,52.131,0.909857,0.177449,MOVE,0,0,0.909857,1.000000,0.250000,1
8.136708,0.043513,-0.000247,-0.019539,1.019871,1.020059,-0.002361,0.000139,-0.000934,0.002543,52.149,0.910175,0.177757,MOVE,0,0,0.910175,1.000000,0.250000,1
8.187415,0.050707,0.000727,-0.019298,1.019628,1.019810,0.001865,0.002239,0.001429,0.003245,52.127,0.909795,0.177811,MOVE,0,0,0.909795,1.000000,0.250000,1
8.231009,0.043594,0.001212,-0.022193,1.020846,1.021088,-0.000560,-0.000450,0.001044,0.001267,52.068,0.908754,0.179009,MOVE,0,0,0.908754,1.000000,0.250000,1
8.281952,0.050943,-0.003456,-0.015921,1.018409,1.018539,-0.002039,0.003481,-0.001110,0.004184,52.047,0.908390,0.177793,MOVE,0,0,0.908390,1.000000,0.250000,1
8.325508,0.043555,-0.000987,-0.018092,1.020602,1.020763,0.001867,-0.000140,0.000091,0.001874,52.022,0.907964,0.178701,MOVE,0,0,0.907964,1.000000,0.250000,1
8.376376,0.050868,0.000970,-0.021228,1.020602,1.020824,-0.000554,-0.000138,-0.000224,0.000613,51.985,0.907312,0.179572,MOVE,0,0,0.907312,1.000000,0.250000,1
8.419874,0.043498,0.000970,-0.020022,1.017678,1.017876,0.000079,0.000780,-0.001399,0.001604,51.965,0.906963,0.177703,MOVE,0,0,0.906963,1.000000,0.250000,1
8.470555,0.050681,-0.001728,-0.018333,1.020359,1.020525,-0.001131,-0.002536,-0.000795,0.002889,51.964,0.906944,0.178405,MOVE,0,0,0.906944,1.000000,0.250000,1
8.513955,0.043399,-0.000247,-0.019057,1.020115,1.020293,0.000121,-0.000103,-0.001992,0.001998,51.964,0.906943,0.178828,MOVE,0,0,0.906943,1.000000,0.250000,1
8.557600,0.043645,-0.000494,-0.018816,1.019384,1.019558,-0.002908,0.001133,0.000739,0.003208,51.954,0.906762,0.178547,MOVE,0,0,0.906762,1.000000,0.250000,1
8.608257,0.050657,-0.000494,-0.019539,1.019384,1.019571,-0.001397,0.001116,0.000132,0.001793,51.925,0.906260,0.178307,MOVE,0,0,0.906260,1.000000,0.250000,1
8.651867,0.043610,-0.000987,-0.019539,1.019140,1.019328,-0.000467,-0.000320,0.000736,0.000928,51.904,0.905896,0.177871,MOVE,0,0,0.905896,1.000000,0.250000,1
8.702464,0.050597,-0.001481,-0.020987,1.017678,1.017896,-0.001034,0.000542,0.000469,0.001258,51.896,0.905757,0.176190,MOVE,0,0,0.905757,1.000000,0.250000,1
8.746172,0.043708,-0.000741,-0.017851,1.018653,1.018809,0.001675,0.000825,0.001022,0.002128,51.885,0.905568,0.175500,MOVE,0,0,0.905568,1.000000,0.250000,1
8.789794,0.043622,0.000242,-0.020263,1.019871,1.020073,0.000755,-0.000062,-0.000495,0.000905,51.873,0.905359,0.176015,MOVE,0,0,0.905359,1.000000,0.250000,1
8.833323,0.043529,-0.000247,-0.019539,1.019384,1.019571,-0.001670,0.000257,0.001316,0.002141,51.899,0.905807,0.176028,MOVE,0,0,0.905807,1.000000,0.250000,1
8.877156,0.043833,-0.000494,-0.019057,1.019140,1.019319,0.000130,-0.000091,-0.077373,0.077373,51.867,0.905252,0.175811,MOVE,0,0,0.905252,1.000000,0.250000,1
8.924249,0.047093,-0.000247,-0.018333,1.020359,1.020524,-0.002624,-0.001558,0.001063,0.003232,51.910,0.905999,0.176702,MOVE,0,0,0.905999,1.000000,0.250000,1
8.967896,0.043647,-0.002468,-0.018092,1.018165,1.018329,0.001330,-0.000945,0.001595,0.002282,51.947,0.906654,0.175528,MOVE,0,0,0.906654,1.000000,0.250000,1
9.011368,0.043472,-0.000741,-0.020263,1.018897,1.019098,-0.002580,-0.001839,0.002087,0.003794,51.983,0.907275,0.175163,MOVE,0,0,0.907275,1.000000,0.250000,1
9.062846,0.051477,0.001697,-0.023158,1.019871,1.020136,-0.000425,-0.000001,0.000166,0.000457,52.007,0.907702,0.175769,MOVE,0,0,0.907702,1.000000,0.250000,1
9.106393,0.043548,-0.000741,-0.021228,1.019384,1.019605,0.001613,0.000039,0.000143,0.001620,52.013,0.907796,0.175837,MOVE,0,0,0.907796,1.000000,0.250000,1
9.151589,0.045196,-0.000000,-0.018092,1.018409,1.018570,0.000115,-0.001458,-0.000439,0.001527,52.010,0.907745,0.174966,MOVE,0,0,0.907745,1.000000,0.250000,1
9.195047,0.043458,-0.001975,-0.018333,1.018897,1.019063,0.002253,0.000680,0.001087,0.002592,52.008,0.907716,0.174626,MOVE,0,0,0.907716,1.000000,0.250000,1
9.242285,0.047238,0.000727,-0.021228,1.019871,1.020093,-0.000496,0.000985,0.001087,0.001549,52.013,0.907805,0.175247,MOVE,0,0,0.907805,1.000000,0.250000,1
9.285649,0.043363,-0.000247,-0.020745,1.019140,1.019351,-0.003245,-0.000542,-0.000135,0.003293,52.008,0.907707,0.175139,MOVE,0,0,0.907707,1.000000,0.250000,1
9.328551,0.042902,0.000485,-0.019781,1.018409,1.018601,0.000726,0.001291,0.001087,0.001837,51.997,0.907526,0.174366,MOVE,0,0,0.907526,1.000000,0.250000,1
9.372238,0.043687,-0.001481,-0.019057,1.019628,1.019807,0.001337,0.002512,0.001697,0.003313,51.978,0.907190,0.174755,MOVE,0,0,0.907190,1.000000,0.250000,1
9.415485,0.043247,-0.000247,-0.020745,1.018653,1.018864,-0.000801,0.000374,-0.001052,0.001374,51.978,0.907191,0.174257,MOVE,0,0,0.907191,1.000000,0.250000,1
9.458666,0.043181,-0.000247,-0.021710,1.018897,1.019128,-0.001107,0.000374,-0.001968,0.002288,52.071,0.908817,0.174047,MOVE,0,0,0.908817,1.000000,0.250000,1
9.501564,0.042897,-0.000000,-0.019057,1.018897,1.019075,0.001031,0.001901,0.001080,0.002418,52.096,0.909244,0.173809,MOVE,0,0,0.909244,1.000000,0.250000,1
9.544884,0.043321,-0.001234,-0.016162,1.018897,1.019026,0.002253,-0.000237,0.001385,0.002655,52.079,0.908956,0.173551,MOVE,0,0,0.908956,1.000000,0.250000,1
9.589244,0.044360,-0.000247,-0.019781,1.019871,1.020063,-0.001107,0.000374,0.000774,0.001402,52.069,0.908778,0.174253,MOVE,0,0,0.908778,1.000000,0.250000,1
9.633150,0.043905,-0.000247,-0.018816,1.019628,1.019801,-0.002023,0.000069,0.001385,0.002453,52.058,0.908586,0.174649,MOVE,0,0,0.908586,1.000000,0.250000,1
9.681095,0.047945,-0.000000,-0.021228,1.018165,1.018387,0.001642,-0.000847,0.000468,0.001906,52.037,0.908222,0.173732,MOVE,0,0,0.908222,1.000000,0.250000,1
9.724674,0.043579,-0.000494,-0.018092,1.019871,1.020032,0.001642,-0.001764,-0.000448,0.002451,52.034,0.908160,0.174388,MOVE,0,0,0.908160,1.000000,0.250000,1
9.768977,0.044304,-0.000247,-0.019539,1.018897,1.019084,0.001336,0.000375,0.001995,0.002430,52.040,0.908274,0.174124,MOVE,0,0,0.908274,1.000000,0.250000,1
9.819110,0.050132,-0.001975,-0.018092,1.018653,1.018815,0.002558,0.000375,0.001078,0.002801,52.049,0.908420,0.173646,MOVE,0,0,0.908420,1.000000,0.250000,1
9.862857,0.043747,0.000727,-0.022916,1.020359,1.020616,0.000420,-0.002374,0.001688,0.002943,52.043,0.908315,0.174836,MOVE,0,0,0.908315,1.000000,0.250000,1
9.913491,0.050634,-0.002222,-0.015438,1.021090,1.021209,-0.000802,0.000680,0.000467,0.001151,52.023,0.907975,0.176440,MOVE,0,0,0.907975,1.000000,0.250000,1
9.957555,0.044063,0.001455,-0.022916,1.020115,1.020373,-0.000192,0.001902,0.000772,0.002062,52.010,0.907743,0.177132,MOVE,0,0,0.907743,1.000000,0.250000,1
10.008167,0.050612,-0.004937,-0.012303,1.018165,1.018252,-0.000192,-0.001458,0.000772,0.001661,51.998,0.907542,0.175846,MOVE,0,0,0.907542,1.000000,0.250000,1
10.051697,0.043531,0.001455,-0.024605,1.021333,1.021631,-0.000497,-0.002069,0.001687,0.002715,51.984,0.907299,0.177729,MOVE,0,0,0.907299,1.000000,0.250000,1
10.102658,0.050960,0.000242,-0.022675,1.020602,1.020854,0.001946,0.000069,0.000465,0.002002,51.958,0.906838,0.178725,MOVE,0,0,0.906838,1.000000,0.250000,1
10.146356,0.043698,-0.003456,-0.016403,1.018409,1.018547,-0.001719,-0.001458,0.002298,0.003219,51.944,0.906587,0.177545,MOVE,0,0,0.906587,1.000000,0.250000,1
10.196905,0.050549,-0.000741,-0.018092,1.022552,1.022712,-0.001719,-0.000236,0.001076,0.002041,51.944,0.906602,0.180231,MOVE,0,0,0.906602,1.000000,0.250000,1
10.240540,0.043635,-0.000741,-0.020263,1.018897,1.019098,0.001335,-0.000541,0.002908,0.003245,51.955,0.906794,0.179397,MOVE,0,0,0.906794,1.000000,0.250000,1
10.284953,0.044413,0.000485,-0.023158,1.017678,1.017942,0.000114,0.000070,0.001380,0.001387,51.962,0.906905,0.177604,MOVE,0,0,0.906905,1.000000,0.250000,1
10.328530,0.043577,-0.001234,-0.015680,1.020359,1.020480,0.000114,-0.001457,0.000159,0.001470,51.960,0.906866,0.178276,MOVE,0,0,0.906866,1.000000,0.250000,1
10.376547,0.048017,-0.000247,-0.022193,1.022552,1.022793,-0.001719,-0.000540,0.000159,0.001809,51.940,0.906522,0.180962,MOVE,0,0,0.906522,1.000000,0.250000,1
10.420075,0.043529,-0.002962,-0.015197,1.021090,1.021207,-0.000192,-0.001456,0.001991,0.002474,51.940,0.906528,0.181952,MOVE,0,0,0.906528,1.000000,0.250000,1
10.471078,0.051003,0.000485,-0.020504,1.018409,1.018616,-0.001108,0.001598,0.001074,0.002222,51.936,0.906446,0.180511,MOVE,0,0,0.906446,1.000000,0.250000,1
10.514594,0.043516,-0.001234,-0.017368,1.020359,1.020507,-0.003246,0.000071,0.000463,0.003279,51.902,0.905855,0.180917,MOVE,0,0,0.905855,1.000000,0.250000,1
10.566473,0.051879,0.000242,-0.019298,1.021577,1.021760,-0.001107,0.000071,0.000768,0.001350,51.893,0.905705,0.182409,MOVE,0,0,0.905705,1.000000,0.250000,1
10.609939,0.043465,0.000242,-0.022193,1.016947,1.017189,0.002252,-0.001761,0.000462,0.002896,51.908,0.905968,0.179638,MOVE,0,0,0.905968,1.000000,0.250000,1
10.653837,0.043899,-0.000987,-0.017851,1.018165,1.018322,-0.000497,-0.000845,0.001073,0.001453,51.924,0.906247,0.178164,MOVE,0,0,0.906247,1.000000,0.250000,1
10.697351,0.043514,-0.000494,-0.019057,1.022065,1.022242,0.002252,-0.000845,0.002600,0.003542,51.935,0.906438,0.180366,MOVE,0,0,0.906438,1.000000,0.250000,1
10.742018,0.044667,-0.000000,-0.020022,1.017922,1.018119,-0.000802,0.007707,-0.000455,0.007762,51.927,0.906304,0.178636,MOVE,0,0,0.906304,1.000000,0.250000,1
10.794696,0.052678,-0.004937,-0.046798,1.002325,1.003429,0.010194,-0.018255,-0.004418,0.021371,51.834,0.904671,0.163859,MOVE,0,0,0.904671,1.000000,0.250000,1
10.841618,0.046921,-0.005430,0.018938,0.981611,0.981809,-0.004161,-0.002373,0.005967,0.007651,51.823,0.904479,0.131100,MOVE,0,0,0.904479,1.000000,0.250000,1
10.884835,0.043217,-0.014810,-0.013267,1.024014,1.024207,-0.008435,0.006179,0.013294,0.016913,51.849,0.904934,0.139777,MOVE,0,0,0.904934,1.000000,0.250000,1
10.927001,0.042166,0.024002,-0.039079,1.041317,1.042326,-0.088757,0.029695,-0.077413,0.121459,51.766,0.903489,0.163893,MOVE,0,0,0.903489,1.000000,0.250000,1
10.978469,0.051468,-0.001234,-0.046315,1.022796,1.023845,0.053571,-0.011843,-0.009300,0.055647,51.699,0.902311,0.168963,MOVE,0,0,0.902311,1.000000,0.250000,1
11.030907,0.052438,-0.000000,0.004856,1.014510,1.014522,-0.016677,0.007399,0.001391,0.018298,51.611,0.900784,0.165137,MOVE,0,0,0.900784,1.000000,0.250000,1
11.072546,0.041639,-0.000494,-0.020022,1.024502,1.024697,0.000427,-0.001764,0.004139,0.004520,51.570,0.900073,0.170850,MOVE,0,0,0.900073,1.000000,0.250000,1
11.117576,0.045030,-0.001234,-0.020263,1.023039,1.023241,-0.002016,-0.000848,0.002000,0.002964,51.556,0.899827,0.174682,MOVE,0,0,0.899827,1.000000,0.250000,1
11.166150,0.048574,-0.004443,-0.014715,1.018897,1.019013,-0.001405,0.001595,0.004443,0.004925,51.557,0.899841,0.174325,MOVE,0,0,0.899841,1.000000,0.250000,1
11.211027,0.044877,0.007031,-0.033772,1.020846,1.021429,-0.004152,-0.000237,-0.000445,0.004183,51.544,0.899607,0.176179,MOVE,0,0,0.899607,1.000000,0.250000,1
11.252544,0.041517,0.005334,-0.029430,1.017191,1.017630,0.000429,-0.000237,-0.001666,0.001737,51.523,0.899244,0.174428,MOVE,0,0,0.899244,1.000000,0.250000,1
11.297571,0.045027,-0.011601,-0.004101,1.026695,1.026769,0.001345,0.000374,0.002916,0.003233,51.534,0.899432,0.181077,MOVE,0,0,0.899432,1.000000,0.250000,1
11.340593,0.043022,-0.004196,-0.015438,1.020359,1.020484,-0.000182,0.001290,0.004136,0.004337,51.569,0.900051,0.181405,MOVE,0,0,0.900051,1.000000,0.250000,1
11.390227,0.049634,0.007273,-0.033772,1.018653,1.019238,-0.000793,-0.000848,0.000776,0.001396,51.603,0.900645,0.180579,MOVE,0,0,0.900645,1.000000,0.250000,1
11.432421,0.042195,0.000242,-0.020504,1.020846,1.021052,0.001346,0.000068,-0.079546,0.079557,51.581,0.900262,0.181468,MOVE,0,0,0.900262,1.000000,0.250000,1
11.475310,0.042888,-0.004443,-0.016162,1.021821,1.021958,-0.000182,-0.000848,0.000783,0.001168,51.607,0.900707,0.183084,MOVE,0,0,0.900707,1.000000,0.250000,1
11.517751,0.042441,-0.001234,-0.018816,1.016460,1.016634,-0.002319,0.000984,0.000172,0.002525,51.625,0.901029,0.179746,MOVE,0,0,0.901029,1.000000,0.250000,1
11.556707,0.038957,-0.002962,-0.020022,1.019871,1.020072,0.000430,-0.001459,0.002309,0.002765,51.648,0.901420,0.179837,MOVE,0,0,0.901420,1.000000,0.250000,1
11.600565,0.043858,0.000242,-0.001447,1.012560,1.012561,-0.045385,0.004039,0.005363,0.045879,51.670,0.901806,0.173158,MOVE,0,0,0.901806,1.000000,0.250000,1
11.639716,0.039151,0.004364,-0.026052,1.012560,1.012905,0.025780,-0.001765,0.000781,0.025852,51.689,0.902139,0.167457,MOVE,0,0,0.902139,1.000000,0.250000,1
11.692687,0.052971,-0.000741,-0.019539,1.020602,1.020790,0.001957,0.001595,0.000177,0.002531,51.611,0.900790,0.169422,MOVE,0,0,0.900790,1.000000,0.250000,1
11.743395,0.050708,-0.003949,-0.012303,1.018897,1.018979,-0.004457,0.000984,0.002620,0.005263,51.593,0.900467,0.169560,MOVE,0,0,0.900467,1.000000,0.250000,1
11.786206,0.042811,-0.001728,-0.017609,1.023039,1.023192,-0.005984,-0.001154,0.003230,0.006897,51.564,0.899953,0.173477,MOVE,0,0,0.899953,1.000000,0.250000,1
11.828322,0.042117,0.000485,-0.021710,1.017922,1.018153,0.007149,-0.003597,0.001092,0.008077,51.523,0.899239,0.172468,MOVE,0,0,0.899239,1.000000,0.250000,1
11.871219,0.042897,-0.001728,-0.024123,1.019140,1.019427,0.008066,-0.003292,0.002619,0.009096,51.501,0.898863,0.172705,MOVE,0,0,0.898863,1.000000,0.250000,1
11.914404,0.043185,-0.000000,-0.017609,1.018653,1.018805,-0.001708,-0.001153,0.000480,0.002116,51.484,0.898566,0.172359,MOVE,0,0,0.898566,1.000000,0.250000,1
11.959420,0.045016,-0.002468,-0.017368,1.013535,1.013687,0.007148,-0.000542,0.000175,0.007170,51.445,0.897881,0.167442,MOVE,0,0,0.897881,1.000000,0.250000,1
12.008228,0.048808,0.000485,-0.014956,1.016947,1.017057,-0.014841,0.003428,0.001701,0.015327,51.403,0.897148,0.166049,MOVE,0,0,0.897148,1.000000,0.250000,1
12.053287,0.045059,0.009940,-0.006272,1.008174,1.008242,-0.042631,0.048017,-0.000742,0.064215,51.366,0.896505,0.156862,MOVE,0,0,0.896505,1.000000,0.250000,1
12.102503,0.049216,-0.001481,-0.017127,1.017922,1.018067,0.004401,0.001897,0.003228,0.005779,51.351,0.896250,0.157436,MOVE,0,0,0.896250,1.000000,0.250000,1
12.147577,0.045074,-0.003209,-0.022434,1.022308,1.022559,0.075251,-0.018870,0.001395,0.077593,51.380,0.896748,0.161996,MOVE,0,0,0.896748,1.000000,0.250000,1
12.188961,0.041384,0.002667,-0.021952,1.016460,1.016700,0.002862,0.018390,-0.000744,0.018626,51.410,0.897269,0.160826,MOVE,0,0,0.897269,1.000000,0.250000,1
12.234080,0.045119,-0.010861,-0.056688,1.048871,1.050458,0.047147,-0.036588,-0.001965,0.059711,51.406,0.897212,0.190156,MOVE,0,0,0.897212,1.000000,0.250000,1
12.282805,0.048725,0.003637,-0.016886,1.016703,1.016850,0.035534,-0.035664,0.000783,0.050351,51.379,0.896740,0.186306,MOVE,0,0,0.896740,1.000000,0.250000,1
12.327856,0.045051,-0.008392,-0.034737,1.041560,1.042173,0.105459,-0.060697,0.008723,0.121991,51.362,0.896435,0.205631,MOVE,0,0,0.896435,1.000000,0.250000,1
12.369336,0.041480,-0.033076,0.012625,1.068123,1.068710,0.193102,0.186693,-0.055728,0.274314,51.046,0.890929,0.246907,MOVE,0,0,0.890929,1.000000,0.250000,1
12.414281,0.044945,-0.049367,-0.039079,0.984292,0.986303,0.071845,0.153095,-0.235933,0.290283,50.472,0.880908,0.209889,MOVE,0,0,0.880908,1.000000,0.250000,1
12.455716,0.041435,-0.101696,-0.061030,0.957485,0.964803,-0.037194,-0.275732,0.062780,0.285225,50.444,0.880422,0.157222,MOVE,0,0,0.880422,1.000000,0.250000,1
12.500583,0.044867,0.178925,-0.028706,1.120274,1.134836,-0.046357,0.077959,0.009940,0.091243,50.254,0.877099,0.262853,MOVE,0,0,0.877099,1.000000,0.250000,1
12.548985,0.048402,-0.003949,0.015782,1.001838,1.001970,-0.063454,0.025416,0.189811,0.201744,50.515,0.881652,0.238340,MOVE,0,0,0.881652,1.000000,0.250000,1
12.594154,0.045169,0.007273,0.004856,1.010367,1.010405,-0.079011,0.011668,0.100285,0.128202,50.585,0.882868,0.223871,MOVE,0,0,0.882868,1.000000,0.250000,1
12.635533,0.041379,0.065218,-0.014232,1.027670,1.029835,-0.014863,0.013802,0.033381,0.039060,50.547,0.882209,0.228335,MOVE,0,0,0.882209,1.000000,0.250000,1
12.680606,0.045074,-0.001234,-0.014232,1.014754,1.014854,-0.047534,0.054413,0.005584,0.072467,50.472,0.880894,0.218871,MOVE,0,0,0.880894,1.000000,0.250000,1
12.722063,0.041457,-0.007158,-0.016886,1.017678,1.017843,-0.010572,0.022334,0.004361,0.025092,50.427,0.880120,0.213043,MOVE,0,0,0.880120,1.000000,0.250000,1
12.764995,0.042932,-0.007652,-0.009408,1.023283,1.023355,0.015387,-0.016148,0.000084,0.022305,50.394,0.879546,0.212758,MOVE,0,0,0.879546,1.000000,0.250000,1
12.809941,0.044946,-0.006665,-0.009649,1.019871,1.019939,0.016602,-0.032941,0.010773,0.038429,50.368,0.879090,0.209427,MOVE,0,0,0.879090,1.000000,0.250000,1
12.858533,0.048592,-0.022462,0.058270,1.018409,1.020322,-0.010883,-0.005756,0.133239,0.133807,50.542,0.882126,0.206774,MOVE,0,0,0.882126,1.000000,0.250000,1
12.903547,0.045013,-0.019994,-0.002171,1.010367,1.010567,-0.015462,-0.000562,0.101447,0.102620,50.721,0.885250,0.195607,MOVE,0,0,0.885250,1.000000,0.250000,1
12.945004,0.041458,-0.026411,-0.015197,1.030838,1.031288,0.008975,-0.028663,0.073019,0.078955,50.870,0.887841,0.204206,MOVE,0,0,0.887841,1.000000,0.250000,1
12.990074,0.045070,0.005576,-0.040767,1.028401,1.029224,0.046538,-0.027130,0.180816,0.188669,51.303,0.895399,0.210086,MOVE,0,0,0.895399,1.000000,0.250000,1
13.038501,0.048426,0.023517,-0.005307,0.999888,1.000179,-0.074102,0.046781,0.084878,0.121999,51.420,0.897442,0.189239,MOVE,0,0,0.897442,1.000000,0.250000,1
13.076694,0.038194,0.062793,-0.022916,1.022796,1.024978,0.029754,-0.004534,0.003321,0.030281,51.417,0.897402,0.192795,MOVE,0,0,0.897402,1.000000,0.250000,1
13.118165,0.041470,0.013092,-0.013509,0.995745,0.995923,-0.052402,0.105714,-0.114872,0.164672,50.844,0.887387,0.169846,MOVE,0,0,0.887387,1.000000,0.250000,1
13.159716,0.041551,-0.007405,0.062640,1.055451,1.057334,-0.093025,0.011335,-0.733373,0.739336,49.028,0.855701,0.204462,MOVE,0,0,0.855701,1.000000,0.250000,1
13.204696,0.044980,-0.023943,-0.034013,1.009880,1.010736,-0.009947,-0.020430,-0.398008,0.398656,48.196,0.841180,0.193678,MOVE,0,0,0.841180,1.000000,0.250000,1
13.255141,0.050444,-0.000000,-0.005789,1.021333,1.021350,0.001659,-0.015236,-0.028737,0.032569,48.282,0.842685,0.193525,MOVE,0,0,0.842685,1.000000,0.250000,1
13.296491,0.041351,0.011637,-0.012303,1.023039,1.023180,-0.030109,0.059899,0.005471,0.067263,48.413,0.844961,0.195034,MOVE,0,0,0.844961,1.000000,0.250000,1
13.341423,0.044931,0.013335,-0.028706,1.034981,1.035464,0.007155,-0.041807,-0.017432,0.045858,48.476,0.846061,0.207449,MOVE,0,0,0.846061,1.000000,0.250000,1
13.382875,0.041452,0.036609,-0.096732,1.035955,1.041105,0.235309,0.413898,0.049151,0.478642,48.842,0.852450,0.223699,MOVE,0,0,0.852450,1.000000,0.250000,1
13.427770,0.044896,0.012122,0.003642,1.076653,1.076727,-0.056073,0.646332,0.287083,0.709441,49.278,0.860068,0.270383,MOVE,0,0,0.860068,1.000000,0.250000,1
13.469214,0.041443,-0.039000,-0.054276,1.221409,1.223236,-0.029806,0.109076,-0.306372,0.326573,48.569,0.847690,0.444257,MOVE,0,0,0.847690,1.000000,0.250000,1
13.514089,0.044875,-0.127120,-0.101556,1.160972,1.172318,-0.645558,-0.246142,-0.305150,0.755280,47.850,0.835141,0.554917,MOVE,0,0,0.835141,1.000000,0.250000,1
13.562891,0.048802,-0.093798,-0.042215,1.127585,1.132267,-0.588748,-0.227816,-0.190919,0.659526,47.586,0.830528,0.618466,MOVE,0,0,0.830528,1.000000,0.250000,1
13.607785,0.044894,-0.028386,-0.035701,1.205812,1.206674,-0.655638,-0.287681,-0.113950,0.724986,47.631,0.831315,0.742626,MOVE,0,0,0.831315,1.000000,0.250000,1
13.649385,0.041600,-0.017525,-0.073574,1.223114,1.225451,-0.694733,-0.493543,-0.103870,0.858503,47.897,0.835956,0.871269,MOVE,0,0,0.835956,1.000000,0.250000,1
13.694227,0.044842,-0.012342,-0.135328,1.244072,1.251472,-0.788501,0.045241,0.398261,0.884529,48.930,0.853987,1.010467,MOVE,0,0,0.853987,1.000000,0.250000,1
13.736245,0.042018,-0.034557,-0.223375,1.147081,1.169139,-0.992530,-0.511563,-0.003383,1.116612,49.371,0.861680,1.061645,MOVE,0,0,0.861680,1.000000,0.250000,1
13.786216,0.049971,0.056005,-0.148113,1.015241,1.027516,-1.091184,-0.299287,0.261122,1.161224,50.554,0.882334,0.980245,MOVE,0,0,0.882334,1.000000,0.250000,1
13.831004,0.044788,0.118556,-0.210349,0.963577,0.993370,-1.040177,0.055320,0.365274,1.103836,51.788,0.903862,0.876253,MOVE,0,0,0.903862,1.000000,0.250000,1
13.872575,0.041571,0.116616,-0.289230,0.971376,1.020208,-1.076524,-0.130078,0.343283,1.137395,53.174,0.928056,0.806815,MOVE,0,0,0.928056,1.000000,0.250000,1
13.917401,0.044826,0.105706,-0.312629,0.957729,1.012993,-0.929000,0.179936,0.492029,1.066541,54.544,0.951971,0.737827,MOVE,0,0,0.951971,1.000000,0.250000,1
13.958820,0.041420,0.038549,-0.319142,0.853183,0.911734,-0.671825,0.007978,0.338091,0.752143,55.924,0.976063,0.584605,MOVE,0,0,0.976063,1.000000,0.250000,1
14.003790,0.044970,0.087281,-0.427211,0.950174,1.045446,-0.670298,0.274010,0.460569,0.858199,57.342,1.000810,0.567046,MOVE,0,0,1.000810,1.000000,0.250000,1
14.052166,0.048376,-0.052823,-0.338199,0.765939,0.838947,-0.717335,-0.036615,0.787993,1.066228,59.588,1.039998,0.365393,MOVE,0,0,1.039998,1.000000,0.250000,1
14.097297,0.045131,0.041943,-0.401159,0.801275,0.897067,-0.530105,0.241939,0.641691,0.866783,61.269,1.069346,0.236214,MOVE,0,0,1.069346,1.000000,0.250000,1
14.138648,0.041351,0.035155,-0.395369,0.833200,0.922916,0.504701,-0.682605,-0.077298,0.852437,62.317,1.087637,0.143217,MOVE,0,0,1.087637,1.000000,0.250000,1
14.183684,0.045037,-0.167108,-0.409843,0.611192,0.754620,0.204155,-0.407716,0.391541,0.601013,63.595,1.109947,-0.091946,MOVE,0,0,1.109947,1.000000,0.250000,1
14.225200,0.041516,0.078310,-0.426246,0.827351,0.933985,0.740495,-0.537830,0.020135,0.915423,64.436,1.124624,-0.142165,MOVE,0,0,1.124624,1.000000,0.250000,1
14.268814,0.043613,-0.013576,-0.362563,0.743275,0.827100,1.450320,-1.305993,-0.912961,2.154657,64.148,1.119593,-0.283559,MOVE,0,0,1.119593,1.000000,0.250000,1
14.310226,0.041413,-0.022709,-0.342782,0.695267,0.775507,1.321733,-0.855175,-0.529032,1.660776,63.895,1.115171,-0.457247,MOVE,0,0,1.115171,1.000000,0.250000,1
14.355153,0.044926,0.019396,-0.170547,0.713544,0.733899,0.958879,0.182685,-0.026290,0.976481,63.787,1.113300,-0.651013,MOVE,0,0,1.113300,1.000000,0.250000,1
14.396471,0.041318,0.188865,-0.148595,1.074703,1.101244,0.841288,-0.182918,0.353973,0.930871,64.380,1.123640,-0.494792,MOVE,0,0,1.123640,1.000000,0.250000,1
14.441286,0.044815,0.091160,-0.142082,0.946519,0.961454,1.224606,-0.414741,-0.270331,1.320889,64.112,1.118959,-0.480004,MOVE,0,0,1.118959,1.000000,0.250000,1
14.482670,0.041384,0.102070,-0.119166,1.065443,1.076934,0.932307,0.452077,0.307853,1.080899,64.533,1.126311,-0.362763,MOVE,0,0,1.126311,1.000000,0.250000,1
14.527470,0.044800,0.056247,-0.019298,1.016460,1.018198,0.988506,0.193070,0.357944,1.068899,65.179,1.137592,-0.310109,MOVE,0,0,1.137592,1.000000,0.250000,1
14.576005,0.048535,-0.054798,-0.044144,0.914838,0.917540,0.985757,0.306385,0.423001,1.115580,65.780,1.148071,-0.353312,MOVE,0,0,1.148071,1.000000,0.250000,1
14.613950,0.037945,-0.259424,-0.040285,1.224820,1.252641,-0.546598,-2.785509,0.470954,2.877434,66.728,1.164624,-0.090604,MOVE,0,0,1.164624,1.000000,0.250000,1
14.662421,0.048471,0.610964,0.040061,1.217997,1.363231,-0.520025,1.612415,0.240963,1.711249,66.822,1.166257,0.245364,MOVE,0,0,1.166257,1.000000,0.250000,1
14.707255,0.044834,-0.099968,0.010440,0.866342,0.872153,0.082288,-0.195746,0.528681,0.569729,67.358,1.175617,0.105766,MOVE,0,0,1.175617,1.000000,0.250000,1
14.749363,0.042108,0.176501,-0.016645,0.951880,0.968248,0.101224,0.047379,0.240658,0.265344,67.271,1.174100,0.066613,MOVE,0,0,1.174100,1.000000,0.250000,1
14.790907,0.041544,0.118798,0.145433,0.897292,0.916731,0.189189,0.230333,-0.228792,0.375755,66.069,1.153118,-0.014990,MOVE,1,1,1.153118,1.223102,0.752718,1
14.835823,0.044916,0.138194,0.019423,0.985023,0.994859,0.355039,0.881820,-0.094096,0.955256,65.074,1.135762,-0.018118,MOVE,0,1,1.135762,1.223102,0.752718,1
14.877502,0.041679,0.209473,-0.004825,1.101997,1.121740,0.027921,-0.137408,-0.194278,0.239593,63.886,1.115023,0.093259,MOVE,0,1,1.115023,1.223102,0.752718,1
14.922358,0.044856,0.028366,-0.038114,0.968208,0.969373,-0.079585,-0.082424,-0.182352,0.215360,62.857,1.097053,0.056369,MOVE,0,1,1.097053,1.223102,0.752718,1
14.963897,0.041539,0.095524,-0.041250,1.009392,1.014741,-0.083854,-0.019809,-0.022609,0.089079,62.142,1.084586,0.063999,MOVE,0,1,1.084586,1.223102,0.752718,1
15.008895,0.044998,0.080977,-0.017127,1.094442,1.097568,-0.151041,-0.019806,0.049471,0.160166,61.508,1.073519,0.145410,MOVE,0,1,1.073519,1.223102,0.752718,1
15.057294,0.048399,0.167288,-0.018574,1.033275,1.046894,0.206306,-0.250396,-0.026881,0.325550,60.776,1.060750,0.173073,MOVE,0,1,1.060750,1.223102,0.752718,1
15.102829,0.045535,0.178440,-0.026535,1.069829,1.084933,0.306475,-0.359431,-0.135919,0.491519,59.554,1.039418,0.232206,MOVE,0,1,1.039418,1.223102,0.752718,1
15.144105,0.041276,0.048004,-0.000482,1.031812,1.032929,-0.055157,0.011059,-0.208917,0.216358,58.364,1.018643,0.238621,MOVE,0,1,1.018643,1.223102,0.752718,1
15.189018,0.044914,0.203897,-0.133639,0.945056,0.975994,-0.078370,0.214783,0.086742,0.244535,57.790,1.008632,0.193154,MOVE,0,1,1.008632,1.223102,0.752718,1
15.237426,0.048407,0.106191,0.014325,0.976493,0.982355,0.028837,0.142090,0.183258,0.233677,57.314,1.000323,0.157958,MOVE,0,1,1.000323,1.223102,0.752718,1
15.275647,0.038221,0.101827,-0.068026,0.878040,0.886538,0.143985,-0.003907,-0.097740,0.174069,56.267,0.982047,0.040046,MOVE,0,1,0.982047,1.223102,0.752718,1
15.317137,0.041490,0.082189,-0.099868,0.983317,0.991787,0.093589,0.016862,-0.265422,0.281943,54.999,0.959917,0.028649,MOVE,1,2,0.959917,1.538575,1.203247,1
15.358849,0.041712,0.085099,-0.118442,1.029132,1.039414,0.229201,0.094748,-0.244958,0.348590,53.747,0.938063,0.061258,MOVE,0,2,0.938063,1.538575,1.203247,1
15.403720,0.044871,0.074188,-0.015438,0.951149,0.954163,0.308002,-0.291014,0.003053,0.423750,53.078,0.926390,0.013878,MOVE,0,2,0.926390,1.538575,1.203247,1
15.452199,0.048479,0.056975,-0.108069,1.063980,1.070971,0.249359,-0.192359,-0.135308,0.342769,52.185,0.910806,0.076364,MOVE,0,2,0.910806,1.538575,1.203247,1
15.490057,0.037858,0.253598,-0.026776,1.112232,1.141092,0.369089,0.348868,-0.391566,0.641295,50.647,0.883954,0.195710,MOVE,0,2,0.883954,1.538575,1.203247,1
15.538381,0.048324,0.054550,0.127466,0.886569,0.897345,0.185524,0.499751,0.308791,0.616054,51.185,0.893339,0.083750,MOVE,0,2,0.893339,1.538575,1.203247,1
15.583461,0.045080,0.111283,-0.082499,1.072022,1.080936,0.419791,1.522340,0.658512,1.710959,52.045,0.908351,0.148217,MOVE,0,2,0.908351,1.538575,1.203247,1
15.624824,0.041363,-0.048133,0.004613,0.996476,0.997649,-0.256132,0.182712,-0.072389,0.322843,51.201,0.893627,0.131279,MOVE,0,2,0.893627,1.538575,1.203247,1
15.670080,0.045257,-0.118481,-0.094078,1.088594,1.099056,-0.329435,0.435305,-0.233046,0.593573,50.080,0.874063,0.207302,MOVE,0,2,0.874063,1.538575,1.203247,1
15.718482,0.048401,-0.090589,-0.159209,1.035468,1.051545,-0.394187,0.172022,-0.051314,0.433138,50.014,0.872904,0.232963,MOVE,0,2,0.872904,1.538575,1.203247,1
15.764324,0.045842,-0.042949,-0.104210,1.013291,1.019541,-0.215814,-0.062550,0.407446,0.465296,50.911,0.888562,0.227254,MOVE,0,2,0.888562,1.538575,1.203247,1
15.812778,0.048455,-0.016044,0.060213,1.025720,1.027611,-0.279650,-0.102562,0.122783,0.322178,51.059,0.891140,0.229378,MOVE,0,2,0.891140,1.538575,1.203247,1
15.851232,0.038454,-0.026165,0.022580,1.004031,1.004626,0.349236,0.886429,0.131946,0.961838,51.301,0.895370,0.210604,MOVE,0,2,0.895370,1.538575,1.203247,1
15.894445,0.043213,-0.069854,-0.085635,1.062275,1.068008,0.061213,-0.262608,0.028709,0.271172,51.487,0.898621,0.250750,MOVE,0,2,0.898621,1.538575,1.203247,1
15.944705,0.050260,0.027396,-0.020022,1.028157,1.028717,0.190411,-0.028036,-0.094685,0.214494,51.182,0.893288,0.251520,MOVE,0,2,0.893288,1.538575,1.203247,1
15.989288,0.044584,-0.000247,-0.006754,1.039611,1.039633,0.454610,0.009227,-0.267560,0.527583,50.457,0.880642,0.262038,MOVE,0,2,0.880642,1.538575,1.203247,1
16.036275,0.046987,-0.007652,0.008255,1.001350,1.001414,0.443309,0.024804,-0.245874,0.507536,49.885,0.870656,0.237106,MOVE,0,2,0.870656,1.538575,1.203247,1
16.080327,0.044052,-0.006665,0.065068,0.983561,0.985733,0.060597,-0.102553,-0.149040,0.190793,49.526,0.864398,0.200555,MOVE,0,2,0.864398,1.538575,1.203247,1
16.123793,0.043466,0.037579,0.012382,1.014754,1.015525,-0.031943,-0.046341,-0.182296,0.190787,49.025,0.855642,0.194472,MOVE,0,2,0.855642,1.538575,1.203247,1
16.167207,0.043413,0.011880,0.037633,1.011829,1.012599,-0.071649,-0.139498,-0.272093,0.314051,48.325,0.843424,0.186364,MOVE,0,2,0.843424,1.538575,1.203247,1
16.210342,0.043136,-0.057019,0.055842,0.979661,0.982907,-0.250022,-0.194476,-0.129456,0.342185,47.929,0.836514,0.152343,MOVE,0,2,0.836514,1.538575,1.203247,1
16.254012,0.043670,-0.013329,0.051472,1.015485,1.016876,-0.238415,-0.101929,-0.133427,0.291606,47.470,0.828502,0.152297,MOVE,0,2,0.828502,1.538575,1.203247,1
16.297045,0.043032,-0.053563,0.033748,1.042048,1.043969,-0.249105,-0.088490,-0.113573,0.287720,47.116,0.822336,0.176640,MOVE,0,2,0.822336,1.538575,1.203247,1
16.340165,0.043120,-0.049120,0.037147,1.025964,1.027810,-0.198709,-0.019157,-0.146560,0.247653,46.813,0.817036,0.184005,MOVE,0,2,0.817036,1.538575,1.203247,1
16.383512,0.043347,-0.017032,-0.016645,1.064224,1.064491,0.112832,0.048954,-0.333180,0.355157,46.027,0.803327,0.223646,MOVE,0,2,0.803327,1.538575,1.203247,1
16.426777,0.043266,-0.164393,0.086920,0.928241,0.946685,0.101531,-0.073524,-0.316686,0.340594,45.442,0.793111,0.153298,MOVE,0,2,0.793111,1.538575,1.203247,1
16.470093,0.043315,-0.085405,0.027193,1.010855,1.014820,-0.164501,-0.119034,-0.024082,0.204473,45.424,0.792795,0.151306,MOVE,0,2,0.792795,1.538575,1.203247,1
16.520381,0.050288,-0.040975,0.022337,0.975762,0.976878,-0.068890,-0.195078,-0.144110,0.252129,45.189,0.788701,0.115365,MOVE,0,2,0.788701,1.538575,1.203247,1
16.563673,0.043292,-0.012342,-0.010614,1.005250,1.005381,0.030987,-0.187137,-0.178624,0.260551,44.831,0.782444,0.108672,MOVE,0,2,0.782444,1.538575,1.203247,1
16.607396,0.043723,-0.088367,0.018695,0.994771,0.998863,0.035263,-0.155677,-0.095852,0.186189,44.554,0.777608,0.096781,MOVE,0,2,0.777608,1.538575,1.203247,1
16.657915,0.050519,-0.007899,0.005341,1.035224,1.035268,0.054801,-0.042963,-0.166077,0.180085,44.179,0.771067,0.118844,MOVE,0,2,0.771067,1.538575,1.203247,1
16.701263,0.043347,-0.014810,0.023065,1.034249,1.034613,-0.069811,0.072790,-0.162061,0.190881,43.796,0.764385,0.138111,MOVE,0,2,0.764385,1.538575,1.203247,1
16.744689,0.043426,-0.071336,-0.020263,1.024502,1.027182,-0.109494,0.072461,-0.066438,0.147151,43.652,0.761867,0.148764,MOVE,0,2,0.761867,1.538575,1.203247,1
16.787786,0.043097,-0.021228,-0.047763,1.085182,1.086440,0.015130,-0.129108,-0.036194,0.134936,43.617,0.761257,0.211684,MOVE,0,2,0.761257,1.538575,1.203247,1
16.837730,0.049944,0.002182,-0.069473,1.102485,1.104673,0.137296,-0.216447,0.033139,0.258453,43.806,0.764562,0.284721,MOVE,0,2,0.764562,1.538575,1.203247,1
16.888197,0.050467,0.055763,-0.022916,1.076653,1.078339,0.097284,-0.207895,0.056658,0.236420,43.937,0.766838,0.326755,MOVE,0,2,0.766838,1.538575,1.203247,1
16.931477,0.043280,0.039276,-0.045592,1.015972,1.017753,-0.096653,-0.068284,0.056033,0.130936,44.109,0.769848,0.310057,MOVE,0,2,0.769848,1.538575,1.203247,1
16.975322,0.043845,0.021335,-0.038114,0.977224,0.978200,-0.309845,0.209355,0.207833,0.427818,44.520,0.777020,0.259431,MOVE,0,2,0.777020,1.538575,1.203247,1
17.025724,0.050402,-0.011601,-0.095525,0.962115,0.966915,-0.255783,0.264638,0.166600,0.403997,44.801,0.781922,0.203712,MOVE,0,2,0.781922,1.538575,1.203247,1
17.069159,0.043434,-0.031595,-0.036425,0.874384,0.875713,-0.151020,0.121390,0.041983,0.198255,45.014,0.785644,0.071482,MOVE,0,2,0.785644,1.538575,1.203247,1
17.112168,0.043009,-0.114285,-0.080087,0.974787,0.984726,0.129364,-0.026143,0.016017,0.132947,45.245,0.789672,0.050587,MOVE,0,2,0.789672,1.538575,1.203247,1
17.155229,0.043061,-0.090095,-0.018333,0.982342,0.986635,0.240541,-0.122659,-0.044458,0.273645,45.357,0.791631,0.033500,MOVE,1,3,0.791631,1.925052,1.594573,1
17.199207,0.043978,-0.067633,-0.023640,0.968451,0.971098,0.088728,0.188569,-0.074085,0.221177,45.502,0.794158,0.004138,MOVE,0,3,0.794158,1.925052,1.594573,1
17.242924,0.043718,-0.170563,-0.030153,0.998670,1.013579,-0.008094,0.223694,0.022737,0.224992,45.832,0.799927,0.015945,MOVE,0,3,0.799927,1.925052,1.594573,1
17.285356,0.042432,-0.149829,-0.008443,0.983804,0.995184,-0.039859,0.222472,0.045339,0.230517,46.289,0.807892,0.010016,MOVE,0,3,0.807892,1.925052,1.594573,1
17.327808,0.042451,-0.076272,-0.066578,1.083476,1.088196,0.112857,0.327235,-0.039266,0.348370,46.485,0.811309,0.088391,MOVE,0,3,0.811309,1.925052,1.594573,1
17.377834,0.050027,0.001212,0.025736,1.117350,1.117647,0.194102,0.617396,-0.424111,0.773772,46.025,0.803288,0.185434,MOVE,0,3,0.803288,1.925052,1.594573,1
17.421082,0.043248,-0.112063,0.001700,1.188997,1.194267,0.103083,0.458877,-0.417086,0.628613,45.665,0.797013,0.341732,MOVE,0,3,0.797013,1.925052,1.594573,1
17.464453,0.043370,-0.029373,-0.012061,1.199720,1.200140,-0.103084,0.089609,-0.087218,0.162059,46.042,0.803583,0.487684,MOVE,0,3,0.803583,1.925052,1.594573,1
17.514933,0.050481,0.168985,0.007769,1.151711,1.164068,0.112246,0.021803,0.003495,0.114398,46.884,0.818281,0.586577,MOVE,0,3,0.818281,1.925052,1.594573,1
17.566334,0.051401,0.065945,0.052929,0.939451,0.943249,-0.428369,0.585020,-0.115624,0.734247,47.285,0.825281,0.476844,MOVE,0,3,0.825281,1.925052,1.594573,1
17.608424,0.042091,-0.084665,-0.022675,0.989653,0.993527,-0.427759,0.580439,-0.122038,0.731287,47.654,0.831720,0.423334,MOVE,0,3,0.831720,1.925052,1.594573,1
17.651771,0.043346,-0.049367,0.046373,0.980880,0.983216,-0.312611,0.328457,-0.045374,0.455706,48.273,0.842515,0.365894,MOVE,0,3,0.842515,1.925052,1.594573,1
17.694960,0.043189,-0.023943,-0.059824,0.999644,1.001719,-0.008693,-0.045396,0.086566,0.098133,49.235,0.859322,0.330852,MOVE,0,3,0.859322,1.925052,1.594573,1
17.748420,0.053460,0.073461,-0.025811,1.000619,1.003644,0.381039,-0.297683,-0.107689,0.495382,49.675,0.866996,0.301047,MOVE,0,3,0.866996,1.925052,1.594573,1
17.791854,0.043434,0.085826,0.033991,0.931166,0.935730,0.240846,-0.181619,-0.324241,0.442859,49.676,0.867009,0.213099,MOVE,0,3,0.867009,1.925052,1.594573,1
17.835060,0.043206,-0.000494,-0.011820,0.950418,0.950491,-0.008693,-0.143134,-0.216117,0.259364,49.777,0.868765,0.147231,MOVE,0,3,0.868765,1.925052,1.594573,1
17.878249,0.043189,-0.019006,-0.058377,1.036199,1.038016,-0.022736,-0.171819,-0.034075,0.176634,50.339,0.878577,0.166723,MOVE,0,3,0.878577,1.925052,1.594573,1
17.920993,0.042745,-0.077260,-0.007719,1.040342,1.043235,0.322402,-0.230156,0.115282,0.412559,51.090,0.891687,0.188962,MOVE,0,3,0.891687,1.925052,1.594573,1
17.964118,0.043125,0.032973,0.006798,1.055451,1.055988,0.066755,-0.108900,-0.200230,0.237503,51.067,0.891296,0.220455,MOVE,0,3,0.891296,1.925052,1.594573,1
18.012145,0.048027,0.008728,0.047102,0.998913,1.000061,0.091801,-0.069804,-0.466262,0.480312,50.440,0.880336,0.198465,MOVE,0,3,0.880336,1.925052,1.594573,1
18.055339,0.043194,-0.058747,0.025979,1.008661,1.010705,0.080805,-0.062168,-0.572247,0.581258,49.449,0.863056,0.188252,MOVE,0,3,0.863056,1.925052,1.594573,1
18.098656,0.043317,-0.003456,0.109014,1.018653,1.024475,0.098826,-0.003220,-0.740846,0.747415,48.078,0.839120,0.191455,MOVE,0,3,0.839120,1.925052,1.594573,1
18.141402,0.042747,-0.135266,0.109742,0.962846,0.978475,-0.263112,0.087799,-0.756117,0.805388,46.665,0.814455,0.152937,MOVE,0,3,0.814455,1.925052,1.594573,1
18.184564,0.043162,-0.190063,0.001700,1.043997,1.061158,-0.293044,-0.299184,-0.340424,0.539698,46.212,0.806559,0.192686,MOVE,0,3,0.806559,1.925052,1.594573,1
18.227515,0.042951,-0.053563,0.100031,0.957729,0.964427,-0.362683,-0.290327,-0.261316,0.533024,45.902,0.801137,0.141401,MOVE,0,3,0.801137,1.925052,1.594573,1
18.270855,0.043340,0.014789,0.035691,1.026451,1.027178,-0.323588,-0.001998,-0.653492,0.729222,44.680,0.779809,0.151721,MOVE,0,3,0.779809,1.925052,1.594573,1
18.314311,0.043456,-0.047886,0.071624,1.000619,1.004322,-0.168122,0.114677,-1.011764,1.032029,42.679,0.744881,0.140439,MOVE,0,3,0.744881,1.925052,1.594573,1
18.357862,0.043551,-0.023203,-0.034495,1.039367,1.040198,-0.229209,0.293355,-0.943042,1.013865,40.414,0.705354,0.162573,MOVE,0,3,0.705354,1.925052,1.594573,1
18.408367,0.050506,-0.037272,-0.062478,1.074947,1.077406,-0.047782,0.390483,-0.901503,0.983600,38.687,0.675207,0.215981,MOVE,0,3,0.675207,1.925052,1.594573,1
18.451739,0.043371,-0.006171,0.015296,1.025720,1.025853,0.151666,0.475393,-1.074684,1.184882,36.715,0.640791,0.217650,MOVE,0,3,0.640791,1.925052,1.594573,1
18.495242,0.043503,-0.071829,0.027678,1.119300,1.121944,0.199008,0.190424,-1.182501,1.214156,34.618,0.604204,0.305634,MOVE,0,3,0.604204,1.925052,1.594573,1
18.538504,0.043262,0.047035,0.031806,1.085182,1.086666,0.275671,0.245097,-1.439065,1.485589,31.408,0.548176,0.353071,MOVE,0,3,0.548176,1.925052,1.594573,1
18.589568,0.051064,0.049944,0.060213,1.018409,1.021409,0.212447,0.483945,-1.954024,2.024240,26.984,0.470962,0.337032,MOVE,0,3,0.470962,1.925052,1.594573,1
18.640274,0.050706,-0.019253,0.008255,1.001594,1.001813,0.097299,0.675757,-2.156526,2.262016,22.801,0.397959,0.304961,MOVE,0,3,0.397959,1.925052,1.594573,1
18.684121,0.043847,-0.040728,-0.018574,1.023039,1.024018,0.261010,0.580156,-2.279615,2.366718,18.541,0.323594,0.296081,MOVE,0,3,0.323594,1.925052,1.594573,1
18.727386,0.043266,-0.020981,-0.038596,1.041560,1.042486,0.558196,0.467146,-2.476925,2.581659,12.897,0.225099,0.304711,MOVE,0,3,0.225099,1.925052,1.594573,1
18.778267,0.050880,-0.036779,-0.046557,1.071048,1.072690,0.749397,0.209361,-2.500138,2.618419,8.225,0.143547,0.339660,MOVE,0,3,0.143547,1.925052,1.594573,1
18.821895,0.043628,0.016729,-0.029188,1.052283,1.052821,0.821785,0.012968,-2.475703,2.608564,2.737,0.047772,0.353233,MOVE,0,3,0.047772,1.925052,1.594573,1
18.872803,0.050908,0.059157,-0.035219,1.000863,1.003228,0.618977,-0.082632,-2.275645,2.359771,358.740,6.261195,0.320815,MOVE,0,3,-0.021991,1.925052,1.594573,1
18.916098,0.043295,0.027396,-0.013509,0.977712,0.978189,0.417697,-0.058198,-2.079252,2.121590,355.346,6.201954,0.269103,MOVE,0,3,-0.081231,1.925052,1.594573,1
18.959655,0.043556,0.007273,-0.006272,0.963334,0.963381,0.076835,-0.164183,-1.680051,1.689802,352.686,6.155526,0.209236,MOVE,0,3,-0.127660,1.925052,1.594573,1
19.003815,0.044160,0.091402,-0.084188,0.963334,0.971315,-0.008687,0.048093,-1.388668,1.389528,350.226,6.112594,0.162496,MOVE,0,3,-0.170591,1.925052,1.594573,1
19.054603,0.050788,-0.026658,-0.130503,0.978930,0.987950,0.251237,0.157132,-1.020622,1.062770,349.042,6.091935,0.135402,MOVE,0,3,-0.191251,1.925052,1.594573,1
19.098227,0.043624,0.000970,-0.096008,1.025720,1.030204,0.299495,-0.019102,-0.876152,0.926124,347.966,6.073158,0.149046,MOVE,0,3,-0.210027,1.925052,1.594573,1
19.148453,0.050227,-0.099968,-0.061754,0.984779,0.991765,0.355389,-0.013299,-0.636999,0.729552,347.631,6.067310,0.126729,MOVE,0,3,-0.215875,1.925052,1.594573,1
19.192177,0.043724,-0.201171,0.030835,0.932872,0.954814,0.192594,-0.411889,-0.527959,0.696768,347.315,6.061799,0.073389,MOVE,0,3,-0.221387,1.925052,1.594573,1
19.236120,0.043943,-0.000247,-0.045350,1.036199,1.037191,0.158691,-0.401810,-0.579883,0.723117,346.625,6.049745,0.099522,MOVE,0,3,-0.233441,1.925052,1.594573,1
19.283301,0.047181,-0.029127,0.027193,0.969913,0.970732,0.242074,-0.424717,-0.643107,0.807819,345.868,6.036534,0.063228,MOVE,0,3,-0.246651,1.925052,1.594573,1
19.326429,0.043128,0.001455,0.031077,0.964552,0.965054,-0.046866,-0.235043,-0.573469,0.621537,345.107,6.023248,0.025454,MOVE,1,4,-0.259937,2.456576,1.453212,0
19.369929,0.043500,-0.070348,0.015053,1.023283,1.025809,-0.048698,-0.155631,-0.423807,0.454097,344.787,6.017665,0.046136,MOVE,0,4,-0.265520,2.456576,1.453212,0
19.413531,0.043602,-0.124899,-0.002412,1.046434,1.053864,-0.018155,-0.280553,-0.088747,0.294814,345.218,6.025189,0.090000,MOVE,0,4,-0.257996,2.456576,1.453212,0
19.457441,0.043910,-0.010614,0.014325,1.065199,1.065348,-0.013573,-0.415859,0.063664,0.420923,346.009,6.038990,0.139814,MOVE,0,4,-0.244196,2.456576,1.453212,0
19.507943,0.050502,0.094554,0.034962,1.070560,1.075296,-0.091153,-0.219466,-0.147696,0.279801,346.230,6.042858,0.193599,MOVE,0,4,-0.240327,2.456576,1.453212,0
19.551270,0.043327,-0.008392,0.018938,0.950174,0.950400,-0.107341,-0.006274,-0.147390,0.182443,346.481,6.047234,0.129599,MOVE,0,4,-0.235952,2.456576,1.453212,0
19.595540,0.044270,-0.030608,-0.005307,1.009392,1.009870,-0.198005,-0.015126,0.054192,0.205843,347.176,6.059359,0.125522,MOVE,0,4,-0.223826,2.456576,1.453212,0
19.639198,0.043658,-0.040481,-0.009167,0.998670,0.999532,-0.111540,-0.057272,0.140315,0.188174,348.049,6.074599,0.112549,MOVE,0,4,-0.208586,2.456576,1.453212,0
19.689834,0.050636,0.036609,-0.038837,1.014754,1.016156,-0.003722,0.021222,0.157100,0.158571,348.919,6.089780,0.115835,MOVE,0,4,-0.193405,2.456576,1.453212,0
19.733159,0.043324,-0.005677,-0.010855,1.003787,1.003862,-0.001585,0.194702,0.003765,0.194745,349.502,6.099967,0.107727,MOVE,0,4,-0.183218,2.456576,1.453212,0
19.777092,0.043933,-0.079481,-0.064166,1.051308,1.056259,0.037816,0.141848,0.146093,0.207109,350.251,6.113037,0.147588,MOVE,0,4,-0.170149,2.456576,1.453212,0
19.824263,0.047171,-0.155753,-0.019057,1.005493,1.017663,-0.004334,-0.098222,0.273458,0.290595,351.387,6.132865,0.148726,MOVE,0,4,-0.150320,2.456576,1.453212,0
19.868763,0.044500,-0.085652,-0.025087,1.074703,1.078403,-0.062977,-0.496812,0.467102,0.684816,352.884,6.158986,0.204416,MOVE,0,4,-0.124199,2.456576,1.453212,0
19.911980,0.043216,0.109101,-0.011338,1.087619,1.093136,-0.102072,-0.179773,0.218786,0.301005,353.789,6.174790,0.267797,MOVE,0,4,-0.108395,2.456576,1.453212,0
19.955185,0.043205,0.016971,-0.029671,1.008905,1.009484,-0.263020,0.207525,-0.013042,0.335285,354.093,6.180089,0.249553,MOVE,0,4,-0.103097,2.456576,1.453212,0
19.999300,0.044115,-0.097253,-0.040526,0.941401,0.947278,-0.262714,0.335806,0.088056,0.435360,354.612,6.189146,0.177148,MOVE,0,4,-0.094039,2.456576,1.453212,0
20.042998,0.043698,-0.141684,-0.050175,0.962602,0.974267,-0.137182,0.140024,0.222446,0.296493,355.496,6.204568,0.136273,MOVE,0,4,-0.078617,2.456576,1.453212,0
20.090556,0.047558,-0.129342,-0.084429,1.030350,1.041863,0.016756,-0.000170,0.140590,0.141586,356.151,6.216008,0.160323,MOVE,0,4,-0.067178,2.456576,1.453212,0
20.133736,0.043180,-0.088120,0.058513,1.044485,1.049827,0.260797,0.041980,0.004367,0.264190,356.546,6.222910,0.189135,MOVE,0,4,-0.060276,2.456576,1.453212,0
20.177346,0.043610,-0.042209,0.015053,1.095905,1.096821,0.288286,0.127501,-0.107421,0.333024,356.655,6.224809,0.257360,MOVE,0,4,-0.058377,2.456576,1.453212,0
20.221090,0.043744,0.022305,0.049287,1.104190,1.105515,0.150536,0.457063,-0.263802,0.548780,356.257,6.217853,0.326587,MOVE,0,4,-0.065332,2.456576,1.453212,0
20.266535,0.045445,-0.041962,0.076722,1.108577,1.112021,0.107470,0.794872,-0.674609,1.048078,354.736,6.191307,0.394747,MOVE,0,4,-0.091879,2.456576,1.453212,0
20.316858,0.050322,-0.260165,0.072838,1.172913,1.203626,-0.069986,0.227683,-0.615661,0.660133,353.617,6.171779,0.538536,MOVE,0,4,-0.111406,2.456576,1.453212,0
20.360101,0.043243,0.068612,-0.004583,1.168283,1.170305,0.027447,0.099707,-0.406134,0.419094,352.858,6.158530,0.637957,MOVE,0,4,-0.124656,2.456576,1.453212,0
20.403742,0.043641,0.148377,0.086434,0.987703,1.002519,0.032334,0.582596,-0.817552,1.004417,350.946,6.125170,0.576428,MOVE,0,4,-0.158015,2.456576,1.453212,0
20.454468,0.050726,-0.097994,0.067011,0.936771,0.944263,-0.189411,0.653456,-0.850844,1.089411,349.320,6.096783,0.468622,MOVE,0,4,-0.186403,2.456576,1.453212,0
20.498170,0.043702,-0.011354,-0.026776,1.029619,1.030030,-0.110914,0.474778,-0.570151,0.750192,348.018,6.074055,0.448787,MOVE,0,4,-0.209130,2.456576,1.453212,0
20.548843,0.050673,0.043640,-0.034013,1.007686,1.009204,0.305085,0.202027,-0.701487,0.791187,346.766,6.052209,0.412192,MOVE,0,4,-0.230977,2.456576,1.453212,0
20.593102,0.044259,0.062066,-0.038114,0.946762,0.949560,0.424814,0.014186,-0.679191,0.801230,345.405,6.028451,0.325577,MOVE,0,4,-0.254734,2.456576,1.453212,0
20.640152,0.047050,0.040246,-0.049451,0.952855,0.954985,0.393660,-0.233215,-0.381699,0.595862,344.769,6.017354,0.252506,MOVE,0,4,-0.265831,2.456576,1.453212,0
20.683964,0.043812,0.031518,-0.112411,0.929216,0.936521,0.261408,-0.390818,-0.124525,0.486394,344.701,6.016162,0.170124,MOVE,0,4,-0.267023,2.456576,1.453212,0
20.727439,0.043475,0.100858,-0.075504,1.003056,1.010938,0.218037,-0.278419,-0.111392,0.370763,344.531,6.013201,0.162956,MOVE,0,4,-0.269984,2.456576,1.453212,0
20.771287,0.043848,-0.017032,-0.012061,0.972838,0.973062,0.017978,0.074967,-0.150181,0.168813,344.365,6.010303,0.122416,MOVE,0,4,-0.272883,2.456576,1.453212,0
20.821907,0.050619,-0.169082,0.063612,0.996476,1.012719,-0.179637,-0.358748,0.037660,0.402973,344.529,6.013172,0.121622,MOVE,0,4,-0.270013,2.456576,1.453212,0
20.865617,0.043710,0.090432,0.174325,1.141232,1.158006,-0.009205,-0.400286,-0.299538,0.500037,343.849,6.001293,0.251665,MOVE,0,4,-0.281892,2.456576,1.453212,0
20.909092,0.043475,0.099403,0.378271,0.958947,1.035640,-0.125575,0.258226,-1.439718,1.468073,340.407,5.941224,0.258574,MOVE,0,4,-0.341962,2.456576,1.453212,0
20.959556,0.050464,-0.134772,0.286495,1.022552,1.070446,-0.452388,0.593897,-1.770501,1.921469,336.601,5.874804,0.296119,MOVE,0,4,-0.408382,2.456576,1.453212,0
21.003293,0.043737,-0.143165,0.110228,1.114182,1.128737,-0.210791,0.731952,-1.859688,2.009633,331.933,5.793321,0.382370,MOVE,0,4,-0.489864,2.456576,1.453212,0
21.053793,0.050500,-0.090589,0.033991,1.077627,1.081962,0.153285,0.752416,-2.058524,2.197077,327.568,5.717137,0.417899,MOVE,0,4,-0.566049,2.456576,1.453212,0
21.098420,0.044627,-0.144893,-0.019539,1.023039,1.033434,0.661525,0.635741,-2.167259,2.353464,323.115,5.639428,0.406200,MOVE,0,4,-0.643758,2.456576,1.453212,0
21.141580,0.043160,-0.124652,0.040061,0.956266,0.965188,0.859751,0.319924,-2.296457,2.472900,318.362,5.556471,0.334249,MOVE,0,4,-0.726715,2.456576,1.453212,0
21.185086,0.043506,-0.040481,0.061669,0.947006,0.949875,0.839897,0.366655,-2.373731,2.544496,313.246,5.467177,0.255712,MOVE,0,4,-0.816008,2.456576,1.453212,0
21.228297,0.043211,-0.110089,0.040061,0.946519,0.953741,0.853642,0.242344,-2.280879,2.447416,307.384,5.364870,0.188507,MOVE,0,4,-0.918316,2.456576,1.453212,0
21.276271,0.047974,-0.080715,0.057299,0.939451,0.944652,0.828902,-0.091494,-2.093038,2.253055,301.826,5.267849,0.119843,MOVE,0,4,-1.015336,2.456576,1.453212,0
21.320062,0.043791,0.016971,0.023794,0.985510,0.985943,0.828596,-0.184956,-2.025538,2.196266,295.656,5.160169,0.095208,MOVE,0,4,-1.123017,2.456576,1.453212,0
21.363804,0.043742,0.002667,0.027193,1.026451,1.026815,0.769037,-0.162049,-1.815400,1.978220,289.569,5.053926,0.109820,MOVE,0,4,-1.229260,2.456576,1.453212,0
21.407005,0.043201,-0.046158,-0.014232,1.045460,1.046575,0.430923,-0.375546,-1.403066,1.515033,284.156,4.959464,0.140756,MOVE,0,4,-1.323721,2.456576,1.453212,0
21.450136,0.043130,0.066673,-0.080087,1.014266,1.019605,0.651751,-0.501690,-1.180100,1.438440,278.580,4.862135,0.144325,MOVE,0,4,-1.421051,2.456576,1.453212,0
21.500736,0.050600,-0.035051,0.029863,0.915325,0.916483,0.262630,-0.410060,-1.238438,1.330734,273.478,4.773097,0.054727,MOVE,0,4,-1.510088,2.456576,1.453212,0
21.544326,0.043590,-0.111323,-0.068991,1.040342,1.048553,-0.037916,-0.939375,-0.763796,1.211300,269.428,4.702410,0.092952,MOVE,0,4,-1.580775,2.456576,1.453212,0
21.588492,0.044167,0.124860,-0.143529,1.110283,1.126463,-0.021423,-0.794600,-0.524642,0.952416,266.696,4.654716,0.197473,MOVE,0,4,-1.628469,2.456576,1.453212,0
21.631937,0.043445,0.112980,-0.099385,1.093711,1.104014,-0.021728,-0.382571,-0.491961,0.623585,264.709,4.620043,0.271339,MOVE,0,4,-1.663142,2.456576,1.453212,0
21.679612,0.047675,0.008001,-0.044868,1.086888,1.087843,-0.204377,-0.112569,-0.460806,0.516512,263.120,4.592312,0.323264,MOVE,0,4,-1.690874,2.456576,1.453212,0
21.723145,0.043533,-0.082690,-0.071403,1.091518,1.096972,-0.214761,-0.055453,-0.166980,0.277633,262.281,4.577671,0.378212,MOVE,0,4,-1.705514,2.456576,1.453212,0
21.766964,0.043819,-0.041468,-0.044627,1.051796,1.053558,-0.191549,0.096347,-0.032895,0.216923,261.959,4.572040,0.388593,MOVE,0,4,-1.711146,2.456576,1.453212,0
21.810364,0.043400,-0.086146,-0.038114,0.997451,1.001890,-0.198268,0.132388,0.145783,0.279445,261.925,4.571461,0.351435,MOVE,0,4,-1.711725,2.456576,1.453212,0
21.853494,0.043130,-0.087133,-0.018092,0.974544,0.978598,-0.107860,0.014186,0.277119,0.297708,262.138,4.575169,0.297030,MOVE,0,4,-1.708016,2.456576,1.453212,0
21.897558,0.044064,-0.052823,0.002428,0.967964,0.969407,-0.050133,-0.069197,0.228250,0.243720,262.233,4.576830,0.239793,MOVE,0,4,-1.706355,2.456576,1.453212,0
21.940688,0.043130,-0.105892,0.006555,0.997939,1.003562,0.004234,-0.207558,0.251157,0.325850,262.483,4.581197,0.219020,MOVE,0,4,-1.701988,2.456576,1.453212,0
21.984142,0.043454,0.008970,0.042489,1.005493,1.006431,0.082730,-0.088745,0.219087,0.250437,263.019,4.590539,0.202906,MOVE,0,4,-1.692646,2.456576,1.453212,0
22.031983,0.047841,-0.090836,0.090319,0.961140,0.969639,-0.141152,0.126890,0.179380,0.261156,263.485,4.598683,0.155290,MOVE,0,4,-1.684502,2.456576,1.453212,0
22.075562,0.043578,-0.140943,0.018938,1.112232,1.121287,-0.126491,0.034650,0.205953,0.244167,263.845,4.604967,0.248919,MOVE,0,4,-1.678218,2.456576,1.453212,0
22.118668,0.043106,-0.161677,0.043217,1.027182,1.040726,0.013397,-0.162968,0.227936,0.280522,264.521,4.616767,0.260681,MOVE,0,4,-1.666418,2.456576,1.453212,0
22.172681,0.054013,-0.041468,0.000243,1.029132,1.029967,-0.022644,-0.457405,0.311930,0.554105,265.539,4.634528,0.261583,MOVE,0,4,-1.648657,2.456576,1.453212,0
22.215879,0.043199,-0.009873,0.042731,0.942132,0.943152,-0.125575,-0.386239,0.020852,0.406675,266.824,4.656954,0.184262,MOVE,0,4,-1.626231,2.456576,1.453212,0
22.265191,0.049311,0.000242,-0.003618,0.984779,0.984786,-0.106638,-0.146475,-0.151412,0.236119,268.485,4.685956,0.152143,MOVE,0,4,-1.597229,2.456576,1.453212,0
22.308285,0.043094,-0.079234,0.012868,0.951392,0.954773,-0.124659,0.096955,-0.211887,0.264266,270.092,4.714003,0.096224,MOVE,0,4,-1.569182,2.456576,1.453212,0
22.351608,0.043323,-0.166120,0.007041,0.956998,0.971334,-0.143571,0.062733,0.037962,0.161212,272.411,4.754472,0.060802,MOVE,0,4,-1.528713,2.456576,1.453212,0
22.394993,0.043385,-0.106139,0.019181,0.999888,1.005689,0.038166,-0.054550,0.157362,0.170866,275.067,4.800818,0.059842,MOVE,0,4,-1.482367,2.456576,1.453212,0
22.445393,0.050400,-0.017032,0.021609,1.044485,1.044847,0.198212,-0.046303,0.026331,0.205245,277.135,4.836916,0.094220,MOVE,0,4,-1.446269,2.456576,1.453212,0
22.488854,0.043461,0.027881,0.058270,1.071048,1.072994,0.235781,0.193767,-0.132799,0.332827,278.801,4.865995,0.150493,MOVE,0,4,-1.417190,2.456576,1.453212,0
22.532125,0.043271,-0.045171,0.073566,1.118812,1.122138,0.062600,0.348621,-0.240311,0.428024,280.088,4.888455,0.245367,MOVE,0,4,-1.394731,2.456576,1.453212,0
22.575593,0.043467,-0.081456,0.050258,1.140501,1.144510,-0.198850,0.344345,-0.053387,0.401204,281.469,4.912557,0.350890,MOVE,0,4,-1.370629,2.456576,1.453212,0
22.626115,0.050523,-0.007158,0.000971,1.140014,1.140037,-0.268489,0.156809,0.010754,0.311112,282.584,4.932015,0.441834,MOVE,0,4,-1.351170,2.456576,1.453212,0
22.669536,0.043421,-0.039987,-0.028947,1.088838,1.089956,-0.248635,0.173303,-0.066215,0.310222,283.349,4.945374,0.478611,MOVE,0,4,-1.337811,2.456576,1.453212,0
22.712831,0.043294,-0.047886,-0.028947,1.000619,1.002183,-0.088276,0.016004,0.078859,0.119447,284.205,4.960314,0.432714,MOVE,0,4,-1.322871,2.456576,1.453212,0
22.764182,0.051352,0.045822,-0.017609,1.015485,1.016671,-0.113609,0.110384,0.177796,0.238124,285.252,4.978579,0.404446,MOVE,0,4,-1.304607,2.456576,1.453212,0
22.807285,0.043103,0.057217,-0.031842,1.014266,1.016378,0.026584,0.311053,0.218419,0.381009,286.403,4.998673,0.378742,MOVE,0,4,-1.284512,2.456576,1.453212,0
22.857236,0.049951,-0.004443,-0.015680,0.963577,0.963715,0.036664,0.337626,0.419699,0.539891,287.831,5.023605,0.308211,MOVE,0,4,-1.259580,2.456576,1.453212,0
22.908389,0.051153,-0.132798,-0.060306,0.926535,0.937945,-0.002737,0.003177,0.648163,0.648176,289.415,5.051247,0.221540,MOVE,0,4,-1.231939,2.456576,1.453212,0
22.951760,0.043371,0.008970,-0.019539,0.986241,0.986475,0.180828,-0.492235,0.536680,0.750346,291.240,5.083096,0.187214,MOVE,0,4,-1.200089,2.456576,1.453212,0
23.003195,0.051434,-0.013082,0.048559,0.869754,0.871207,0.011313,-0.436341,0.234607,0.495542,292.476,5.104667,0.052579,MOVE,0,4,-1.178518,2.456576,1.453212,0
23.046608,0.043414,-0.060968,-0.013991,0.898023,0.900199,-0.253497,-0.261328,0.145421,0.392046,293.768,5.127223,-0.042500,MOVE,0,4,-1.155962,2.456576,1.453212,0
23.090474,0.043866,-0.069854,-0.061271,0.950905,0.955434,-0.147512,-0.185581,0.080363,0.250316,295.197,5.152164,-0.078360,MOVE,0,4,-1.131021,2.456576,1.453212,0
23.141212,0.050738,-0.076272,-0.059100,0.962115,0.966942,-0.072376,-0.210015,0.143283,0.264338,297.150,5.186240,-0.100276,MOVE,0,4,-1.096946,2.456576,1.453212,0
23.184884,0.043672,-0.051589,-0.027741,0.971619,0.973383,0.046437,-0.257663,0.080058,0.273781,299.283,5.223475,-0.114204,MOVE,0,4,-1.059711,2.456576,1.453212,0
23.228321,0.043437,0.000727,-0.044386,1.004762,1.005742,0.080028,-0.163576,0.038516,0.186132,301.335,5.259294,-0.097615,MOVE,0,4,-1.023891,2.456576,1.453212,0
23.279637,0.051316,0.006061,-0.017368,1.028157,1.028322,0.109333,0.020301,-0.120601,0.164044,302.846,5.285654,-0.062364,MOVE,0,4,-0.997532,2.456576,1.453212,0
23.331465,0.051828,0.024729,-0.035460,1.125636,1.126466,0.051606,0.247848,-0.163667,0.301461,304.215,5.309559,0.057691,MOVE,0,4,-0.973627,2.456576,1.453212,0
23.382084,0.050619,0.006061,-0.037872,1.136602,1.137249,-0.013146,0.466538,-0.231778,0.521106,305.262,5.327827,0.175446,MOVE,0,4,-0.955358,2.456576,1.453212,0
23.425718,0.043634,-0.114038,0.003156,1.149031,1.154680,0.049773,0.305881,-0.144119,0.341776,306.174,5.343742,0.297114,MOVE,0,4,-0.939443,2.456576,1.453212,0
23.480083,0.054365,-0.066646,-0.008202,1.114426,1.116447,-0.243137,0.091162,0.131992,0.291286,307.618,5.368939,0.372204,MOVE,0,4,-0.914247,2.456576,1.453212,0
23.519325,0.039243,0.106191,-0.036184,1.147325,1.152797,-0.092245,-0.004133,0.155802,0.181109,308.849,5.390428,0.472501,MOVE,0,4,-0.892757,2.456576,1.453212,0
23.561392,0.042066,0.151286,0.027193,0.966502,0.978648,0.079103,0.524265,-0.261113,0.591009,308.813,5.389812,0.406034,MOVE,0,4,-0.893373,2.456576,1.453212,0
23.614943,0.053551,-0.048873,0.012382,0.977468,0.978767,-0.138976,0.452183,0.045236,0.475216,309.478,5.401402,0.346322,MOVE,0,4,-0.881783,2.456576,1.453212,0
23.664402,0.049459,0.018426,0.029378,0.999401,1.000002,-0.037267,0.256095,0.145418,0.296850,310.134,5.412866,0.311692,MOVE,0,4,-0.870319,2.456576,1.453212,0
23.708070,0.043668,0.018668,0.025008,0.976250,0.976748,0.007020,0.145529,0.233077,0.274869,310.424,5.417930,0.259596,MOVE,0,4,-0.865256,2.456576,1.453212,0
23.751790,0.043719,0.000242,0.039090,0.910695,0.911534,-0.054066,-0.142494,0.304854,0.340828,311.027,5.428447,0.154017,MOVE,0,4,-0.854738,2.456576,1.453212,0
23.795521,0.043732,0.058187,-0.042697,0.999644,1.002246,0.095901,-0.188004,0.268202,0.341284,311.468,5.436144,0.140637,MOVE,0,4,-0.847041,2.456576,1.453212,0
23.839034,0.043512,0.064491,-0.025329,0.996964,0.999369,0.163402,-0.158682,0.136560,0.265573,311.709,5.440343,0.126005,MOVE,0,4,-0.842842,2.456576,1.453212,0
23.882945,0.043911,-0.010614,-0.008202,0.938233,0.938329,-0.023523,-0.127528,0.343644,0.367298,312.570,5.455381,0.057900,MOVE,0,4,-0.827804,2.456576,1.453212,0
23.930017,0.047071,-0.021968,-0.004101,0.984292,0.984545,0.043978,-0.204191,0.621893,0.656033,314.062,5.481411,0.038201,MOVE,1,5,-0.801775,2.839064,1.057986,0
23.973977,0.043960,0.007758,-0.052587,1.001594,1.003004,0.077575,-0.212438,0.649687,0.687925,315.765,5.511144,0.037084,MOVE,0,5,-0.772042,2.839064,1.057986,0
24.017929,0.043952,-0.014316,-0.082258,1.027913,1.031299,0.012518,-0.149824,0.896171,0.908695,317.966,5.549546,0.061544,MOVE,0,5,-0.733639,2.839064,1.057986,0
24.061311,0.043383,0.008728,-0.113859,1.085426,1.091416,0.025957,-0.249396,1.208934,1.234663,321.165,5.605390,0.137664,MOVE,0,5,-0.677795,2.839064,1.057986,0
24.105703,0.044391,0.099403,-0.083947,1.107359,1.114976,-0.007640,-0.110118,1.345463,1.349983,325.321,5.677918,0.227376,MOVE,0,5,-0.605267,2.839064,1.057986,0
24.156272,0.050570,-0.017032,-0.047763,1.054964,1.056182,-0.318265,-0.039258,1.636234,1.667362,329.538,5.751519,0.255202,MOVE,0,5,-0.531666,2.839064,1.057986,0
24.199962,0.043689,0.040004,-0.092148,1.058375,1.063132,-0.273061,-0.262224,1.827435,1.866238,334.119,5.831478,0.286501,MOVE,0,5,-0.451707,2.839064,1.057986,0
24.244867,0.044906,0.116132,-0.081293,1.022796,1.032573,-0.191511,-0.017572,1.737943,1.748552,337.878,5.897083,0.287166,MOVE,0,5,-0.386102,2.839064,1.057986,0
24.284688,0.039821,0.091645,-0.056206,0.939208,0.945341,-0.181431,0.056953,1.741609,1.751959,342.690,5.981073,0.209256,MOVE,0,5,-0.302112,2.839064,1.057986,0
24.335073,0.050385,0.044368,-0.022916,0.949443,0.950755,-0.311851,0.151027,1.758713,1.792521,346.955,6.055499,0.144010,MOVE,0,5,-0.227686,2.839064,1.057986,0
24.378759,0.043686,0.007516,-0.060306,1.003544,1.005382,-0.299023,0.034046,1.878748,1.902700,351.349,6.132188,0.134453,MOVE,0,5,-0.150997,2.839064,1.057986,0
24.422029,0.043270,0.012607,-0.043421,1.047409,1.048384,-0.082166,-0.221601,1.934031,1.948419,356.619,6.224181,0.164554,MOVE,0,5,-0.059004,2.839064,1.057986,0
24.472503,0.050474,0.069824,-0.024123,1.047896,1.050497,-0.116680,-0.391422,2.076668,2.116454,1.258,0.021963,0.193546,MOVE,0,5,0.021963,2.839064,1.057986,0
24.515799,0.043296,0.054065,0.023794,1.047653,1.049317,-0.159440,-0.191974,1.902572,1.918868,5.500,0.095987,0.218576,MOVE,0,5,0.095987,2.839064,1.057986,0
24.559141,0.043342,0.000485,0.013839,1.005250,1.005345,-0.228468,-0.076521,1.776123,1.792391,9.257,0.161569,0.201529,MOVE,0,5,0.161569,2.839064,1.057986,0
24.602605,0.043464,0.002909,0.006313,0.992090,0.992114,-0.211364,-0.040174,1.636845,1.650924,13.155,0.229593,0.174279,MOVE,0,5,0.229593,2.839064,1.057986,0
24.652543,0.049938,0.015032,0.023794,0.967233,0.967642,-0.146307,-0.093930,1.286514,1.298209,16.182,0.282436,0.127729,MOVE,0,5,0.282436,2.839064,1.057986,0
24.702971,0.050428,0.012122,0.120668,0.914107,0.922117,-0.232133,-0.011463,0.913886,0.942977,17.741,0.309642,0.044861,MOVE,0,5,0.309642,2.839064,1.057986,0
24.746502,0.043531,-0.065658,0.036419,0.923367,0.926415,-0.179904,-0.038647,0.579132,0.607662,18.469,0.322339,-0.025852,MOVE,1,6,0.322339,3.360737,1.232219,0
24.789778,0.043276,-0.104905,-0.033530,0.956023,0.962345,-0.043987,-0.250006,0.331732,0.417713,18.695,0.326294,-0.057155,MOVE,0,6,0.326294,3.360737,1.232219,0
24.832615,0.042837,-0.060722,-0.000482,0.952124,0.954058,0.191196,-0.254893,0.163133,0.357965,18.599,0.324619,-0.092788,MOVE,0,6,0.324619,3.360737,1.232219,0
24.875828,0.043213,-0.066646,0.017724,0.959191,0.961667,0.198832,-0.224655,0.102657,0.317085,18.279,0.319034,-0.118009,MOVE,0,6,0.319034,3.360737,1.232219,0
24.919106,0.043278,-0.109348,0.000728,0.973082,0.979206,0.030226,-0.039860,0.065078,0.082083,17.934,0.313010,-0.124922,MOVE,0,6,0.313010,3.360737,1.232219,0
24.962406,0.043300,-0.179943,-0.045592,1.046678,1.063011,-0.020781,-0.147367,0.228172,0.272418,17.940,0.313109,-0.055720,MOVE,0,6,0.313109,3.360737,1.232219,0
25.007061,0.044656,-0.171798,-0.038596,1.049359,1.064029,-0.004898,-0.335819,0.358287,0.491089,18.292,0.319248,0.007478,MOVE,0,6,0.319248,3.360737,1.232219,0
25.050423,0.043361,-0.083184,-0.065613,1.111745,1.116782,0.062603,-0.474180,0.243444,0.536685,18.406,0.321243,0.111834,MOVE,0,6,0.321243,3.360737,1.232219,0
25.101013,0.050590,-0.004937,-0.076469,1.122224,1.124837,0.247084,-0.417370,-0.134987,0.503458,17.567,0.306595,0.213004,MOVE,0,6,0.306595,3.360737,1.232219,0
25.150940,0.049927,-0.059734,-0.001930,1.003300,1.005078,0.273962,-0.115297,-0.259298,0.394441,16.221,0.283116,0.196274,MOVE,0,6,0.283116,3.360737,1.232219,0
25.201420,0.050480,-0.119468,-0.002412,0.973813,0.981117,0.243419,-0.143091,0.135321,0.313113,15.873,0.277033,0.159652,MOVE,0,6,0.277033,3.360737,1.232219,0
25.244714,0.043294,-0.055044,0.037876,0.926292,0.928698,0.089481,0.088121,0.322857,0.346422,16.028,0.279735,0.079515,MOVE,0,6,0.279735,3.360737,1.232219,0
25.287763,0.043049,-0.084665,-0.052346,0.986729,0.991737,-0.079729,0.201742,0.404712,0.459183,16.323,0.284890,0.064126,MOVE,0,6,0.284890,3.360737,1.232219,0
25.330762,0.043000,-0.094785,-0.014232,0.976737,0.981428,-0.043077,0.141877,0.330187,0.361951,16.474,0.287525,0.040999,MOVE,0,6,0.287525,3.360737,1.232219,0
25.374134,0.043372,-0.068867,-0.055964,1.014023,1.017898,-0.012534,0.225566,0.157312,0.275289,16.268,0.283925,0.053008,MOVE,0,6,0.283925,3.360737,1.232219,0
25.417862,0.043728,-0.072323,-0.069473,1.035468,1.040313,0.034503,0.334605,0.047051,0.339654,15.745,0.274805,0.083989,MOVE,0,6,0.274805,3.360737,1.232219,0
25.461390,0.043528,-0.027646,-0.105657,1.132947,1.138199,0.286790,0.420126,-0.160032,0.533259,14.743,0.257305,0.199968,MOVE,0,6,0.257305,3.360737,1.232219,0
25.505100,0.043709,-0.045171,-0.053070,1.197526,1.199552,0.540299,0.502593,-0.383609,0.831672,13.377,0.233480,0.359569,MOVE,0,6,0.233480,3.360737,1.232219,0
25.548265,0.043165,-0.066646,0.091047,1.164627,1.170080,0.274267,0.283598,-0.426981,0.581346,11.952,0.208600,0.476684,MOVE,0,6,0.208600,3.360737,1.232219,0
25.591930,0.043665,-0.082443,-0.015680,1.148056,1.151119,-0.209232,-0.056043,-0.039997,0.220270,11.447,0.199788,0.565023,MOVE,0,6,0.199788,3.360737,1.232219,0
25.642580,0.050650,0.176743,-0.122543,1.115401,1.135946,-0.018642,0.011763,0.197018,0.198248,11.369,0.198427,0.630872,MOVE,0,6,0.198427,3.360737,1.232219,0
25.686749,0.044169,0.055763,0.023794,0.870485,0.872594,0.020758,0.549935,-0.127351,0.564870,10.701,0.186760,0.453119,MOVE,0,6,0.186760,3.360737,1.232219,0
25.736955,0.050206,-0.106139,0.082307,0.925804,0.935496,-0.202208,0.441507,0.060490,0.489362,10.439,0.182194,0.349754,MOVE,0,6,0.182194,3.360737,1.232219,0
25.781061,0.044106,-0.086886,0.020637,0.957729,0.961883,-0.132569,0.259469,0.172584,0.338650,10.538,0.183919,0.280473,MOVE,0,6,0.183919,3.360737,1.232219,0
25.831672,0.050611,-0.097006,0.065554,0.956510,0.963649,0.049774,-0.094833,0.242222,0.264844,10.749,0.187610,0.219710,MOVE,0,6,0.187610,3.360737,1.232219,0
25.875570,0.043897,-0.051095,0.056813,0.997451,1.000374,0.055272,-0.403625,0.321024,0.518676,11.186,0.195232,0.198075,MOVE,0,6,0.195232,3.360737,1.232219,0
25.922586,0.047016,0.065703,0.116055,1.025720,1.034354,0.134685,-0.463490,0.204654,0.524258,11.205,0.195560,0.209186,MOVE,0,6,0.195560,3.360737,1.232219,0
25.966043,0.043457,0.059399,0.005584,0.963577,0.965423,-0.116381,-0.120184,0.066599,0.180067,10.982,0.191672,0.157148,MOVE,0,6,0.191672,3.360737,1.232219,0
26.010176,0.044134,-0.073063,0.034719,0.910451,0.914038,-0.297808,0.038336,0.136848,0.329980,10.855,0.189447,0.064067,MOVE,0,6,0.189447,3.360737,1.232219,0
26.053793,0.043617,-0.058994,0.035205,0.918006,0.920573,-0.283453,-0.029165,0.136543,0.315974,10.793,0.188378,-0.013824,MOVE,1,7,0.188378,3.901007,1.335215,0
26.098018,0.044225,-0.112310,-0.023399,0.941157,0.948123,-0.166472,-0.081089,0.174111,0.254171,10.870,0.189724,-0.059130,MOVE,0,7,0.189724,3.901007,1.335215,0
26.141525,0.043507,-0.118234,0.003156,0.973813,0.980969,-0.052240,-0.174551,0.198545,0.269476,11.120,0.194087,-0.070345,MOVE,0,7,0.194087,3.901007,1.335215,0
26.192203,0.050678,-0.062449,0.004370,0.999157,1.001116,-0.083383,0.034063,0.052847,0.104431,11.037,0.192625,-0.062306,MOVE,0,7,0.192625,3.901007,1.335215,0
26.235631,0.043428,-0.128601,-0.008684,1.076409,1.084099,-0.182637,0.023980,0.141106,0.232039,11.231,0.196009,0.019613,MOVE,0,7,0.196009,3.901007,1.335215,0
26.283727,0.048096,-0.014810,-0.075504,1.242123,1.244504,-0.168588,0.243586,0.006104,0.296299,11.121,0.194090,0.237705,MOVE,0,7,0.194090,3.901007,1.335215,0
26.326542,0.042815,-0.109348,-0.051140,1.258694,1.264470,-0.167366,0.188303,-0.061396,0.259305,10.813,0.188722,0.451958,MOVE,0,7,0.188722,3.901007,1.335215,0
26.369264,0.042722,-0.044924,-0.113859,1.239198,1.245229,0.034220,-0.255185,-0.003669,0.257495,10.684,0.186464,0.627468,MOVE,0,7,0.186464,3.901007,1.335215,0
26.412589,0.043324,0.159287,0.034477,1.029132,1.041956,-0.021674,-0.114075,-0.221748,0.250310,10.206,0.178125,0.602482,MOVE,0,7,0.178125,3.901007,1.335215,0
26.455781,0.043192,0.098191,0.044431,0.915325,0.921649,-0.329551,0.277184,-0.123094,0.447869,9.796,0.170973,0.471717,MOVE,0,7,0.170973,3.901007,1.335215,0
26.499010,0.043229,0.070067,-0.065613,0.965771,0.970529,-0.422402,0.759767,-0.032075,0.869884,9.623,0.167959,0.398022,MOVE,0,7,0.167959,3.901007,1.335215,0
26.542163,0.043152,-0.101943,-0.116995,1.017191,1.028959,0.059571,0.481824,0.273358,0.557160,10.192,0.177882,0.384283,MOVE,0,7,0.177882,3.901007,1.335215,0
26.592746,0.050584,-0.087627,-0.080328,1.002325,1.009350,0.250466,-0.008396,0.492353,0.552463,11.454,0.199903,0.354269,MOVE,0,7,0.199903,3.901007,1.335215,0
26.635926,0.043179,0.044852,-0.046798,1.020359,1.022416,0.240998,-0.461047,0.456618,0.692202,12.576,0.219500,0.339017,MOVE,0,7,0.219500,3.901007,1.335215,0
26.679270,0.043344,0.134557,-0.009890,0.961384,0.970805,0.088587,-0.377053,-0.017719,0.387725,12.586,0.219668,0.278840,MOVE,0,7,0.219668,3.901007,1.335215,0
26.722456,0.043185,0.046792,-0.071885,0.963577,0.967387,-0.251665,0.153484,-0.302382,0.422289,11.741,0.204915,0.221604,MOVE,0,7,0.204915,3.901007,1.335215,0
26.772979,0.050524,-0.117247,-0.056447,0.930678,0.939731,-0.257468,0.268632,-0.295052,0.474878,10.938,0.190896,0.145202,MOVE,0,7,0.190896,3.901007,1.335215,0
26.816592,0.043613,-0.150076,-0.054758,0.971376,0.984425,-0.144153,0.151040,-0.268174,0.339868,10.325,0.180198,0.116664,MOVE,0,7,0.180198,3.901007,1.335215,0
26.859890,0.043298,-0.132551,-0.025329,0.971376,0.980705,0.108440,-0.014504,-0.368050,0.383967,9.406,0.164165,0.087632,MOVE,0,7,0.164165,3.901007,1.335215,0
26.910841,0.050951,-0.081949,-0.030394,0.995745,0.999574,0.259629,-0.129958,-0.487475,0.567387,8.342,0.145600,0.078486,MOVE,0,7,0.145600,3.901007,1.335215,0
26.954037,0.043196,-0.028139,0.017481,0.982098,0.982657,0.253826,-0.075285,-0.803597,0.846088,6.619,0.115526,0.055028,MOVE,0,7,0.115526,3.901007,1.335215,0
26.997290,0.043253,-0.023449,0.010926,1.025233,1.025559,0.179300,0.130271,-1.015262,1.039171,3.934,0.068660,0.072528,MOVE,0,7,0.068660,3.901007,1.335215,0
27.048823,0.051533,-0.012342,0.009469,1.043754,1.043869,0.167694,0.323304,-1.179890,1.234823,1.300,0.022691,0.104758,MOVE,0,7,0.022691,3.901007,1.335215,0
27.092910,0.044086,-0.077260,0.066040,1.045947,1.050874,0.190907,0.443950,-1.390944,1.472502,358.303,6.253565,0.140069,MOVE,0,7,-0.029620,3.901007,1.335215,0
27.136230,0.043320,-0.199196,0.031077,1.150005,1.167543,0.096528,-0.073758,-1.397358,1.402629,354.722,6.191060,0.276851,MOVE,0,7,-0.092125,3.901007,1.335215,0
27.187380,0.051150,0.099645,0.065797,1.004275,1.011349,0.399212,0.025813,-1.564430,1.614769,351.440,6.133782,0.259379,MOVE,0,7,-0.149403,3.901007,1.335215,0
27.230735,0.043355,0.010668,0.155873,0.963334,0.975921,0.111800,0.211516,-1.875971,1.891165,346.605,6.049390,0.211770,MOVE,0,7,-0.233795,3.901007,1.335215,0
27.282146,0.051411,-0.010120,0.097360,1.027670,1.032321,0.032387,0.423792,-1.980429,2.025524,341.682,5.963473,0.219682,MOVE,0,7,-0.319713,3.901007,1.335215,0
27.332477,0.050331,-0.007899,0.057056,1.067392,1.068945,0.371112,0.520308,-2.260816,2.349412,336.338,5.870197,0.259765,MOVE,0,7,-0.412988,3.901007,1.335215,0
27.382851,0.050375,-0.060968,0.176025,1.053501,1.069844,0.510389,0.400579,-2.178961,2.273506,331.971,5.793987,0.296648,MOVE,0,7,-0.489199,3.901007,1.335215,0
27.426021,0.043169,0.002182,0.157087,1.049846,1.061536,0.594689,0.363316,-2.289222,2.392946,327.350,5.713329,0.322365,MOVE,0,7,-0.569857,3.901007,1.335215,0
27.469142,0.043122,-0.004196,0.199575,1.048628,1.067459,0.540322,0.323915,-2.366496,2.448912,322.560,5.629737,0.350842,MOVE,0,7,-0.653448,3.901007,1.335215,0
27.512389,0.043247,0.050429,0.124553,1.069342,1.077751,0.463047,0.398746,-2.537233,2.609782,317.234,5.536773,0.385734,MOVE,0,7,-0.746412,3.901007,1.335215,0
27.555489,0.043099,0.050186,0.135721,1.057644,1.067497,0.569338,0.490070,-2.782801,2.882411,310.742,5.423467,0.407908,MOVE,0,7,-0.859719,3.901007,1.335215,0
27.598961,0.043473,0.007516,0.083521,1.032544,1.035943,0.748627,0.457695,-2.968198,3.095178,303.082,5.289771,0.399466,MOVE,0,7,-0.993414,3.901007,1.335215,0
27.642218,0.043257,-0.042949,0.071381,0.979174,0.982711,0.843005,0.426846,-3.062882,3.205324,293.613,5.124509,0.343960,MOVE,0,7,-1.158676,3.901007,1.335215,0
27.685628,0.043410,-0.095772,0.028407,1.006712,1.011656,0.986864,0.225566,-2.884815,3.057276,283.048,4.940127,0.320054,MOVE,0,7,-1.343058,3.901007,1.335215,0
27.728718,0.043090,-0.079234,0.043703,1.013048,1.017081,0.975258,-0.002592,-2.732710,2.901523,272.128,4.749538,0.303421,MOVE,0,7,-1.533648,3.901007,1.335215,0
27.771931,0.043213,0.014547,0.024036,1.011586,1.011976,0.858277,0.067963,-2.450490,2.597337,260.695,4.549979,0.283857,MOVE,0,7,-1.733207,3.901007,1.335215,0
27.822461,0.050529,-0.031348,0.027678,0.949930,0.950850,0.686013,0.003822,-2.195148,2.299849,251.018,4.381091,0.211237,MOVE,0,7,-1.902094,3.901007,1.335215,0
27.865942,0.043482,-0.131070,0.004127,0.958460,0.967389,0.451441,-0.160196,-1.890021,1.949780,242.346,4.229731,0.160763,MOVE,0,7,-2.053454,3.901007,1.335215,0
27.909345,0.043403,-0.162418,-0.046074,0.999401,1.013560,0.452662,-0.169359,-1.536636,1.610849,234.035,4.084673,0.156891,MOVE,0,7,-2.198512,3.901007,1.335215,0
27.959571,0.050225,-0.066646,0.016024,0.988434,0.990808,0.553455,-0.371250,-1.636512,1.767006,225.793,3.940830,0.132929,MOVE,0,7,-2.342356,3.901007,1.335215,0
28.009888,0.050317,0.000242,0.121396,0.939451,0.947262,0.388522,-0.158668,-1.734861,1.784900,218.203,3.808354,0.072173,MOVE,0,7,-2.474831,3.901007,1.335215,0
28.054302,0.044414,-0.072323,0.042974,0.989165,0.992736,0.359505,-0.256101,-1.692406,1.749020,210.885,3.680631,0.058418,MOVE,0,7,-2.602555,3.901007,1.335215,0
28.097683,0.043381,-0.024437,0.058270,1.027182,1.029124,0.487787,-0.466239,-1.728142,1.855206,203.739,3.555914,0.078788,MOVE,0,7,-2.727272,3.901007,1.335215,0
28.140643,0.042960,-0.049861,0.092990,1.022065,1.027497,0.373555,-0.421340,-1.743108,1.831802,196.927,3.437030,0.095656,MOVE,0,7,-2.846155,3.901007,1.335215,0
28.183630,0.042987,-0.144893,0.008255,1.033518,1.043658,0.235805,-0.501669,-1.449587,1.551960,190.878,3.331450,0.125383,MOVE,0,7,-2.951735,3.901007,1.335215,0
28.226883,0.043253,-0.041715,-0.012303,1.095174,1.096037,0.367752,-0.502891,-1.087650,1.253444,185.549,3.238437,0.199278,MOVE,0,7,-3.044749,3.901007,1.335215,0
28.270278,0.043395,-0.090095,0.012140,1.031569,1.035567,0.164945,-0.383772,-0.802070,0.904326,180.684,3.153529,0.211360,MOVE,0,7,-3.129656,3.901007,1.335215,0
28.320704,0.050426,-0.164146,0.024765,0.998182,1.011892,0.067817,-0.506251,-0.554364,0.753796,176.852,3.086647,0.200927,MOVE,0,7,3.086647,3.901007,1.335215,0
28.363702,0.042999,-0.075038,0.045159,0.983804,0.987695,0.028416,-0.548706,-0.564138,0.787488,172.929,3.018176,0.169759,MOVE,0,7,3.018176,3.901007,1.335215,0
28.407232,0.043530,-0.055538,0.029863,1.002081,1.004063,0.053157,-0.323907,-0.490529,0.590221,169.088,2.951150,0.156440,MOVE,0,7,2.951150,3.901007,1.335215,0
28.450475,0.043243,-0.046652,0.096146,0.984535,0.990318,-0.042749,-0.330016,-0.562306,0.653396,164.894,2.877937,0.132083,MOVE,0,7,2.877937,3.901007,1.335215,0
28.500805,0.050330,-0.049367,0.055842,1.028401,1.031098,-0.023507,-0.169053,-0.485947,0.515050,161.011,2.810170,0.146863,MOVE,0,7,2.810170,3.901007,1.335215,0
28.544000,0.043195,-0.042949,0.053172,1.056426,1.058635,-0.014039,-0.137288,-0.499692,0.518399,157.174,2.743196,0.184948,MOVE,0,7,2.743196,3.901007,1.335215,0
28.587314,0.043314,-0.061956,0.051472,1.029375,1.032522,-0.029921,-0.056959,-0.526570,0.530486,153.380,2.676985,0.195723,MOVE,0,7,2.676985,3.901007,1.335215,0
28.630484,0.043170,-0.126874,0.042003,1.022552,1.031249,-0.134685,-0.093611,-0.416309,0.447455,149.943,2.616997,0.204274,MOVE,0,7,2.616997,3.901007,1.335215,0
28.673744,0.043260,-0.093798,0.036662,1.063980,1.068736,-0.066268,-0.215479,-0.392485,0.452622,146.423,2.555565,0.245709,MOVE,0,7,2.555565,3.901007,1.335215,0
28.724077,0.050333,-0.032089,0.024522,1.056182,1.056954,-0.072376,-0.135150,-0.374770,0.404915,143.049,2.496675,0.272397,MOVE,0,7,2.496675,3.901007,1.335215,0
28.774281,0.050204,-0.056772,0.055114,1.013779,1.016862,-0.212875,-0.022445,-0.293525,0.363286,140.132,2.445770,0.260333,MOVE,0,7,2.445770,3.901007,1.335215,0
28.817464,0.043183,-0.105152,0.045402,0.969426,0.976169,-0.297480,-0.061541,-0.097437,0.319023,137.655,2.402538,0.212851,MOVE,0,7,2.402538,3.901007,1.335215,0
28.860666,0.043202,-0.044924,0.006798,0.974300,0.975359,-0.258996,-0.081089,-0.178988,0.325101,135.143,2.358687,0.169389,MOVE,0,7,2.358687,3.901007,1.335215,0
28.904174,0.043508,-0.095772,-0.029430,0.968939,0.974105,-0.200353,-0.124765,-0.124315,0.266762,132.760,2.317096,0.129145,MOVE,0,7,2.317096,3.901007,1.335215,0
28.957923,0.053750,-0.047392,-0.007960,0.965771,0.966965,-0.099531,-0.030365,-0.077567,0.129789,130.609,2.279550,0.086499,MOVE,0,7,2.279550,3.901007,1.335215,0
29.001175,0.043252,-0.078000,0.006070,1.061300,1.064179,-0.122744,0.141899,-0.100169,0.212686,128.495,2.242663,0.135611,MOVE,0,7,2.242663,3.901007,1.335215,0
29.044584,0.043408,-0.032089,-0.010373,1.164140,1.164628,-0.164894,0.325769,-0.148733,0.394255,126.311,2.204551,0.270215,MOVE,0,7,2.204551,3.901007,1.335215,0
29.088079,0.043495,-0.017032,-0.011579,1.225064,1.225237,-0.194826,0.489176,-0.221426,0.571209,124.000,2.164204,0.445907,MOVE,0,7,2.164204,3.901007,1.335215,0
29.138052,0.049972,-0.058253,-0.033772,1.230425,1.232267,-0.095866,0.338597,-0.218066,0.413994,121.952,2.128465,0.610356,MOVE,0,7,2.128465,3.901007,1.335215,0
29.188163,0.050112,-0.058747,-0.050175,1.158535,1.161108,-0.143819,-0.002876,-0.023811,0.145805,120.572,2.104374,0.694318,MOVE,0,7,2.104374,3.901007,1.335215,0
29.231376,0.043213,0.088978,0.033991,0.998426,1.002959,-0.264160,0.265599,-0.071458,0.381352,119.234,2.081020,0.627549,MOVE,0,7,2.081020,3.901007,1.335215,0
29.274655,0.043279,-0.006418,-0.046557,0.996233,0.997341,-0.415349,0.475431,-0.011288,0.631409,118.102,2.061271,0.562401,MOVE,0,7,2.061271,3.901007,1.335215,0
29.317773,0.043117,-0.039247,-0.049210,0.963334,0.965388,-0.304477,0.318439,0.271237,0.517377,117.770,2.055471,0.475010,MOVE,0,7,2.055471,3.901007,1.335215,0
29.361053,0.043281,0.012365,-0.054517,1.057644,1.059121,-0.034780,0.333405,0.530855,0.627834,118.418,2.066788,0.480717,MOVE,0,7,2.066788,3.901007,1.335215,0
29.411505,0.050452,-0.059487,-0.018816,0.937745,0.939819,0.023558,0.069206,0.767565,0.771039,119.451,2.084810,0.378482,MOVE,0,7,2.084810,3.901007,1.335215,0
29.454724,0.043219,0.006061,-0.020022,0.950418,0.950648,0.019587,-0.625959,0.878132,1.078575,120.791,2.108197,0.296217,MOVE,0,7,2.108197,3.901007,1.335215,0
29.498092,0.043368,0.146922,-0.057412,0.948468,0.961496,0.027223,-0.311363,0.706784,0.772808,121.699,2.124049,0.231942,MOVE,0,7,2.124049,3.901007,1.335215,0
29.541275,0.043184,-0.014316,0.021366,0.914594,0.914956,-0.044554,-0.247528,0.399213,0.471833,122.020,2.129654,0.132208,MOVE,0,7,2.129654,3.901007,1.335215,0
29.592406,0.051131,-0.038753,-0.028706,0.958460,0.959672,-0.043943,-0.297313,0.340265,0.453989,121.903,2.127610,0.082692,MOVE,0,7,2.127610,3.901007,1.335215,0
29.635604,0.043198,-0.064177,-0.043179,0.986972,0.989999,0.018976,-0.240808,0.214427,0.322998,121.504,2.120651,0.065422,MOVE,0,7,2.120651,3.901007,1.335215,0
29.679258,0.043654,-0.058500,-0.056929,0.936527,0.940078,0.088921,-0.217901,0.180218,0.296422,120.971,2.111336,0.004949,MOVE,1,8,2.111336,3.617978,1.806802,0
29.722348,0.043089,-0.059487,-0.019057,0.979418,0.981408,0.071816,-0.162923,0.120659,0.215081,120.182,2.097568,-0.012279,MOVE,0,8,2.097568,3.617978,1.806802,0
29.765296,0.042948,-0.096513,-0.018092,0.960897,0.965901,-0.080283,-0.061187,0.034208,0.106581,119.208,2.080580,-0.041740,MOVE,0,8,2.080580,3.617978,1.806802,0
29.808580,0.043285,-0.095279,-0.045592,0.972838,0.978555,-0.077818,0.061900,-0.013442,0.100340,118.111,2.061434,-0.056867,MOVE,0,8,2.061434,3.617978,1.806802,0
29.851909,0.043329,-0.086392,-0.039320,0.989409,0.993952,-0.014281,0.160538,-0.134685,0.210039,116.704,2.036869,-0.056623,MOVE,0,8,2.036869,3.617978,1.806802,0
29.900324,0.048415,-0.073310,-0.037390,1.006224,1.009584,0.010459,0.355404,-0.332911,0.487084,114.879,2.005021,-0.042335,MOVE,0,8,2.005021,3.617978,1.806802,0
29.943699,0.043375,-0.105399,-0.035701,1.043266,1.049184,-0.086058,0.331275,-0.437063,0.555134,112.882,1.970159,0.006164,MOVE,0,8,1.970159,3.617978,1.806802,0
29.994537,0.050838,-0.167108,-0.046798,1.173157,1.185922,0.041613,0.238729,-0.416294,0.481688,111.435,1.944912,0.172878,MOVE,0,8,1.944912,3.617978,1.806802,0
30.038456,0.043919,-0.114285,-0.062719,1.122224,1.129771,0.114612,0.367316,-0.279765,0.475737,110.609,1.930496,0.272384,MOVE,0,8,1.930496,3.617978,1.806802,0
30.081762,0.043306,-0.205367,-0.201665,1.203619,1.237555,0.204714,-0.613733,0.461825,0.794896,111.645,1.948581,0.458945,MOVE,0,8,1.948581,3.617978,1.806802,0
30.125799,0.044037,0.310088,0.040304,0.999157,1.046945,0.351322,-0.146116,0.280093,0.472471,112.686,1.966744,0.455301,MOVE,0,8,1.966744,3.617978,1.806802,0
30.169142,0.043343,0.090675,-0.045109,0.986241,0.991427,0.135076,0.254917,0.003371,0.288512,112.860,1.969783,0.402055,MOVE,0,8,1.969783,3.617978,1.806802,0
30.212732,0.043590,0.055763,0.044188,0.901922,0.904724,-0.033523,0.392056,-0.136212,0.416396,112.863,1.969825,0.276101,MOVE,0,8,1.969825,3.617978,1.806802,0
30.263332,0.050601,-0.047392,0.012868,0.913620,0.914938,-0.350257,0.474218,0.284674,0.654677,113.858,1.987204,0.171936,MOVE,0,8,1.987204,3.617978,1.806802,0
30.307012,0.043680,-0.009873,0.041518,0.920930,0.921919,-0.234803,0.232315,-0.194244,0.383189,113.904,1.988003,0.084469,MOVE,0,8,1.988003,3.617978,1.806802,0
30.350363,0.043351,-0.078987,-0.080569,0.948956,0.955640,-0.004204,-0.256365,0.229090,0.343835,115.134,2.009468,0.036098,MOVE,1,9,2.009468,3.384373,2.304726,0
30.401144,0.050781,0.016486,-0.070679,0.984535,0.987207,0.049858,-0.199860,0.486875,0.528656,116.874,2.039838,0.020974,MOVE,0,9,2.039838,3.384373,2.304726,0
30.444495,0.043351,-0.000494,0.006070,0.996233,0.996251,0.070933,-0.516288,0.459691,0.694911,118.517,2.068520,0.015503,MOVE,0,9,2.068520,3.384373,2.304726,0
30.487884,0.043389,0.163409,-0.087083,1.052283,1.068450,0.216319,-0.107925,0.338129,0.415659,119.959,2.093680,0.075557,MOVE,0,9,2.093680,3.384373,2.304726,0
30.538349,0.050465,-0.071336,-0.040285,1.047409,1.050608,-0.256797,0.195675,0.492067,0.588526,121.501,2.120584,0.113549,MOVE,0,9,2.120584,3.384373,2.304726,0
30.581656,0.043308,-0.091576,-0.176095,1.077384,1.095514,-0.112022,0.082665,0.487486,0.506976,123.254,2.151195,0.188157,MOVE,0,9,2.151195,3.384373,2.304726,0
30.632852,0.051196,-0.045171,-0.145218,1.009392,1.020785,-0.021003,0.058231,0.540936,0.544467,124.937,2.180567,0.188048,MOVE,0,9,2.180567,3.384373,2.304726,0
30.676265,0.043412,-0.041468,-0.068991,0.914838,0.918372,-0.201819,0.133978,0.766957,0.804303,127.261,2.221120,0.095778,MOVE,0,9,2.221120,3.384373,2.304726,0
30.727032,0.050767,-0.087133,-0.032565,0.946031,0.950593,-0.382940,0.258289,0.697318,0.836426,129.153,2.254154,0.041734,MOVE,0,9,2.254154,3.384373,2.304726,0
30.770687,0.043655,-0.232272,-0.038596,1.017678,1.044562,-0.505724,0.153220,1.100794,1.221058,132.281,2.308746,0.077666,MOVE,0,9,2.308746,3.384373,2.304726,0
30.821919,0.051232,-0.088614,-0.095043,1.186804,1.193896,-0.036580,-0.052031,0.941969,0.944114,134.705,2.351048,0.244406,MOVE,0,9,2.351048,3.384373,2.304726,0
30.865411,0.043492,0.019638,-0.040285,1.117594,1.118492,0.088648,0.341672,0.520472,0.628880,136.270,2.378358,0.326608,MOVE,0,9,2.378358,3.384373,2.304726,0
30.913293,0.047883,-0.400121,-0.106381,1.200451,1.269841,-0.322465,-0.496435,1.154550,1.297466,139.076,2.427333,0.536804,MOVE,0,9,2.427333,3.384373,2.304726,0
30.956681,0.043388,0.094069,-0.124231,1.269173,1.278704,-0.160280,-0.575848,0.811550,1.007920,141.177,2.464000,0.733957,MOVE,0,9,2.464000,3.384373,2.304726,0
31.000241,0.043559,0.126314,-0.119407,1.013291,1.028092,-0.137372,0.227440,0.394634,0.475748,142.339,2.484287,0.685844,MOVE,0,9,2.484287,3.384373,2.304726,0
31.051724,0.051484,-0.075779,-0.194669,1.015241,1.036510,-0.328268,0.340145,1.243431,1.330256,145.266,2.535375,0.650118,MOVE,0,9,2.535375,3.384373,2.304726,0
31.102681,0.050957,0.073219,-0.083705,0.974056,0.980384,-0.057655,0.306853,1.135308,1.177458,147.696,2.577776,0.567452,MOVE,0,9,2.577776,3.384373,2.304726,0
31.146031,0.043349,-0.032829,-0.122543,0.949930,0.958364,-0.056127,-0.041951,1.081552,1.083820,150.505,2.626799,0.473235,MOVE,0,9,2.626799,3.384373,2.304726,0
31.196702,0.050672,-0.001975,-0.083223,0.888275,0.892167,-0.165472,-0.326614,0.800860,0.880587,152.444,2.660650,0.328862,MOVE,0,9,2.660650,3.384373,2.304726,0
31.240354,0.043652,0.032488,-0.112894,0.958216,0.965390,-0.307804,-0.188254,0.734275,0.818134,153.723,2.682971,0.264827,MOVE,0,9,2.682971,3.384373,2.304726,0
31.278331,0.037977,-0.016785,-0.085876,0.941888,0.945944,-0.342623,-0.133887,0.609964,0.712301,155.030,2.705787,0.189694,MOVE,0,9,2.705787,3.384373,2.304726,0
31.325322,0.046991,-0.089601,-0.228682,1.039123,1.067755,-0.257407,-0.238650,0.856448,0.925590,156.845,2.737458,0.231704,MOVE,0,9,2.737458,3.384373,2.304726,0
31.368620,0.043299,-0.080715,-0.062960,1.009149,1.014327,0.095367,-0.341581,0.705259,0.789407,158.410,2.764775,0.221429,MOVE,0,9,2.764775,3.384373,2.304726,0
31.412139,0.043519,-0.054551,-0.188639,1.082989,1.100648,0.170504,-0.511707,0.997253,1.133767,160.590,2.802829,0.289869,MOVE,0,9,2.802829,3.384373,2.304726,0
31.455271,0.043132,-0.026411,-0.137981,1.024014,1.033606,0.201963,-0.434738,1.266339,1.354031,164.140,2.864777,0.291127,MOVE,0,9,2.864777,3.384373,2.304726,0
31.509105,0.053835,-0.031842,-0.032565,0.966502,0.967574,-0.047270,-0.158016,1.362245,1.372193,167.044,2.915475,0.232831,MOVE,0,9,2.915475,3.384373,2.304726,0
31.552218,0.043113,-0.078741,-0.103003,0.964796,0.973468,-0.285202,0.002336,1.279472,1.310876,169.820,2.963911,0.185670,MOVE,0,9,2.963911,3.384373,2.304726,0
31.596723,0.044506,-0.133291,-0.167170,0.952855,0.976547,-0.408291,0.043570,1.198533,1.266918,172.241,3.006178,0.145995,MOVE,0,9,3.006178,3.384373,2.304726,0
31.636564,0.039840,-0.057019,-0.214691,1.053989,1.077143,-0.235111,-0.217270,1.065364,1.112423,174.820,3.051181,0.200824,MOVE,0,9,3.051181,3.384373,2.304726,0
31.680351,0.043788,-0.055291,-0.096008,0.979661,0.985906,0.050774,-0.300958,0.850034,0.903168,177.210,3.092891,0.168057,MOVE,0,9,3.092891,3.384373,2.304726,0
31.724025,0.043674,-0.090589,-0.076951,0.947493,0.954920,-0.234195,-0.123196,0.899514,0.937630,179.842,3.138830,0.110679,MOVE,0,9,3.138830,3.384373,2.304726,0
31.767342,0.043316,-0.057760,-0.083947,0.970645,0.975979,-0.184409,-0.029123,0.885770,0.905231,182.975,3.193524,0.077992,MOVE,0,9,-3.089661,3.384373,2.304726,0
31.817941,0.050599,-0.151063,-0.048486,0.938964,0.952273,-0.112022,-0.085323,0.750158,0.763260,185.816,3.243106,0.027239,MOVE,1,10,-3.040080,2.837204,2.248990,0
31.868319,0.050378,-0.130823,-0.010855,0.986972,0.995664,-0.020697,-0.192530,0.582170,0.613529,188.761,3.294493,0.020612,MOVE,0,10,-2.988692,2.837204,2.248990,0
31.911872,0.043553,-0.164886,0.033505,0.984779,0.999049,-0.027722,-0.254838,0.303310,0.397124,192.328,3.356753,0.017695,MOVE,0,10,-2.926432,2.837204,2.248990,0
31.962039,0.050166,-0.145880,0.000728,1.029619,1.039902,0.077347,-0.278662,0.137154,0.320072,196.173,3.423870,0.051838,MOVE,0,10,-2.859315,2.837204,2.248990,0
32.012947,0.050909,-0.079728,-0.001447,1.049359,1.052384,0.303978,-0.114950,-0.338710,0.469404,199.270,3.477921,0.093800,MOVE,0,10,-2.805264,2.837204,2.248990,0
32.056783,0.043836,-0.154766,-0.094319,1.067636,1.082910,0.511977,-0.272553,-0.380554,0.693705,202.814,3.539779,0.159039,MOVE,0,10,-2.743407,2.837204,2.248990,0
32.101708,0.044926,-0.125146,0.054143,0.984048,0.993450,0.549546,-0.167484,0.028420,0.575203,207.091,3.614424,0.137241,MOVE,0,10,-2.668762,2.837204,2.248990,0
32.145425,0.043717,-0.054551,0.086920,0.924342,0.930021,0.312835,0.060369,0.038805,0.320961,211.097,3.684338,0.060535,MOVE,0,10,-2.598847,2.837204,2.248990,0
32.196629,0.051204,-0.071089,0.017238,0.983561,0.986277,0.167449,0.283945,0.195187,0.383095,215.070,3.753680,0.042131,MOVE,0,10,-2.529505,2.837204,2.248990,0
32.239416,0.042787,-0.117247,0.041032,1.067392,1.074596,0.286263,0.019135,0.148150,0.322895,218.553,3.814478,0.105054,MOVE,0,10,-2.468708,2.837204,2.248990,0
32.287784,0.048367,-0.012342,0.082064,1.132459,1.135496,0.375754,-0.122891,-0.026863,0.396251,221.341,3.863122,0.216495,MOVE,0,10,-2.420063,2.837204,2.248990,0
32.332088,0.044304,-0.024684,0.057056,1.103216,1.104966,0.094443,-0.158308,-0.003039,0.184364,223.840,3.906749,0.289315,MOVE,0,10,-2.376436,2.837204,2.248990,0
32.375717,0.043629,-0.055785,0.047345,1.044485,1.047044,-0.048196,0.090321,-0.071454,0.124845,226.171,3.947436,0.302723,MOVE,0,10,-2.335749,2.837204,2.248990,0
32.419685,0.043968,-0.174019,0.067254,0.956023,0.974056,-0.202098,0.039298,0.039119,0.209567,228.521,3.988440,0.249101,MOVE,0,10,-2.294745,2.837204,2.248990,0
32.463205,0.043520,-0.159456,0.055357,0.968208,0.982810,-0.155660,-0.101804,0.082178,0.203340,230.724,4.026886,0.208721,MOVE,0,10,-2.256299,2.837204,2.248990,0
32.513766,0.050560,-0.089355,0.059727,0.950418,0.956475,-0.053012,-0.146669,-0.047931,0.163155,232.232,4.053214,0.148677,MOVE,0,10,-2.229971,2.837204,2.248990,0
32.557278,0.043513,-0.106386,0.047587,0.961872,0.968906,-0.027352,-0.281655,-0.047620,0.286959,233.707,4.078954,0.105825,MOVE,0,10,-2.204231,2.837204,2.248990,0
32.601202,0.043924,-0.059487,0.048073,0.930435,0.933573,-0.064614,-0.386724,-0.043954,0.394541,235.135,4.103872,0.035458,MOVE,1,11,-2.179314,2.522796,1.797717,0
32.648406,0.047204,-0.054551,0.026464,0.933846,0.935813,-0.085689,-0.302424,0.051035,0.318446,236.902,4.134713,-0.025857,MOVE,0,11,-2.148472,2.522796,1.797717,0
32.692170,0.043764,-0.078000,0.074537,1.068611,1.074043,-0.007499,-0.154901,0.055311,0.164650,238.717,4.166401,0.043368,MOVE,0,11,-2.116784,2.522796,1.797717,0
32.735786,0.043617,-0.071829,0.030106,1.061300,1.064154,-0.051169,0.260490,0.039418,0.268379,240.413,4.195996,0.096769,MOVE,0,11,-2.087189,2.522796,1.797717,0
32.779489,0.043703,-0.195988,0.014810,1.077871,1.095644,-0.046282,0.378387,-0.087947,0.391221,241.635,4.217322,0.173172,MOVE,0,11,-2.065863,2.522796,1.797717,0
32.830370,0.050881,-0.020734,-0.079122,1.258938,1.261592,0.187680,0.446499,-0.298390,0.568877,241.915,4.222215,0.391288,MOVE,0,11,-2.060970,2.522796,1.797717,0
32.874675,0.044306,-0.087627,-0.023881,1.302803,1.305965,0.368190,0.219868,-0.604434,0.741111,241.352,4.212391,0.627528,MOVE,0,11,-2.070794,2.522796,1.797717,0
32.918227,0.043551,-0.112557,-0.006513,1.239686,1.244802,-0.060332,-0.035474,-0.197903,0.209914,241.457,4.214211,0.785097,MOVE,0,11,-2.068974,2.522796,1.797717,0
32.961670,0.043443,-0.001481,-0.131468,1.164384,1.171783,-0.203274,-0.331133,0.271547,0.474033,242.366,4.230088,0.861192,MOVE,0,11,-2.053098,2.522796,1.797717,0
33.008904,0.047235,0.205594,-0.142565,1.021090,1.051293,-0.053918,0.195739,0.270325,0.338078,243.249,4.245500,0.821237,MOVE,0,11,-2.037686,2.522796,1.797717,0
33.053128,0.044224,0.041458,-0.019057,0.840267,0.841505,-0.212437,0.303862,0.721144,0.810870,245.415,4.283298,0.596467,MOVE,0,11,-1.999888,2.522796,1.797717,0
33.104099,0.050970,0.117344,-0.013026,0.824914,0.833320,-0.366375,0.399157,0.567206,0.784397,246.908,4.309361,0.386809,MOVE,0,11,-1.973825,2.522796,1.797717,0
33.147749,0.043651,-0.005924,-0.008684,0.860250,0.860314,-0.059110,0.316690,0.319805,0.453940,247.733,4.323756,0.222410,MOVE,0,11,-1.959429,2.522796,1.797717,0
33.191288,0.043539,-0.092317,0.004856,0.873897,0.878773,-0.145547,-0.049829,0.314002,0.349663,248.373,4.334920,0.091065,MOVE,0,11,-1.948265,2.522796,1.797717,0
33.234757,0.043469,-0.105399,-0.031359,0.942132,0.948528,-0.091486,-0.115803,0.204046,0.251823,248.869,4.343583,0.035634,MOVE,1,12,-1.939602,2.324520,1.284700,0
33.285405,0.050648,-0.127120,0.004613,0.953829,0.962274,0.125677,-0.253553,-0.086420,0.295892,248.938,4.344788,-0.001883,MOVE,0,12,-1.938398,2.324520,1.284700,0
33.329094,0.043689,-0.128355,0.027436,0.886325,0.895991,-0.013599,-0.169545,0.061710,0.180938,249.528,4.355091,-0.095303,MOVE,0,12,-1.928094,2.324520,1.284700,0
33.379537,0.050443,-0.200924,-0.015921,0.937502,0.958923,-0.065204,-0.099887,0.095291,0.152674,250.213,4.367034,-0.122742,MOVE,0,12,-1.916151,2.324520,1.284700,0
33.423002,0.043465,-0.226101,0.037390,0.913620,0.941924,0.132389,-0.078493,-0.073912,0.170737,250.902,4.379069,-0.162736,MOVE,0,12,-1.904116,2.324520,1.284700,0
33.466382,0.043380,-0.269051,0.028892,1.054476,1.088643,0.129630,0.081555,-0.174390,0.232093,251.657,4.392241,-0.066684,MOVE,0,12,-1.890945,2.324520,1.284700,0
33.509866,0.043485,-0.218943,-0.000241,1.138064,1.158933,0.312890,0.008557,-0.313667,0.443126,252.564,4.408082,0.083025,MOVE,0,12,-1.875104,2.324520,1.284700,0
33.560318,0.050452,0.046550,-0.029671,1.367139,1.368253,0.420402,-0.091320,-0.558319,0.704838,253.516,4.424687,0.406150,MOVE,0,12,-1.858498,2.324520,1.284700,0
33.604425,0.044107,0.034427,0.063612,1.188753,1.190952,0.197436,0.533901,-0.807246,0.987764,253.432,4.423230,0.537392,MOVE,0,12,-1.859956,2.324520,1.284700,0
33.647999,0.043573,-0.298671,0.044917,1.207274,1.244481,-0.323326,-0.243425,-0.398578,0.568031,253.797,4.429587,0.703685,MOVE,0,12,-1.853598,2.324520,1.284700,0
33.691716,0.043717,0.131406,-0.131951,1.241392,1.255282,-0.183438,-0.396141,0.054684,0.439964,255.598,4.461028,0.863070,MOVE,0,12,-1.822157,2.324520,1.284700,0
33.742093,0.050377,0.089705,0.015053,0.861956,0.866742,-0.519719,0.672873,-0.122467,0.858990,256.371,4.474511,0.656831,MOVE,0,12,-1.808674,2.324520,1.284700,0
33.794302,0.052209,-0.149582,-0.038837,0.862199,0.875940,-0.669687,0.636526,0.113022,0.930817,257.385,4.492219,0.479494,MOVE,0,12,-1.790966,2.324520,1.284700,0
33.837594,0.043292,-0.105892,-0.057412,0.876334,0.884574,-0.288812,0.368356,0.054074,0.471193,257.085,4.486987,0.327661,MOVE,0,12,-1.796198,2.324520,1.284700,0
33.888297,0.050704,-0.134525,0.011411,0.861712,0.872224,0.026088,-0.071465,0.087660,0.116069,255.127,4.452803,0.179896,MOVE,0,12,-1.830382,2.324520,1.284700,0
33.931861,0.043564,-0.097006,0.031806,0.911670,0.917368,0.105806,-0.296874,0.149357,0.348765,252.619,4.409037,0.087538,MOVE,0,12,-1.874149,2.324520,1.284700,0
33.974985,0.043124,-0.057513,0.068953,0.863662,0.868317,0.039527,-0.382090,-0.097738,0.396368,249.160,4.348654,-0.039731,MOVE,1,13,-1.934531,2.128848,0.770683,1
34.025408,0.050422,-0.082690,-0.044144,0.921905,0.926658,-0.109524,-0.075436,-0.041538,0.139325,245.822,4.290397,-0.101766,MOVE,0,13,-1.992789,2.128848,0.770683,1
34.069628,0.044220,-0.271519,-0.004342,0.913863,0.953356,-0.166640,0.093469,0.033904,0.194048,243.181,4.244312,-0.133569,MOVE,0,13,-2.038874,2.128848,0.770683,1
34.120351,0.050724,-0.234247,-0.039320,1.027182,1.054287,0.197741,-0.008851,0.133475,0.238737,240.306,4.194128,-0.071354,MOVE,0,13,-2.089057,2.128848,0.770683,1
34.163520,0.043169,-0.124405,-0.034978,1.028888,1.036972,0.094505,0.167689,0.083689,0.209892,236.638,4.130108,-0.030943,MOVE,0,13,-2.153077,2.128848,0.770683,1
34.207146,0.043626,-0.082443,-0.086118,1.056913,1.063616,0.002875,0.290167,0.187231,0.345341,234.979,4.101157,0.029405,MOVE,0,13,-2.182028,2.128848,0.770683,1
34.258425,0.051280,0.094554,-0.089977,1.129535,1.137051,0.064878,0.483201,-0.277637,0.561048,236.587,4.129216,0.149811,MOVE,0,13,-2.153969,2.128848,0.770683,1
34.309186,0.050760,-0.220918,-0.053552,1.142938,1.165324,-0.374640,0.142338,-0.229990,0.462072,233.207,4.070229,0.283621,MOVE,0,13,-2.212957,2.128848,0.770683,1
34.352331,0.043146,-0.183646,-0.108310,1.194602,1.213479,-0.307750,-0.772433,-0.034208,0.832186,228.111,3.981294,0.447390,MOVE,0,13,-2.301891,2.128848,0.770683,1
34.395391,0.043059,0.162196,-0.143288,1.167308,1.187201,-0.051492,-0.664004,-0.102624,0.673858,233.358,4.072872,0.571132,MOVE,0,13,-2.210313,2.128848,0.770683,1
34.438656,0.043266,0.111768,-0.082740,0.900460,0.911134,-0.441224,0.069339,-0.086437,0.454926,244.883,4.274014,0.434040,MOVE,0,13,-2.009171,2.128848,0.770683,1
34.481746,0.043090,0.012850,-0.202389,0.888275,0.911130,-0.227421,0.199454,0.416611,0.514846,256.556,4.477748,0.310653,MOVE,0,13,-1.805438,2.128848,0.770683,1
