t,dt,acc_x_g,acc_y_g,acc_z_g,acc_mag_g,gyro_x_rads,gyro_y_rads,gyro_z_rads,gyro_mag_rads,yaw_rate_used,gyro_bias,hp,state,step,step_count,heading_rad,pos_x_m,pos_y_m,walkable,sf_yaw_deg
0.005483,0.005483,0.058914,-0.092872,1.011342,1.017305,-0.002331,-0.001778,0.000658,0.003005,-0.001778,0.000000,0.015574,MOVE,0,0,-0.000010,1.000000,0.250000,1,94.915
0.157101,0.151618,0.056247,-0.090218,1.012804,1.018369,-0.001040,-0.002035,0.001551,0.002762,-0.002035,0.000000,0.030549,MOVE,0,0,-0.000318,1.000000,0.250000,1,94.975
0.200338,0.043237,0.057217,-0.091907,1.009636,1.015424,-0.002445,0.000443,0.000593,0.002555,0.000443,0.000000,0.041375,MOVE,0,0,-0.000299,1.000000,0.250000,1,95.014
0.252927,0.052589,0.060854,-0.091183,1.013048,1.018962,-0.001783,0.000196,0.000268,0.001814,0.000196,0.000000,0.054304,MOVE,0,0,-0.000289,1.000000,0.250000,1,95.033
0.306219,0.053293,0.056005,-0.092148,1.008661,1.014409,-0.001385,-0.000129,0.000846,0.001628,-0.000129,0.000000,0.061841,MOVE,0,0,-0.000296,1.000000,0.250000,1,95.022
0.355151,0.048932,0.057945,-0.089977,1.012317,1.017958,-0.002547,-0.002790,0.000804,0.003863,-0.002790,0.000000,0.071819,MOVE,0,0,-0.000432,1.000000,0.250000,1,94.858
0.401236,0.046084,0.059642,-0.091425,1.011342,1.017216,0.000833,-0.001245,0.001950,0.002459,-0.001245,0.000000,0.080132,MOVE,0,0,-0.000490,1.000000,0.250000,1,94.688
0.449441,0.048205,0.059399,-0.092148,1.010611,1.016540,-0.001546,0.000298,0.002484,0.002941,0.000298,0.000000,0.087005,MOVE,0,0,-0.000475,1.000000,0.250000,1,94.663
0.502672,0.053231,0.057460,-0.091907,1.009149,1.014953,-0.001509,-0.001178,0.000909,0.002120,-0.001178,0.000000,0.091762,MOVE,0,0,-0.000538,1.000000,0.250000,1,94.665
0.553808,0.051136,0.062309,-0.089254,1.011098,1.016941,0.000898,0.000372,0.000554,0.001118,0.000372,0.000000,0.097832,MOVE,0,0,-0.000519,1.000000,0.250000,1,94.751
0.597114,0.043306,0.056975,-0.091666,1.011586,1.017327,-0.002955,-0.001714,0.000782,0.003505,-0.001714,0.000000,0.103643,MOVE,0,0,-0.000593,1.000000,0.250000,1,94.941
0.648268,0.051154,0.058429,-0.089977,1.012317,1.017986,0.000410,0.000133,0.000157,0.000458,0.000133,0.000000,0.109466,MOVE,0,0,-0.000586,1.000000,0.250000,1,94.998
0.691489,0.043220,0.058187,-0.091425,1.012073,1.017859,0.001285,-0.000790,-0.001057,0.001842,-0.000790,0.000000,0.114592,MOVE,0,0,-0.000620,1.000000,0.250000,1,94.879
0.734631,0.043143,0.058187,-0.091425,1.010367,1.016162,0.000110,0.001016,-0.000439,0.001112,0.001016,0.000000,0.117679,MOVE,0,0,-0.000577,1.000000,0.250000,1,94.797
0.785285,0.050654,0.059884,-0.090218,1.011342,1.017122,-0.001927,0.000120,0.001650,0.002540,0.000120,0.000000,0.121321,MOVE,0,0,-0.000571,1.000000,0.250000,1,94.832
0.828759,0.043474,0.061096,-0.091907,1.012317,1.018315,-0.001866,0.000734,0.000107,0.002008,0.000734,0.000000,0.125672,MOVE,0,0,-0.000539,1.000000,0.250000,1,94.902
0.880020,0.051261,0.056975,-0.090942,1.013291,1.018958,0.000268,0.000022,-0.000784,0.000829,0.000022,0.000000,0.130168,MOVE,0,0,-0.000538,1.000000,0.250000,1,94.894
0.922753,0.042732,0.061824,-0.089012,1.011342,1.017132,-0.000611,0.000886,-0.000435,0.001161,0.000886,0.000000,0.132570,MOVE,0,0,-0.000500,1.000000,0.250000,1,94.838
0.966003,0.043250,0.054308,-0.090460,1.012804,1.018285,-0.002073,-0.000354,-0.000423,0.002145,-0.000354,0.000000,0.135769,MOVE,0,0,-0.000515,1.000000,0.250000,1,94.810
1.009387,0.043384,0.063763,-0.089495,1.011098,1.017052,-0.003167,0.002667,0.000734,0.004204,0.002667,0.000000,0.137539,MOVE,0,0,-0.000399,1.000000,0.250000,1,94.841
1.059414,0.050027,0.056005,-0.091666,1.013779,1.019454,-0.002439,-0.000298,-0.000499,0.002508,-0.000298,0.000000,0.141294,MOVE,0,0,-0.000414,1.000000,0.250000,1,94.916
1.109917,0.050503,0.058914,-0.090942,1.011829,1.017615,-0.002124,0.001268,0.001032,0.002680,0.001268,0.000000,0.143018,MOVE,0,0,-0.000350,1.000000,0.250000,1,94.958
1.152694,0.042777,0.058914,-0.092148,1.010123,1.016027,-0.002043,-0.001788,0.001026,0.002903,-0.001788,0.000000,0.143141,MOVE,0,0,-0.000427,1.000000,0.250000,1,94.963
1.195749,0.043055,0.056732,-0.089012,1.011586,1.017078,-0.001662,0.000963,-0.000206,0.001932,0.000963,0.000000,0.144197,MOVE,0,0,-0.000385,1.000000,0.250000,1,95.042
1.238604,0.042855,0.062309,-0.094319,1.008174,1.014492,0.002250,-0.001982,0.000405,0.003026,-0.001982,0.000000,0.142819,MOVE,0,0,-0.000470,1.000000,0.250000,1,95.208
1.282233,0.043629,0.055278,-0.091666,1.008661,1.014325,0.001673,0.001024,0.001846,0.002694,0.001024,0.000000,0.141430,MOVE,0,0,-0.000425,1.000000,0.250000,1,95.392
1.326753,0.044521,0.060369,-0.092148,1.010611,1.016597,0.001968,0.000740,-0.000297,0.002123,0.000740,0.000000,0.142225,MOVE,0,0,-0.000393,1.000000,0.250000,1,95.281
1.390706,0.063953,0.054308,-0.090460,1.010855,1.016346,-0.001391,0.000115,0.000314,0.001431,0.000115,0.000000,0.142714,MOVE,0,0,-0.000385,1.000000,0.250000,1,95.330
1.436718,0.046011,0.064006,-0.092148,1.008174,1.014398,0.001631,-0.000461,0.001199,0.002076,-0.000461,0.000000,0.141400,MOVE,0,0,-0.000406,1.000000,0.250000,1,95.216
1.478999,0.042282,0.053581,-0.090460,1.011829,1.017277,-0.001423,0.000167,0.001430,0.002024,0.000167,0.000000,0.142810,MOVE,0,0,-0.000399,1.000000,0.250000,1,95.174
1.521998,0.042999,0.064006,-0.090218,1.008661,1.014709,-0.000237,-0.001598,0.000804,0.001804,-0.001598,0.000000,0.141766,MOVE,0,0,-0.000468,1.000000,0.250000,1,95.248
1.567956,0.045958,0.056247,-0.089495,1.012560,1.018063,-0.002612,-0.000667,0.002250,0.003512,-0.000667,0.000000,0.143846,MOVE,0,0,-0.000499,1.000000,0.250000,1,95.205
1.618321,0.050365,0.061824,-0.089977,1.011586,1.017459,-0.001947,0.001768,0.001687,0.003125,0.001768,0.000000,0.145175,MOVE,0,0,-0.000410,1.000000,0.250000,1,95.188
1.660767,0.042446,0.056247,-0.093837,1.010123,1.016031,-0.001936,-0.000387,0.001279,0.002352,-0.000387,0.000000,0.145085,MOVE,0,0,-0.000426,1.000000,0.250000,1,95.019
1.706393,0.045626,0.060611,-0.091666,1.008661,1.014630,-0.000099,-0.000693,0.000870,0.001117,-0.000693,0.000000,0.143744,MOVE,0,0,-0.000458,1.000000,0.250000,1,94.881
1.749324,0.042931,0.060854,-0.092872,1.009392,1.015481,-0.001936,0.000207,0.001743,0.002613,0.000207,0.000000,0.143302,MOVE,0,0,-0.000449,1.000000,0.250000,1,94.965
1.791875,0.042551,0.058429,-0.090942,1.008905,1.014679,0.001423,-0.000974,0.001661,0.002395,-0.000974,0.000000,0.142183,MOVE,0,0,-0.000490,1.000000,0.250000,1,95.138
1.834805,0.042930,0.059399,-0.093113,1.008905,1.014932,0.000542,0.001431,0.000413,0.001585,0.001431,0.000000,0.141404,MOVE,0,0,-0.000429,1.000000,0.250000,1,95.186
1.882494,0.047689,0.057217,-0.091183,1.011586,1.017297,0.001741,0.002051,0.001013,0.002875,0.002051,0.000000,0.142831,MOVE,0,0,-0.000331,1.000000,0.250000,1,94.999
1.920671,0.038177,0.060369,-0.092148,1.012073,1.018051,0.000178,-0.001865,-0.000179,0.001882,-0.001865,0.000000,0.144794,MOVE,0,0,-0.000402,1.000000,0.250000,1,94.731
1.962150,0.041479,0.057945,-0.092390,1.010855,1.016720,-0.000411,-0.000326,0.000110,0.000536,-0.000326,0.000000,0.145363,MOVE,0,0,-0.000416,1.000000,0.250000,1,94.506
2.003508,0.041358,0.060854,-0.090701,1.011098,1.016980,-0.000897,0.002373,0.000070,0.002538,0.002373,0.000000,0.146109,MOVE,0,0,-0.000318,1.000000,0.250000,1,94.310
2.048542,0.045034,0.059399,-0.090942,1.012073,1.017885,0.000019,0.000549,0.001834,0.001914,0.000549,0.000000,0.147595,MOVE,0,0,-0.000293,1.000000,0.250000,1,94.107
2.090230,0.041687,0.054308,-0.090942,1.012804,1.018328,0.000394,0.000272,0.000266,0.000547,0.000272,0.000000,0.149330,MOVE,0,0,-0.000282,1.000000,0.250000,1,93.863
2.135196,0.044967,0.064006,-0.090218,1.010123,1.016162,0.000409,0.001480,0.000544,0.001629,0.001480,0.000000,0.148943,MOVE,0,0,-0.000215,1.000000,0.250000,1,93.507
2.184076,0.048880,0.052368,-0.091666,1.011586,1.017079,-0.001368,0.000250,-0.076665,0.076678,0.000250,0.000000,0.149420,MOVE,0,0,-0.000203,1.000000,0.250000,1,93.317
2.229068,0.044992,0.061824,-0.091666,1.012317,1.018337,0.000137,0.001749,0.002631,0.003162,0.001749,0.000000,0.150981,MOVE,0,0,-0.000124,1.000000,0.250000,1,93.151
2.270424,0.041356,0.056975,-0.089977,1.010855,1.016449,-0.000776,-0.001015,0.003096,0.003350,-0.001015,0.000000,0.150688,MOVE,0,0,-0.000166,1.000000,0.250000,1,92.951
2.323137,0.052713,0.060127,-0.092390,1.011098,1.017089,0.002511,-0.000094,-0.000336,0.002535,-0.000094,0.000000,0.150999,MOVE,0,0,-0.000171,1.000000,0.250000,1,92.890
2.365230,0.042093,0.056975,-0.091666,1.013291,1.019023,-0.000236,-0.000685,0.001723,0.001869,-0.000685,0.000000,0.153020,MOVE,0,0,-0.000200,1.000000,0.250000,1,92.836
2.407269,0.042038,0.063521,-0.090942,1.011829,1.017892,0.000681,0.001161,0.002508,0.002847,0.001161,0.000000,0.153821,MOVE,0,0,-0.000151,1.000000,0.250000,1,92.740
2.449539,0.042270,0.052611,-0.091183,1.011829,1.017291,-0.002045,-0.001844,0.000607,0.002820,-0.001844,0.000000,0.154001,MOVE,0,0,-0.000229,1.000000,0.250000,1,92.943
2.495798,0.046259,0.062551,-0.089977,1.011098,1.017019,-0.002324,0.000634,0.001453,0.002813,0.000634,0.000000,0.153918,MOVE,0,0,-0.000200,1.000000,0.250000,1,92.949
2.539410,0.043612,0.054793,-0.091425,1.010855,1.016458,-0.000467,-0.003581,0.001711,0.003996,-0.003581,0.000000,0.153339,MOVE,0,0,-0.000356,1.000000,0.250000,1,92.829
2.582831,0.043421,0.058914,-0.090701,1.012317,1.018078,-0.001151,-0.000491,0.002252,0.002576,-0.000491,0.000000,0.154275,MOVE,0,0,-0.000377,1.000000,0.250000,1,92.888
2.630003,0.047172,0.060127,-0.091425,1.010855,1.016760,0.001003,0.000434,-0.000227,0.001117,0.000434,0.000000,0.153931,MOVE,0,0,-0.000357,1.000000,0.250000,1,92.927
2.673570,0.043567,0.054065,-0.091183,1.013291,1.018821,0.001294,0.001919,0.000009,0.002315,0.001919,0.000000,0.155478,MOVE,0,0,-0.000273,1.000000,0.250000,1,92.924
2.717010,0.043440,0.065218,-0.090460,1.011586,1.017714,0.000659,0.001554,-0.075712,0.075730,0.001554,0.000000,0.155872,MOVE,0,0,-0.000206,1.000000,0.250000,1,93.019
2.767607,0.050597,0.059884,-0.091425,1.015972,1.021834,-0.001686,0.000977,0.001786,0.002643,0.000977,0.000000,0.159935,MOVE,0,0,-0.000156,1.000000,0.250000,1,93.203
2.811090,0.043483,0.059399,-0.089977,1.011098,1.016830,0.002852,-0.001149,0.002573,0.004009,-0.001149,0.000000,0.159089,MOVE,0,0,-0.000206,1.000000,0.250000,1,93.356
2.854916,0.043825,0.056490,-0.091183,1.014510,1.020165,-0.000242,-0.001753,0.001830,0.002546,-0.001753,0.000000,0.161328,MOVE,0,0,-0.000283,1.000000,0.250000,1,93.582
2.898443,0.043527,0.060369,-0.093113,1.011342,1.017412,0.003028,0.000406,0.001735,0.003513,0.000406,0.000000,0.160866,MOVE,0,0,-0.000265,1.000000,0.250000,1,93.802
2.942211,0.043768,0.058672,-0.092148,1.010367,1.016256,-0.000336,0.001918,0.001299,0.002340,0.001918,0.000000,0.159410,MOVE,0,0,-0.000181,1.000000,0.250000,1,93.989
2.985557,0.043346,0.056247,-0.091183,1.013291,1.018940,-0.000940,-0.000209,0.002696,0.002862,-0.000209,0.000000,0.160514,MOVE,0,0,-0.000190,1.000000,0.250000,1,94.034
3.029172,0.043615,0.063763,-0.089495,1.011098,1.017052,0.000648,0.001668,0.001976,0.002666,0.001668,0.000000,0.159810,MOVE,0,0,-0.000118,1.000000,0.250000,1,94.039
3.079847,0.050674,0.053338,-0.092390,1.013291,1.018892,0.001176,-0.002568,0.000387,0.002851,-0.002568,0.000000,0.160831,MOVE,0,0,-0.000248,1.000000,0.250000,1,94.040
3.123676,0.043829,0.062309,-0.091183,1.015485,1.021472,0.000858,0.002303,0.000924,0.002626,0.002303,0.000000,0.164073,MOVE,0,0,-0.000147,1.000000,0.250000,1,94.213
3.174875,0.051199,0.064976,-0.091183,1.010855,1.017037,-0.002152,0.000523,0.002099,0.003052,0.000523,0.000000,0.162999,MOVE,0,0,-0.000120,1.000000,0.250000,1,94.412
3.218185,0.043310,0.054793,-0.091907,1.014266,1.019895,0.000847,0.002879,0.001970,0.003590,0.002879,0.000000,0.164604,MOVE,0,0,0.000005,1.000000,0.250000,1,94.455
3.261131,0.042947,0.064006,-0.092872,1.011586,1.017854,-0.000086,-0.000737,0.075170,0.075174,-0.000737,0.000000,0.164213,MOVE,0,0,-0.000027,1.000000,0.250000,1,94.458
3.311822,0.050691,0.051399,-0.090701,1.011098,1.016459,0.000804,-0.000510,0.000052,0.000954,-0.000510,0.000000,0.162604,MOVE,0,0,-0.000053,1.000000,0.250000,1,94.622
3.356423,0.044601,0.069097,-0.091425,1.009149,1.015635,0.001465,-0.000750,0.000360,0.001685,-0.000750,0.000000,0.160415,MOVE,0,0,-0.000086,1.000000,0.250000,1,94.872
3.396631,0.040208,0.046307,-0.090942,1.012804,1.017933,0.003364,0.004983,0.000953,0.006087,0.004983,0.000000,0.160513,MOVE,0,0,0.000114,1.000000,0.250000,1,95.218
3.440586,0.043955,0.068127,-0.092148,1.012804,1.019267,0.001796,-0.003498,0.000951,0.004045,-0.003498,0.000000,0.161802,MOVE,0,0,-0.000040,1.000000,0.250000,1,95.312
3.483916,0.043329,0.049459,-0.091907,1.014266,1.019622,-0.001536,0.000971,0.000278,0.001838,0.000971,0.000000,0.163281,MOVE,0,0,0.000002,1.000000,0.250000,1,95.482
3.527471,0.043555,0.069824,-0.090701,1.011098,1.017557,0.001838,-0.001420,0.000875,0.002482,-0.001420,0.000000,0.162754,MOVE,0,0,-0.000059,1.000000,0.250000,1,95.725
3.578009,0.050539,0.048247,-0.092631,1.011586,1.016963,-0.000635,0.000958,0.001187,0.001652,0.000958,0.000000,0.161745,MOVE,0,0,-0.000011,1.000000,0.250000,1,96.218
3.622174,0.044165,0.064006,-0.091425,1.013291,1.019419,0.000002,0.000930,-0.000319,0.000983,0.000930,0.000000,0.163048,MOVE,0,0,0.000030,1.000000,0.250000,1,96.401
3.669454,0.047280,0.052853,-0.091907,1.014510,1.020035,0.003851,-0.000567,0.074196,0.074298,-0.000567,0.000000,0.164774,MOVE,0,0,0.000003,1.000000,0.250000,1,96.636
3.712890,0.043436,0.061581,-0.091666,1.010367,1.016384,0.003480,-0.001155,-0.001189,0.003854,-0.001155,0.000000,0.163043,MOVE,0,0,-0.000047,1.000000,0.250000,1,96.736
3.756306,0.043416,0.055520,-0.091666,1.013535,1.019185,0.001936,0.001214,-0.001700,0.002848,0.001214,0.000000,0.164005,MOVE,0,0,0.000006,1.000000,0.250000,1,96.680
3.806827,0.050521,0.058672,-0.089977,1.012317,1.018000,0.002000,-0.000267,-0.001936,0.002796,-0.000267,0.000000,0.163804,MOVE,0,0,-0.000008,1.000000,0.250000,1,96.502
3.850743,0.043916,0.062309,-0.090942,1.011342,1.017332,-0.001618,0.001848,0.000221,0.002466,0.001848,0.000000,0.163023,MOVE,0,0,0.000073,1.000000,0.250000,1,96.306
3.894433,0.043689,0.057217,-0.090218,1.013535,1.019150,0.000840,0.000310,0.000325,0.000952,0.000310,0.000000,0.163956,MOVE,0,0,0.000087,1.000000,0.250000,1,96.199
3.938322,0.043890,0.060611,-0.092872,1.012560,1.018615,-0.000704,0.001821,0.000274,0.001971,0.001821,0.000000,0.164314,MOVE,0,0,0.000167,1.000000,0.250000,1,96.135
3.988892,0.050570,0.060369,-0.092631,1.008174,1.014219,-0.000263,-0.001238,-0.000335,0.001309,-0.001238,0.000000,0.160680,MOVE,0,0,0.000104,1.000000,0.250000,1,95.899
4.036885,0.047993,0.055520,-0.091666,1.014754,1.020397,-0.001737,-0.000350,0.000562,0.001859,-0.000350,0.000000,0.162969,MOVE,0,0,0.000087,1.000000,0.250000,1,95.600
4.085519,0.048634,0.062309,-0.091907,1.011342,1.017419,0.002264,0.001530,0.001440,0.003089,0.001530,0.000000,0.162349,MOVE,0,0,0.000162,1.000000,0.250000,1,95.394
4.132814,0.047295,0.060127,-0.097696,1.008905,1.015406,-0.001512,0.003983,0.001139,0.004410,0.003983,0.000000,0.159980,MOVE,0,0,0.000350,1.000000,0.250000,1,95.408
4.178689,0.045875,0.056005,-0.099868,1.018409,1.024825,-0.002297,-0.000525,-0.001570,0.002832,-0.000525,0.000000,0.166325,MOVE,0,0,0.000326,1.000000,0.250000,1,95.565
4.221417,0.042728,0.064733,-0.090942,1.006712,1.012882,0.002196,0.006339,-0.001327,0.006838,0.006339,0.000000,0.161286,MOVE,0,0,0.000597,1.000000,0.250000,1,95.885
4.264277,0.042860,0.051399,-0.090942,1.016947,1.022298,0.001817,0.001446,-0.003924,0.004560,0.001446,0.000000,0.165225,MOVE,0,0,0.000659,1.000000,0.250000,1,96.109
4.306187,0.041910,0.057460,-0.091183,1.009880,1.015615,-0.002383,-0.004117,-0.003145,0.005702,-0.004117,0.000000,0.162756,MOVE,0,0,0.000486,1.000000,0.250000,1,96.207
4.351600,0.045413,0.061824,-0.091666,1.014997,1.021002,-0.002325,-0.000444,0.001471,0.002787,-0.000444,0.000000,0.165382,MOVE,0,0,0.000466,1.000000,0.250000,1,96.259
4.393275,0.041675,0.055763,-0.096008,1.013048,1.019114,-0.000168,-0.005483,-0.002766,0.006143,-0.005483,0.000000,0.166046,MOVE,0,0,0.000238,1.000000,0.250000,1,96.356
4.434728,0.041453,0.058187,-0.091907,1.011586,1.017417,-0.001961,0.001331,-0.003910,0.004572,0.001331,0.000000,0.165117,MOVE,0,0,0.000293,1.000000,0.250000,1,96.474
4.479656,0.044929,0.057945,-0.095525,1.007686,1.013861,0.006104,0.001026,-0.002314,0.006608,0.001026,0.000000,0.161081,MOVE,0,0,0.000339,1.000000,0.250000,1,96.755
4.528213,0.048557,0.059642,-0.089012,1.014997,1.020637,0.000747,-0.001057,0.001043,0.001662,-0.001057,0.000000,0.163546,MOVE,0,0,0.000288,1.000000,0.250000,1,96.915
4.573287,0.045074,0.061339,-0.094078,1.011586,1.017801,0.004544,-0.001306,-0.001075,0.004849,-0.001306,0.000000,0.163212,MOVE,0,0,0.000229,1.000000,0.250000,1,96.918
4.615957,0.042670,0.065945,-0.089736,1.011829,1.017939,0.004979,0.006663,0.001661,0.008482,0.006663,0.000000,0.163036,MOVE,0,0,0.000513,1.000000,0.250000,1,96.945
4.659002,0.043044,0.056975,-0.094319,1.009636,1.015631,0.003536,0.001433,-0.004693,0.006048,0.001433,0.000000,0.160801,MOVE,0,0,0.000575,1.000000,0.250000,1,96.876
4.701402,0.042400,0.060854,-0.091666,1.013048,1.019005,0.012098,0.001137,0.000785,0.012177,0.001137,0.000000,0.161825,MOVE,0,0,0.000623,1.000000,0.250000,1,96.537
4.744601,0.043199,0.070067,-0.090460,1.006955,1.013435,0.010913,0.010219,0.003809,0.015428,0.010219,0.000000,0.157735,MOVE,0,0,0.001064,1.000000,0.250000,1,96.146
4.787156,0.042555,0.040731,-0.090942,1.018409,1.023273,-0.000269,0.008053,-0.001916,0.008282,0.008053,0.000000,0.162907,MOVE,0,0,0.001407,1.000000,0.250000,1,95.878
4.840474,0.053318,0.075886,-0.034013,1.011829,1.015241,-0.000899,0.022456,-0.001380,0.022516,0.022456,0.000000,0.160333,MOVE,0,0,0.002605,1.000000,0.250000,1,95.779
4.883834,0.043360,0.069097,-0.093113,1.039611,1.046057,-0.008535,0.030092,0.000453,0.031282,0.030092,0.000000,0.185751,MOVE,0,0,0.003909,1.000000,0.250000,1,96.140
4.926553,0.042718,0.046550,-0.085876,1.028888,1.033515,-0.008448,-0.035949,-0.003644,0.037108,-0.035949,0.000000,0.197339,MOVE,0,0,0.002374,1.000000,0.250000,1,96.438
4.976101,0.049549,0.050671,-0.089736,1.007930,1.013185,0.001332,0.011757,-0.000510,0.011844,0.011757,0.000000,0.189471,MOVE,0,0,0.002956,1.000000,0.250000,1,96.510
5.019563,0.043462,0.067400,-0.086841,1.017434,1.023356,0.001917,0.000851,-0.002882,0.003564,0.000851,0.000000,0.191544,MOVE,0,0,0.002993,1.000000,0.250000,1,96.418
5.062089,0.042526,0.045337,-0.089012,1.001594,1.006563,0.011416,-0.002363,-0.001497,0.011754,-0.002363,0.000000,0.178296,MOVE,0,0,0.002893,1.000000,0.250000,1,96.472
5.104375,0.042286,0.068612,-0.089495,1.005981,1.012282,0.007428,0.016389,-0.001919,0.018096,0.016389,0.000000,0.171520,MOVE,0,0,0.003586,1.000000,0.250000,1,96.747
5.147673,0.043299,0.055035,-0.090701,0.999644,1.005258,0.001599,0.002289,-0.002393,0.003678,0.002289,0.000000,0.159101,MOVE,0,0,0.003685,1.000000,0.250000,1,97.132
5.191927,0.044254,0.068612,-0.087806,1.015485,1.021581,-0.003891,0.015975,-0.003176,0.016746,0.015975,0.000000,0.162613,MOVE,0,0,0.004392,1.000000,0.250000,1,97.529
5.233412,0.041484,0.053096,-0.094561,1.012560,1.018351,-0.007206,-0.007852,-0.005711,0.012091,-0.007852,0.000000,0.162868,MOVE,0,0,0.004066,1.000000,0.250000,1,97.773
5.278399,0.044987,0.061824,-0.087324,1.010611,1.016259,-0.006604,-0.002438,-0.002520,0.007477,-0.002438,0.000000,0.161214,MOVE,0,0,0.003956,1.000000,0.250000,1,97.929
5.327060,0.048662,0.054793,-0.089012,1.010611,1.016002,-0.007462,0.000412,-0.001814,0.007691,0.000412,0.000000,0.159494,MOVE,0,0,0.003976,1.000000,0.250000,1,97.958
5.372331,0.045271,0.063763,-0.084912,1.008661,1.014235,-0.008918,-0.001400,-0.003181,0.009571,-0.001400,0.000000,0.156357,MOVE,0,0,0.003913,1.000000,0.250000,1,97.889
5.413749,0.041418,0.055278,-0.088771,1.013291,1.018673,-0.012465,-0.006558,-0.000941,0.014116,-0.006558,0.000000,0.157527,MOVE,0,0,0.003641,1.000000,0.250000,1,97.750
5.458739,0.044990,0.070552,-0.092390,1.016216,1.022843,-0.002223,-0.003416,-0.078987,0.079093,-0.003416,0.000000,0.162333,MOVE,0,0,0.003488,1.000000,0.250000,1,97.549
5.507577,0.048838,0.050671,-0.091183,1.008174,1.013556,-0.004316,-0.008602,0.003241,0.010156,-0.008602,0.000000,0.158301,MOVE,0,0,0.003068,1.000000,0.250000,1,97.516
5.552549,0.044971,0.048247,-0.092631,1.018897,1.024236,-0.000980,0.005665,-0.002257,0.006176,0.005665,0.000000,0.164283,MOVE,0,0,0.003322,1.000000,0.250000,1,97.645
5.593943,0.041394,0.052126,-0.091666,1.002569,1.008099,-0.001492,-0.016604,0.074426,0.076271,-0.016604,0.000000,0.155144,MOVE,0,0,0.002635,1.000000,0.250000,1,97.836
5.635519,0.041576,0.058672,-0.093113,1.013291,1.019251,-0.002880,-0.001220,-0.002412,0.003950,-0.001220,0.000000,0.156955,MOVE,0,0,0.002584,1.000000,0.250000,1,97.846
5.673393,0.037874,0.068855,-0.090701,1.012073,1.018459,-0.001237,-0.001170,-0.001331,0.002161,-0.001170,0.000000,0.157873,MOVE,0,0,0.002540,1.000000,0.250000,1,97.685
5.714756,0.041362,0.055763,-0.090701,1.007686,1.013296,-0.001255,0.000860,-0.001560,0.002179,0.000860,0.000000,0.154052,MOVE,0,0,0.002576,1.000000,0.250000,1,97.583
5.759703,0.044948,0.064733,-0.090218,1.007930,1.014028,-0.001499,0.006268,-0.000897,0.006507,0.006268,0.000000,0.151272,MOVE,0,0,0.002857,1.000000,0.250000,1,97.535
5.808030,0.048327,0.053096,-0.091425,1.010611,1.016126,0.002540,-0.003527,-0.000222,0.004352,-0.003527,0.000000,0.150658,MOVE,0,0,0.002687,1.000000,0.250000,1,97.488
5.853649,0.045619,0.060611,-0.091907,1.012317,1.018286,0.010392,0.003683,-0.002093,0.011222,0.003683,0.000000,0.152049,MOVE,0,0,0.002855,1.000000,0.250000,1,97.477
5.895131,0.041482,0.061581,-0.094078,1.008661,1.014909,-0.004882,-0.009411,-0.002890,0.010989,-0.009411,0.000000,0.150263,MOVE,0,0,0.002465,1.000000,0.250000,1,97.691
5.940301,0.045169,0.062793,-0.091907,1.010123,1.016238,-0.005175,-0.004989,-0.000578,0.007212,-0.004989,0.000000,0.149850,MOVE,0,0,0.002239,1.000000,0.250000,1,97.859
5.988687,0.048386,0.059399,-0.093837,1.010123,1.016210,0.009977,-0.002780,0.007529,0.012804,-0.002780,0.000000,0.149454,MOVE,0,0,0.002105,1.000000,0.250000,1,98.008
6.031755,0.043068,0.054793,-0.088530,1.011586,1.016929,0.003271,-0.000358,0.000717,0.003368,-0.000358,0.000000,0.149745,MOVE,0,0,0.002089,1.000000,0.250000,1,97.944
6.076777,0.045021,0.061824,-0.094319,1.003300,1.009618,0.003157,0.005176,0.000708,0.006103,0.005176,0.000000,0.143427,MOVE,0,0,0.002322,1.000000,0.250000,1,97.875
6.120358,0.043582,0.054550,-0.081293,1.006224,1.010976,-0.007215,-0.017465,-0.005329,0.019634,-0.017465,0.000000,0.138962,MOVE,0,0,0.001561,1.000000,0.250000,1,97.829
6.169251,0.048893,0.066673,-0.094078,1.004275,1.010873,-0.013317,-0.056527,-0.007352,0.058538,-0.056527,0.000000,0.134852,MOVE,0,0,-0.001203,1.000000,0.250000,1,97.736
6.214185,0.044934,0.079765,-0.087324,0.997939,1.004923,0.041832,-0.034262,0.007163,0.054544,-0.034262,0.000000,0.125797,MOVE,0,0,-0.002742,1.000000,0.250000,1,97.671
6.255730,0.041546,0.038549,-0.108310,0.995989,1.002602,0.037525,-0.047199,-0.006171,0.060613,-0.047199,0.000000,0.115559,MOVE,0,0,-0.004703,1.000000,0.250000,1,97.777
6.300707,0.044976,0.064976,-0.081534,1.023039,1.028338,0.014138,0.029368,-0.001346,0.032622,0.029368,0.000000,0.129508,MOVE,0,0,-0.003382,1.000000,0.250000,1,97.795
6.349303,0.048597,0.042186,-0.089977,1.005006,1.009907,0.005940,-0.008680,0.074925,0.075660,-0.008680,0.000000,0.125473,MOVE,0,0,-0.003804,1.000000,0.250000,1,97.893
6.394296,0.044992,0.051883,-0.081052,1.000619,1.005236,-0.009942,-0.007324,0.000702,0.012368,-0.007324,0.000000,0.117639,MOVE,0,0,-0.004133,1.000000,0.250000,1,97.923
6.435713,0.041418,0.061339,-0.083947,1.027913,1.033158,-0.017737,0.009237,0.000116,0.019998,0.009237,0.000000,0.135717,MOVE,0,0,-0.003751,1.000000,0.250000,1,98.247
6.480478,0.044765,0.063036,-0.089012,1.022308,1.028110,-0.018168,0.003606,-0.002002,0.018631,0.003606,0.000000,0.147445,MOVE,0,0,-0.003590,1.000000,0.250000,1,98.682
6.521957,0.041479,0.062309,-0.088530,1.011829,1.017604,-0.005857,0.004766,0.001990,0.007808,0.004766,0.000000,0.148544,MOVE,0,0,-0.003392,1.000000,0.250000,1,99.284
6.566754,0.044797,0.062793,-0.089254,1.010855,1.016728,0.008522,0.016537,0.003933,0.019014,0.016537,0.000000,0.148745,MOVE,0,0,-0.002651,1.000000,0.250000,1,100.051
6.616011,0.049257,0.058187,-0.083223,1.018897,1.023944,0.014710,0.020698,0.001937,0.025466,0.020698,0.000000,0.155420,MOVE,0,0,-0.001632,1.000000,0.250000,1,100.849
6.660949,0.044938,0.064006,-0.090701,1.023770,1.029771,-0.000121,-0.012775,-0.001392,0.012851,-0.012775,0.000000,0.166673,MOVE,0,0,-0.002206,1.000000,0.250000,1,101.348
6.702241,0.041292,0.046065,-0.090460,1.007686,1.012787,0.000446,0.000383,-0.001012,0.001170,0.000383,0.000000,0.161513,MOVE,0,0,-0.002190,1.000000,0.250000,1,101.885
6.747159,0.044918,0.066915,-0.088289,0.945056,0.951527,-0.007945,-0.024751,-0.000089,0.025995,-0.024751,0.000000,0.101737,MOVE,0,0,-0.003302,1.000000,0.250000,1,102.401
6.795447,0.048288,0.059399,-0.061271,1.045216,1.048694,-0.002012,0.008801,0.001110,0.009096,0.008801,0.000000,0.135387,MOVE,0,0,-0.002877,1.000000,0.250000,1,102.782
6.834107,0.038660,0.067400,-0.084429,0.995502,1.001346,-0.017255,0.007768,0.001358,0.018972,0.007768,0.000000,0.123060,MOVE,0,0,-0.002576,1.000000,0.250000,1,103.117
6.877084,0.042977,0.056490,-0.089495,1.005250,1.010805,-0.012121,0.001703,0.008642,0.014983,0.001703,0.000000,0.120479,MOVE,0,0,-0.002503,1.000000,0.250000,1,103.536
6.927418,0.050334,0.024002,-0.104451,1.044241,1.049726,-0.001542,0.044415,-0.002260,0.044499,0.044415,0.000000,0.153185,MOVE,0,0,-0.000268,1.000000,0.250000,1,103.667
6.968962,0.041543,0.104009,-0.091425,0.997695,1.007259,-0.014128,-0.029004,0.002583,0.032365,-0.029004,0.000000,0.144400,MOVE,0,0,-0.001472,1.000000,0.250000,1,103.517
7.012995,0.044033,0.043155,-0.087565,1.022308,1.026959,-0.014369,-0.056306,-0.005705,0.058389,-0.056306,0.000000,0.154222,MOVE,0,0,-0.003952,1.000000,0.250000,1,103.614
7.056808,0.043813,0.096251,-0.080569,0.937014,0.945384,0.010959,0.050800,0.010844,0.053088,0.050800,0.000000,0.089646,MOVE,0,0,-0.001726,1.000000,0.250000,1,103.710
7.105291,0.048484,0.045822,-0.096008,1.022796,1.028313,0.021497,0.036307,0.007319,0.042823,0.036307,0.000000,0.106164,MOVE,0,0,0.000034,1.000000,0.250000,1,103.716
7.150457,0.045166,0.059884,-0.097938,1.055938,1.062160,0.021391,0.021283,0.000574,0.030180,0.021283,0.000000,0.151491,MOVE,0,0,0.000995,1.000000,0.250000,1,103.803
7.192036,0.041579,0.062309,-0.082499,1.016216,1.021461,0.004726,0.003086,0.049380,0.049701,0.003086,0.000000,0.155657,MOVE,0,0,0.001124,1.000000,0.250000,1,104.003
7.237018,0.044982,0.054065,-0.091907,1.008661,1.014282,-0.021929,-0.006187,0.003178,0.023005,-0.006187,0.000000,0.152945,MOVE,0,0,0.000846,1.000000,0.250000,1,104.134
7.285455,0.048437,0.064248,-0.087324,1.012560,1.018348,-0.028355,-0.012279,0.141546,0.144879,-0.012279,0.000000,0.154163,MOVE,0,0,0.000251,1.000000,0.250000,1,104.239
7.330840,0.045385,0.053581,-0.097214,1.009880,1.015962,0.021402,0.027276,0.050058,0.060892,0.027276,0.000000,0.153113,MOVE,0,0,0.001489,1.000000,0.250000,1,104.217
7.373044,0.042203,0.055520,-0.096490,1.007930,1.014059,0.029630,0.019914,0.002004,0.035756,0.019914,0.000000,0.150455,MOVE,0,0,0.002329,1.000000,0.250000,1,104.047
7.414442,0.041399,0.059399,-0.089736,1.014266,1.019959,-0.003660,-0.010486,-0.087043,0.087749,-0.010486,0.000000,0.153373,MOVE,0,0,0.001895,1.000000,0.250000,1,103.682
7.459415,0.044973,0.055278,-0.095767,1.010611,1.016642,-0.012112,-0.040250,-0.011021,0.043453,-0.040250,0.000000,0.153013,MOVE,0,0,0.000085,1.000000,0.250000,1,103.317
7.501050,0.041634,0.077825,-0.073815,0.999644,1.005383,0.005177,-0.009206,0.110134,0.110639,-0.009206,0.000000,0.142556,MOVE,0,0,-0.000298,1.000000,0.250000,1,103.305
7.554202,0.053152,0.062551,-0.082740,1.008417,1.013738,0.019908,-0.018860,0.150382,0.152862,-0.018860,0.000000,0.140665,MOVE,0,0,-0.001301,1.000000,0.250000,1,103.576
7.595526,0.041325,0.070067,-0.105657,1.019871,1.027721,0.077329,-0.039629,0.402975,0.412237,-0.039629,0.000000,0.151547,MOVE,0,0,-0.002939,1.000000,0.250000,1,104.433
7.640595,0.045069,0.051641,-0.101556,0.947006,0.953835,0.034569,-0.013056,0.348303,0.350257,-0.013056,0.000000,0.094844,MOVE,0,0,-0.003527,1.000000,0.250000,1,105.099
7.688999,0.048404,0.056247,-0.095525,1.008417,1.014492,-0.019165,-0.007131,-0.010703,0.023081,-0.007131,0.000000,0.098402,MOVE,0,0,-0.003872,1.000000,0.250000,1,104.246
7.727007,0.038008,0.059399,-0.090460,1.007686,1.013481,-0.024531,-0.023933,0.003221,0.034423,-0.023933,0.000000,0.100695,MOVE,0,0,-0.004782,1.000000,0.250000,1,103.221
7.768461,0.041453,0.059399,-0.095043,1.010123,1.016322,-0.030351,-0.030724,0.020332,0.047734,-0.030724,0.000000,0.105315,MOVE,0,0,-0.006055,1.000000,0.250000,1,102.295
7.809900,0.041439,0.059884,-0.096249,1.021090,1.027363,-0.012726,-0.035132,-0.010904,0.038924,-0.035132,0.000000,0.119410,MOVE,0,0,-0.007511,1.000000,0.250000,1,101.137
7.855022,0.045123,0.072249,-0.091666,1.000619,1.007403,0.004360,0.018332,-0.006149,0.019822,0.018332,0.000000,0.114132,MOVE,0,0,-0.006684,1.000000,0.250000,1,99.857
7.903778,0.048755,0.062793,-0.091907,1.010855,1.016965,0.003733,0.010658,-0.006139,0.012854,0.010658,0.000000,0.117987,MOVE,0,0,-0.006164,1.000000,0.250000,1,98.712
7.948797,0.045020,0.062066,-0.097696,1.011098,1.017701,-0.003568,0.000961,0.004618,0.005915,0.000961,0.000000,0.122120,MOVE,0,0,-0.006121,1.000000,0.250000,1,97.522
7.990272,0.041474,0.025214,-0.239779,1.118812,1.144496,0.054159,0.059298,0.008284,0.080735,0.059298,0.000000,0.239954,MOVE,0,0,-0.003662,1.000000,0.250000,1,96.541
8.032375,0.042104,0.025457,-0.075745,0.989165,0.992388,-0.025009,0.035969,-0.006378,0.044271,0.035969,0.000000,0.209108,MOVE,0,0,-0.002147,1.000000,0.250000,1,95.722
8.070331,0.037956,0.073704,-0.076710,1.037661,1.043100,0.067388,0.040983,-0.000265,0.078872,0.040983,0.000000,0.226987,MOVE,0,0,-0.000592,1.000000,0.250000,1,95.143
8.112517,0.042186,0.060127,-0.118201,1.061056,1.069311,-0.054626,0.035923,-0.239936,0.248684,0.035923,0.000000,0.266668,MOVE,0,0,0.000924,1.000000,0.250000,1,94.296
8.154629,0.042111,0.199533,-0.030877,0.998913,1.019115,0.107864,0.050890,-0.090579,0.149763,0.050890,0.000000,0.257205,MOVE,0,0,0.003067,1.000000,0.250000,1,93.646
8.196228,0.041599,-0.005677,-0.099385,1.055451,1.060135,0.002490,-0.145504,-0.021857,0.147157,-0.145504,0.000000,0.285606,MOVE,0,0,-0.002986,1.000000,0.250000,1,93.759
8.241235,0.045007,0.146195,0.019181,0.939451,0.950952,-0.102295,0.089389,0.010101,0.136223,0.089389,0.000000,0.212902,MOVE,0,0,0.001037,1.000000,0.250000,1,93.065
8.282883,0.041648,0.006546,-0.044868,1.042779,1.043764,-0.041514,0.088778,-0.000589,0.098007,0.088778,0.000000,0.231000,MOVE,0,0,0.004735,1.000000,0.250000,1,93.167
8.328233,0.045351,0.052853,-0.094319,1.017434,1.023163,-0.017516,-0.031213,-0.017366,0.039783,-0.031213,0.000000,0.228746,MOVE,0,0,0.003319,1.000000,0.250000,1,92.947
8.370021,0.041788,-0.010861,-0.039561,1.107602,1.108362,0.048734,-0.151106,0.060568,0.169931,-0.151106,0.000000,0.303397,MOVE,0,0,-0.002995,1.000000,0.250000,1,93.038
8.411458,0.041436,-0.006171,-0.152455,1.110039,1.120477,0.398149,-2.189258,-0.028313,2.225348,-2.189258,0.000000,0.381486,MOVE,0,0,-0.093710,1.000000,0.250000,1,91.999
8.456399,0.044941,0.170197,-0.129780,1.111989,1.132399,0.788797,-1.704231,-0.181335,1.886660,-1.704231,0.000000,0.462497,MOVE,0,0,-0.170301,1.000000,0.250000,1,87.977
8.504919,0.048520,0.277358,-0.071403,1.140989,1.176385,0.864850,-0.852380,-0.174310,1.226744,-0.852380,0.000000,0.574994,MOVE,0,0,-0.211658,1.000000,0.250000,1,82.623
8.550201,0.045282,0.350334,0.025493,1.185341,1.236292,0.557890,0.545891,-0.309311,0.839590,0.545891,0.000000,0.730157,MOVE,0,0,-0.186939,1.000000,0.250000,1,76.464
8.591584,0.041384,0.287298,-0.100350,1.352517,1.386331,0.378295,1.235252,0.001008,1.291881,1.235252,0.000000,1.004840,MOVE,0,0,-0.135820,1.000000,0.250000,1,70.888
8.636723,0.045138,0.138437,0.043460,1.429038,1.436386,0.525209,0.454872,-0.079321,0.699317,0.454872,0.000000,1.297103,MOVE,0,0,-0.115288,1.000000,0.250000,1,65.197
8.685177,0.048455,0.054065,0.018695,1.380543,1.381727,0.089356,0.769162,-0.002046,0.774338,0.769162,0.000000,1.510947,MOVE,0,0,-0.078018,1.000000,0.250000,1,59.456
8.723058,0.037881,0.149832,0.042246,1.395896,1.404549,0.796738,-0.163934,-0.870086,1.191098,-0.163934,0.000000,1.723947,MOVE,0,0,-0.084228,1.000000,0.250000,1,52.427
8.771481,0.048423,0.154438,0.162428,1.186072,1.207063,0.972973,-0.781519,-0.186527,1.261840,-0.781519,0.000000,1.737909,MOVE,0,0,-0.122071,1.000000,0.250000,1,46.827
8.816336,0.044856,0.208261,0.141305,1.286232,1.310623,0.390207,-2.432077,0.488173,2.511090,-2.432077,0.000000,1.843679,MOVE,0,0,-0.231164,1.000000,0.250000,1,42.790
8.857912,0.041576,0.336030,0.303248,1.143182,1.229529,-0.051754,-0.610477,-0.038087,0.613849,-0.610477,0.000000,1.865887,MOVE,0,0,-0.256545,1.000000,0.250000,1,38.631
8.899401,0.041489,0.308634,-0.006996,1.005737,1.052050,0.275365,1.288092,0.147921,1.325477,1.288092,0.000000,1.726143,MOVE,0,0,-0.203103,1.000000,0.250000,1,35.594
8.937494,0.038093,0.189593,0.110713,0.888762,0.915479,0.447323,0.961585,-0.033811,1.061078,0.961585,0.000000,1.477460,MOVE,0,0,-0.166474,1.000000,0.250000,1,32.688
8.985903,0.048409,0.112010,0.063369,0.952855,0.961506,0.961366,1.218759,0.094165,1.555142,1.218759,0.000000,1.295070,MOVE,0,0,-0.107475,1.000000,0.250000,1,29.805
9.031723,0.045821,0.193229,0.188650,0.863418,0.904664,-0.781432,-0.138278,0.201983,0.818874,-0.138278,0.000000,1.079760,MOVE,0,0,-0.113811,1.000000,0.250000,1,27.115
9.080395,0.048671,0.091887,-0.027017,0.439385,0.449703,-0.792122,0.603312,0.027886,0.996103,0.603312,0.000000,0.476517,MOVE,0,0,-0.084447,1.000000,0.250000,1,24.110
9.123772,0.043378,0.226202,0.285524,0.772275,0.853874,-0.643988,0.039789,0.184879,0.671180,0.039789,0.000000,0.297352,MOVE,0,0,-0.082721,1.000000,0.250000,1,21.224
9.167427,0.043655,0.078068,-0.158244,1.061300,1.075868,-1.206289,-0.034736,0.035827,1.207321,-0.034736,0.000000,0.335898,MOVE,0,0,-0.084238,1.000000,0.250000,1,18.511
9.218888,0.051461,0.063278,-0.032565,1.051552,1.053957,-0.810754,0.201363,-0.453781,0.950677,0.201363,0.000000,0.350870,MOVE,0,0,-0.073875,1.000000,0.250000,1,15.187
9.269698,0.050810,0.113950,-0.145942,0.888519,0.907606,-0.257615,-0.251594,0.100579,0.373873,-0.251594,0.000000,0.232628,MOVE,0,0,-0.086659,1.000000,0.250000,1,13.669
9.313428,0.043730,0.111040,0.115326,0.781292,0.797526,-0.185839,0.193116,0.088056,0.282106,0.193116,0.000000,0.027139,MOVE,1,1,-0.078214,1.448624,0.214840,1,12.613
9.357270,0.043842,0.045822,-0.001447,0.775200,0.776554,-0.472334,0.607588,0.088973,0.774713,0.607588,0.000000,-0.176676,MOVE,0,1,-0.051576,1.448624,0.214840,1,12.154
9.400849,0.043579,0.012122,-0.059342,0.796645,0.798944,-0.118338,0.712963,-0.061300,0.725312,0.712963,0.000000,-0.339959,MOVE,0,1,-0.020506,1.448624,0.214840,1,11.585
9.451557,0.050709,-0.007899,-0.079122,0.817847,0.821703,-0.186755,0.594149,-0.087873,0.628977,0.594149,0.000000,-0.466430,MOVE,0,1,0.009622,1.448624,0.214840,1,11.547
9.494969,0.043411,-0.045171,-0.049934,0.897535,0.900058,0.530401,0.057199,-0.379561,0.654724,0.057199,0.000000,-0.509736,MOVE,0,1,0.012105,1.448624,0.214840,1,11.847
9.538701,0.043732,0.015759,-0.098903,0.957972,0.963193,0.826671,0.004664,-0.300759,0.879694,0.004664,0.000000,-0.491888,MOVE,0,1,0.012309,1.448624,0.214840,1,12.942
9.581976,0.043275,0.003394,0.090804,0.891199,0.895820,0.163576,0.302767,-0.190193,0.393190,0.302767,0.000000,-0.536461,MOVE,0,1,0.025412,1.448624,0.214840,1,14.857
9.631370,0.049393,0.006788,0.002428,0.881208,0.881237,-0.657121,-0.199670,-0.087262,0.692308,-0.199670,0.000000,-0.589702,MOVE,0,1,0.015549,1.448624,0.214840,1,17.719
9.676289,0.044919,0.039276,-0.019057,1.050577,1.051484,0.007975,0.037919,-0.128738,0.134443,0.037919,0.000000,-0.484396,MOVE,0,1,0.017253,1.448624,0.214840,1,20.591
9.719756,0.043467,-0.011108,-0.049693,0.998670,0.999967,0.076697,-0.130069,-0.077731,0.169830,-0.130069,0.000000,-0.435986,MOVE,0,1,0.011599,1.448624,0.214840,1,23.125
9.770512,0.050756,0.008001,-0.033530,1.138795,1.139317,0.364720,0.273408,-0.137290,0.476047,0.273408,0.000000,-0.267002,MOVE,0,1,0.025476,1.448624,0.214840,1,25.230
9.813941,0.043429,-0.015797,-0.000482,0.913620,0.913756,0.355252,0.048609,-0.162947,0.393850,0.048609,0.000000,-0.317922,MOVE,0,1,0.027587,1.448624,0.214840,1,26.743
9.858496,0.044555,-0.011601,-0.022193,1.068367,1.068660,0.373272,-0.076618,-0.107052,0.395806,-0.076618,0.000000,-0.224335,MOVE,0,1,0.024173,1.448624,0.214840,1,27.909
9.898833,0.040337,0.029336,0.025979,0.995745,0.996516,0.120374,0.038225,0.017259,0.127471,0.038225,0.000000,-0.205037,MOVE,0,1,0.025715,1.448624,0.214840,1,29.410
9.950016,0.051183,0.017214,0.033020,0.993308,0.994006,0.224832,-0.006368,0.116219,0.253173,-0.006368,0.000000,-0.189928,MOVE,0,1,0.025389,1.448624,0.214840,1,27.614
9.993296,0.043281,0.035155,0.015053,0.961872,0.962631,0.044932,-0.106245,0.194410,0.226057,-0.106245,0.000000,-0.204567,MOVE,0,1,0.020791,1.448624,0.214840,1,24.279
10.044115,0.050818,0.034427,0.038118,1.074459,1.075686,0.034347,0.009257,0.095751,0.102145,0.009257,0.000000,-0.115992,MOVE,0,1,0.021261,1.448624,0.214840,1,20.695
10.087407,0.043293,0.033458,0.008983,1.003300,1.003898,-0.075010,0.036319,0.246429,0.260140,0.036319,0.000000,-0.100885,MOVE,0,1,0.022834,1.448624,0.214840,1,17.338
10.130504,0.043097,-0.010367,0.054386,1.016947,1.018453,-0.065641,-0.060988,0.049795,0.102508,-0.060988,0.000000,-0.074189,MOVE,0,1,0.020205,1.448624,0.214840,1,13.539
10.173382,0.042877,0.012850,0.005099,1.014266,1.014360,0.069897,0.098123,0.081522,0.145463,0.098123,0.000000,-0.053846,MOVE,0,1,0.024413,1.448624,0.214840,1,10.033
10.216805,0.043423,-0.007652,0.008255,0.973569,0.973634,0.028556,-0.035825,0.093451,0.104077,-0.035825,0.000000,-0.072190,MOVE,0,1,0.022857,1.448624,0.214840,1,6.780
10.267325,0.050520,0.019881,0.005099,1.025964,1.026169,0.064137,0.000256,0.133933,0.148498,0.000256,0.000000,-0.041419,MOVE,0,1,0.022870,1.448624,0.214840,1,4.065
10.311247,0.043922,-0.002222,0.070410,1.050333,1.052693,0.119815,-0.097045,0.064115,0.166985,-0.097045,0.000000,0.010147,MOVE,1,2,0.018607,1.898546,0.223212,1,1.470
10.361991,0.050744,0.011880,0.050744,1.015728,1.017065,0.003896,-0.018904,0.069143,0.071787,-0.018904,0.000000,0.024490,MOVE,0,2,0.017648,1.898546,0.223212,1,358.606
10.405405,0.043414,0.009455,0.042974,1.057644,1.058559,-0.103725,-0.082336,0.095130,0.163058,-0.082336,0.000000,0.074744,MOVE,0,2,0.014074,1.898546,0.223212,1,355.922
10.448389,0.042984,-0.020981,0.109257,0.936527,0.943112,-0.010263,-0.082642,0.034349,0.090082,-0.082642,0.000000,0.016071,MOVE,0,2,0.010521,1.898546,0.223212,1,353.452
10.491259,0.042870,0.001455,0.026950,1.012073,1.012433,-0.119740,-0.137308,0.037568,0.186017,-0.137308,0.000000,0.025653,MOVE,0,2,0.004635,1.898546,0.223212,1,351.822
10.534955,0.043696,0.003637,0.023308,1.032056,1.032326,-0.016211,-0.049190,0.134191,0.143839,-0.049190,0.000000,0.052181,MOVE,0,2,0.002485,1.898546,0.223212,1,350.690
10.578190,0.043235,-0.012835,0.020880,1.031569,1.031860,-0.043933,-0.068876,0.073025,0.109575,-0.068876,0.000000,0.075637,MOVE,0,2,-0.000492,1.898546,0.223212,1,349.684
10.621324,0.043134,-0.000494,-0.003860,1.002813,1.002820,-0.112852,-0.136194,0.121154,0.214389,-0.136194,0.000000,0.070611,MOVE,0,2,-0.006367,1.898546,0.223212,1,349.029
10.664161,0.042838,-0.001234,-0.023158,1.023527,1.023789,-0.095748,-0.070220,0.208508,0.239946,-0.070220,0.000000,0.084960,MOVE,0,2,-0.009375,1.898546,0.223212,1,348.579
10.707213,0.043051,-0.008392,0.007527,0.998670,0.998733,-0.026430,-0.116752,0.116936,0.167343,-0.116752,0.000000,0.075324,MOVE,0,2,-0.014401,1.898546,0.223212,1,348.099
10.750758,0.043546,0.002909,-0.020987,0.984048,0.984276,-0.155654,-0.177904,0.147226,0.278484,-0.177904,0.000000,0.053640,MOVE,0,2,-0.022148,1.898546,0.223212,1,347.690
10.794010,0.043251,0.010425,-0.009167,1.020846,1.020940,-0.085470,-0.041281,0.075383,0.121210,-0.041281,0.000000,0.067123,MOVE,0,2,-0.023934,1.898546,0.223212,1,347.732
10.844624,0.050614,0.012607,0.002914,1.058619,1.058698,-0.090663,0.018279,0.237873,0.255220,0.018279,0.000000,0.113239,MOVE,0,2,-0.023009,1.898546,0.223212,1,348.018
10.888150,0.043527,0.016971,0.022337,1.022552,1.022937,-0.028035,0.020705,0.088897,0.095485,0.020705,0.000000,0.122558,MOVE,0,2,-0.022107,1.898546,0.223212,1,347.962
10.938766,0.050615,0.047277,-0.034978,1.093224,1.094805,0.084653,0.217854,0.095365,0.252430,0.217854,0.000000,0.195626,MOVE,0,2,-0.011081,1.898546,0.223212,1,347.756
10.981998,0.043232,0.019881,0.012382,1.002569,1.002842,0.041188,0.184763,-0.000232,0.189299,0.184763,0.000000,0.178622,MOVE,0,2,-0.003093,1.898546,0.223212,1,347.399
11.025498,0.043500,0.029336,-0.009649,1.060569,1.061018,0.039295,0.082559,-0.008336,0.091813,0.082559,0.000000,0.215676,MOVE,0,2,0.000499,1.898546,0.223212,1,347.015
11.068790,0.043292,-0.001728,-0.014474,1.073241,1.073340,-0.076791,0.051607,-0.033503,0.098400,0.051607,0.000000,0.260114,MOVE,0,2,0.002733,1.898546,0.223212,1,346.622
11.119108,0.050318,-0.044184,-0.026535,1.069098,1.070340,-0.055454,0.054523,0.134424,0.155299,0.054523,0.000000,0.297409,MOVE,0,2,0.005476,1.898546,0.223212,1,346.649
11.169121,0.050013,-0.039987,-0.019539,1.042048,1.042998,-0.129064,0.015427,0.196427,0.235539,0.015427,0.000000,0.306366,MOVE,0,2,0.006248,1.898546,0.223212,1,346.589
11.212480,0.043360,-0.037519,-0.029430,1.043997,1.045086,-0.095181,0.037080,0.076658,0.127713,0.037080,0.000000,0.316306,MOVE,0,2,0.007856,1.898546,0.223212,1,346.446
11.255986,0.043506,-0.043443,-0.045592,0.939695,0.941803,-0.128883,0.034560,0.115076,0.176203,0.034560,0.000000,0.232298,MOVE,0,2,0.009359,1.898546,0.223212,1,346.734
11.306609,0.050622,-0.063437,0.035205,0.900704,0.903621,-0.047943,-0.123044,0.113549,0.174160,-0.123044,0.000000,0.122327,MOVE,0,2,0.003130,1.898546,0.223212,1,346.712
11.349994,0.043386,-0.032829,-0.037872,0.950418,0.951738,0.038189,-0.032635,0.139816,0.148566,-0.032635,0.000000,0.066659,MOVE,0,2,0.001714,1.898546,0.223212,1,346.727
11.393568,0.043574,-0.092070,0.040061,0.925073,0.930506,-0.052243,-0.177132,-0.067638,0.196672,-0.177132,0.000000,-0.002551,MOVE,1,3,-0.006004,2.348538,0.220511,1,346.390
11.443974,0.050406,-0.064671,-0.053070,0.991115,0.994639,-0.067948,-0.079275,0.081877,0.132685,-0.079275,0.000000,-0.007120,MOVE,0,3,-0.010000,2.348538,0.220511,1,346.275
11.486787,0.042813,-0.156494,-0.018816,0.979418,0.992020,0.064305,-0.075305,-0.143227,0.174126,-0.075305,0.000000,-0.013591,MOVE,0,3,-0.013224,2.348538,0.220511,1,346.048
11.530295,0.043508,-0.120209,-0.098420,1.019628,1.031396,-0.027286,-0.051272,0.093323,0.109920,-0.051272,0.000000,0.016025,MOVE,0,3,-0.015455,2.348538,0.220511,1,346.234
11.573642,0.043348,-0.084418,-0.072609,1.122468,1.127977,0.092638,0.145691,0.185871,0.253684,0.145691,0.000000,0.129601,MOVE,0,3,-0.009139,2.348538,0.220511,1,346.757
11.624058,0.050416,-0.070842,-0.045833,1.144644,1.147750,0.195874,0.118813,0.224661,0.320867,0.118813,0.000000,0.249616,MOVE,0,3,-0.003149,2.348538,0.220511,1,347.062
11.677678,0.053620,0.064006,-0.108310,1.430013,1.435537,-0.141018,-0.360106,-0.146439,0.413530,-0.360106,0.000000,0.616637,MOVE,0,3,-0.022458,2.348538,0.220511,1,346.450
11.720878,0.043200,0.147650,-0.031359,1.094686,1.105044,0.371192,0.318260,0.103404,0.499766,0.318260,0.000000,0.649513,MOVE,0,3,-0.008709,2.348538,0.220511,1,346.168
11.764376,0.043498,0.096736,0.128437,1.028888,1.041376,0.235580,-0.398896,-0.119561,0.478446,-0.398896,0.000000,0.621801,MOVE,0,3,-0.026060,2.348538,0.220511,1,345.267
11.814876,0.050500,0.070309,0.126252,1.036443,1.046469,-0.053363,-0.044445,-0.222957,0.233523,-0.044445,0.000000,0.601442,MOVE,0,3,-0.028305,2.348538,0.220511,1,344.033
11.858335,0.043459,0.042670,0.100516,0.951880,0.958123,-0.119336,0.253046,-0.427291,0.510736,0.253046,0.000000,0.503609,MOVE,0,3,-0.017308,2.348538,0.220511,1,342.453
11.901793,0.043458,0.063278,0.000486,0.855863,0.858200,-0.242120,0.357199,-0.260525,0.504070,0.357199,0.000000,0.325627,MOVE,0,3,-0.001785,2.348538,0.220511,1,341.033
11.952518,0.050726,0.035882,0.022337,0.814435,0.815531,-0.120864,0.386826,-0.515256,0.655539,0.386826,0.000000,0.127042,MOVE,0,3,0.017837,2.348538,0.220511,1,339.236
11.995690,0.043171,0.021335,-0.063684,0.840998,0.843675,-0.113839,0.046269,-0.331386,0.353435,0.046269,0.000000,-0.026354,MOVE,1,4,0.019835,2.798450,0.229436,1,337.818
12.039208,0.043519,-0.034804,0.023551,0.903628,0.904604,0.019635,-0.033755,-0.463638,0.465280,-0.033755,0.000000,-0.109575,MOVE,0,4,0.018366,2.798450,0.229436,1,335.880
12.089523,0.050314,-0.040975,-0.096490,0.936040,0.941891,-0.159043,-0.065214,-0.174088,0.244651,-0.065214,0.000000,-0.150915,MOVE,0,4,0.015085,2.798450,0.229436,1,334.833
12.140134,0.050611,-0.060475,-0.023640,0.968451,0.970626,-0.152629,0.229834,0.134705,0.307025,0.229834,0.000000,-0.162260,MOVE,0,4,0.026717,2.798450,0.229436,1,334.650
12.183240,0.043106,-0.070348,-0.010373,0.984779,0.987343,0.155247,0.312300,0.307885,0.465217,0.312300,0.000000,-0.157426,MOVE,0,4,0.040179,2.798450,0.229436,1,334.853
12.226567,0.043327,-0.060475,0.047102,1.020359,1.023234,0.109738,-0.059411,0.610874,0.623489,-0.059411,0.000000,-0.120772,MOVE,0,4,0.037605,2.798450,0.229436,1,335.583
12.277129,0.050562,-0.053563,0.050744,1.204106,1.206365,0.127148,0.432946,0.080948,0.458434,0.432946,0.000000,0.077033,MOVE,0,4,0.059495,2.798450,0.229436,1,334.833
12.320753,0.043624,-0.039247,-0.053070,1.142938,1.144842,-0.489826,0.215173,0.233054,0.583561,0.215173,0.000000,0.199688,MOVE,0,4,0.068882,2.798450,0.229436,1,334.006
12.364413,0.043660,-0.154025,-0.060548,1.016216,1.029604,-0.007548,-0.071628,-0.029007,0.077647,-0.071628,0.000000,0.206363,MOVE,0,4,0.065755,2.798450,0.229436,1,332.277
12.408084,0.043671,0.022790,-0.143047,1.345694,1.353468,-0.029845,-0.544133,-0.465776,0.716881,-0.544133,0.000000,0.503847,MOVE,0,4,0.041992,2.798450,0.229436,1,329.741
12.451200,0.043116,0.168015,-0.180196,1.104921,1.132056,0.021468,-0.234729,-0.218986,0.321736,-0.234729,0.000000,0.572313,MOVE,0,4,0.031872,2.798450,0.229436,1,328.016
12.494112,0.042912,0.102312,-0.165240,0.996233,1.015013,0.076362,-0.104127,0.155040,0.201770,-0.104127,0.000000,0.528594,MOVE,0,4,0.027403,2.798450,0.229436,1,327.278
12.537976,0.043864,0.103524,-0.119648,1.001350,1.013773,-0.003050,0.420606,-0.011115,0.420764,0.420606,0.000000,0.488130,MOVE,0,4,0.045853,2.798450,0.229436,1,326.031
12.584790,0.046813,0.110555,-0.068749,0.850015,0.859927,-0.101094,0.328365,0.158400,0.378331,0.328365,0.000000,0.313251,MOVE,0,4,0.061225,2.798450,0.229436,1,324.864
12.627982,0.043193,0.069097,-0.083464,0.862443,0.869223,-0.107203,0.202222,-0.025776,0.230327,0.202222,0.000000,0.164227,MOVE,0,4,0.069959,2.798450,0.229436,1,323.238
12.671097,0.043115,0.072491,-0.085153,0.949443,0.956006,-0.184141,-0.070887,-0.031444,0.199804,-0.070887,0.000000,0.108209,MOVE,0,4,0.066903,2.798450,0.229436,1,321.580
12.714016,0.042919,0.035882,-0.065855,0.926048,0.929080,0.082437,0.123020,0.305523,0.339520,0.123020,0.000000,0.033560,MOVE,1,5,0.072183,3.247278,0.261890,1,320.534
12.757521,0.043504,-0.020981,0.050501,0.879746,0.881444,0.306319,-0.068487,0.059649,0.319499,-0.068487,0.000000,-0.076496,MOVE,0,5,0.069203,3.247278,0.261890,1,318.974
12.800766,0.043246,-0.026658,-0.039561,0.899241,0.900506,0.177732,0.042385,0.182739,0.258415,0.042385,0.000000,-0.158392,MOVE,0,5,0.071036,3.247278,0.261890,1,317.754
12.851134,0.050368,-0.119715,-0.004342,0.812485,0.821269,0.012798,-0.035500,0.247490,0.250351,-0.035500,0.000000,-0.303410,MOVE,0,5,0.069248,3.247278,0.261890,1,316.674
12.894413,0.043279,-0.112063,-0.039561,1.080552,1.087067,-0.017747,-0.015384,-0.043455,0.049396,-0.015384,0.000000,-0.194709,MOVE,0,5,0.068582,3.247278,0.261890,1,315.277
12.937862,0.043450,-0.050848,-0.173683,1.113695,1.128303,0.006077,0.157186,0.240292,0.287201,0.157186,0.000000,-0.059765,MOVE,0,5,0.075412,3.247278,0.261890,1,314.380
12.981166,0.043303,-0.022462,-0.128091,1.170476,1.177678,0.253477,0.279969,0.140110,0.402820,0.279969,0.000000,0.106122,MOVE,0,5,0.087536,3.247278,0.261890,1,313.609
13.031661,0.050495,0.008001,-0.058135,1.210930,1.212351,0.177424,-0.116482,-0.234961,0.316629,-0.116482,0.000000,0.286625,MOVE,0,5,0.081654,3.247278,0.261890,1,312.259
13.074649,0.042989,0.123163,-0.084429,1.282820,1.291482,0.006077,-0.400840,-0.370268,0.545718,-0.400840,0.000000,0.520296,MOVE,0,5,0.064422,3.247278,0.261890,1,310.993
13.117604,0.042954,0.098675,-0.093113,1.032544,1.041419,0.268749,-0.122285,0.024351,0.296264,-0.122285,0.000000,0.505543,MOVE,0,5,0.059170,3.247278,0.261890,1,310.820
13.160898,0.043294,0.064491,0.024522,0.965527,0.967989,0.113283,-0.151301,-0.189146,0.267398,-0.151301,0.000000,0.426179,MOVE,0,5,0.052619,3.247278,0.261890,1,310.294
13.204162,0.043264,0.029821,0.086677,0.957485,0.961863,-0.256901,0.035318,-0.517181,0.578551,0.035318,0.000000,0.349237,MOVE,0,5,0.054147,3.247278,0.261890,1,309.325
13.247642,0.043480,0.020850,-0.025087,0.825401,0.826046,-0.140836,0.179177,-0.624999,0.665254,0.179177,0.000000,0.157755,MOVE,0,5,0.061938,3.247278,0.261890,1,308.564
13.290855,0.043213,0.004364,-0.036666,0.849771,0.850573,-0.149389,0.070443,-0.569410,0.592880,0.070443,0.000000,0.007495,MOVE,1,6,0.064982,3.696328,0.291111,1,308.187
13.334468,0.043612,0.034670,-0.068991,0.884863,0.888226,-0.162828,-0.030350,-0.264894,0.312414,-0.030350,0.000000,-0.093852,MOVE,0,6,0.063658,3.696328,0.291111,1,308.606
13.385458,0.050990,-0.008146,0.003885,0.943350,0.943394,0.200637,0.082355,-0.248706,0.329988,0.082355,0.000000,-0.135412,MOVE,0,6,0.067857,3.696328,0.291111,1,309.472
13.428644,0.043185,-0.032582,-0.015438,0.944569,0.945257,0.053419,-0.004999,-0.258480,0.263989,-0.004999,0.000000,-0.171140,MOVE,0,6,0.067641,3.696328,0.291111,1,310.635
13.471867,0.043223,-0.019747,-0.091907,0.980636,0.985131,0.047300,0.111124,0.147506,0.190640,0.111124,0.000000,-0.167408,MOVE,0,6,0.072445,3.696328,0.291111,1,312.614
13.515003,0.043136,-0.102190,0.019666,1.019871,1.025167,0.295922,0.211305,0.081838,0.372716,0.211305,0.000000,-0.128017,MOVE,0,6,0.081559,3.696328,0.291111,1,314.581
13.565466,0.050464,-0.038260,-0.093354,1.186560,1.190841,0.106554,0.199088,0.426977,0.483010,0.199088,0.000000,0.056542,MOVE,0,6,0.091606,3.696328,0.291111,1,317.188
13.608891,0.043425,-0.074298,0.057785,1.233350,1.236936,-0.005234,0.541478,0.432475,0.693008,0.541478,0.000000,0.264131,MOVE,0,6,0.115120,3.696328,0.291111,1,319.237
13.652177,0.043285,-0.145139,-0.025570,1.012560,1.023229,-0.048911,0.005749,-0.304229,0.308189,0.005749,0.000000,0.258624,MOVE,0,6,0.115369,3.696328,0.291111,1,319.638
13.695059,0.042882,0.145710,-0.125679,1.394677,1.407889,-0.301198,-0.818308,-0.379365,0.950929,-0.818308,0.000000,0.599861,MOVE,0,6,0.080278,3.696328,0.291111,1,319.982
13.738234,0.043175,0.180380,-0.285370,1.016216,1.070826,-0.124047,0.059200,0.037856,0.142567,0.059200,0.000000,0.603618,MOVE,0,6,0.082834,3.696328,0.291111,1,321.659
13.788607,0.050374,0.095281,-0.203353,0.876578,0.904886,0.241861,-0.122227,0.512498,0.579733,-0.122227,0.000000,0.457654,MOVE,0,6,0.076677,3.696328,0.291111,1,324.176
13.831912,0.043305,0.058914,-0.083223,0.915082,0.920745,0.301726,0.063171,0.518912,0.603572,0.063171,0.000000,0.340559,MOVE,0,6,0.079412,3.696328,0.291111,1,326.505
13.875533,0.043621,0.032973,-0.046074,0.852695,0.854575,0.153896,-0.003414,0.492645,0.516134,-0.003414,0.000000,0.175621,MOVE,0,6,0.079264,3.696328,0.291111,1,328.604
13.926109,0.050575,0.013819,0.002914,0.882183,0.882296,0.172528,0.043318,0.107189,0.207682,0.043318,0.000000,0.052125,MOVE,0,6,0.081454,3.696328,0.291111,1,329.702
13.969435,0.043327,0.024002,-0.013026,0.900460,0.900874,0.029293,-0.019059,0.094653,0.100898,-0.019059,0.000000,-0.042301,MOVE,0,6,0.080629,3.696328,0.291111,1,330.542
14.012928,0.043493,0.014547,0.044917,0.920687,0.921896,0.119694,0.027961,-0.297594,0.321979,0.027961,0.000000,-0.108364,MOVE,0,6,0.081845,3.696328,0.291111,1,330.731
14.056004,0.043075,0.001212,-0.038114,0.982098,0.982838,0.088854,0.088152,-0.160461,0.203503,0.088152,0.000000,-0.112973,MOVE,0,6,0.085642,3.696328,0.291111,1,331.086
14.099418,0.043414,-0.033076,-0.090218,0.949443,0.954293,-0.204464,0.123890,0.087778,0.254675,0.123890,0.000000,-0.142812,MOVE,0,6,0.091020,3.696328,0.291111,1,332.027
14.150001,0.050583,-0.036779,-0.066337,1.172913,1.175363,0.042936,0.126333,0.202926,0.242863,0.126333,0.000000,0.029296,MOVE,1,7,0.097411,4.144195,0.334877,1,333.269
14.193265,0.043264,-0.003703,-0.053311,1.306946,1.308038,0.154114,0.260112,0.129928,0.329076,0.260112,0.000000,0.303601,MOVE,0,7,0.108664,4.144195,0.334877,1,334.206
14.236785,0.043520,-0.041468,0.015053,1.127829,1.128691,-0.038566,-0.034348,-0.225408,0.231248,-0.034348,0.000000,0.389063,MOVE,0,7,0.107169,4.144195,0.334877,1,333.881
14.287266,0.050481,0.147407,-0.023158,1.303535,1.312047,-0.221825,-0.582294,-0.774881,0.994341,-0.582294,0.000000,0.630999,MOVE,0,7,0.077775,4.144195,0.334877,1,332.813
14.330876,0.043610,0.189108,-0.174165,1.003544,1.035951,-0.150049,-0.067030,0.199449,0.258433,-0.067030,0.000000,0.600255,MOVE,0,7,0.074852,4.144195,0.334877,1,333.965
14.381539,0.050663,0.008728,0.111442,0.878283,0.885368,0.411031,0.141886,0.360717,0.564974,0.141886,0.000000,0.437061,MOVE,0,7,0.082040,4.144195,0.334877,1,335.104
14.424388,0.042849,-0.026905,0.146404,0.805662,0.819298,0.054897,0.048729,-0.320703,0.328996,0.048729,0.000000,0.230723,MOVE,0,7,0.084128,4.144195,0.334877,1,334.788
14.467719,0.043331,0.053338,-0.037631,0.947981,0.950226,-0.468615,-0.104292,-0.449290,0.657524,-0.104292,0.000000,0.162854,MOVE,0,7,0.079609,4.144195,0.334877,1,334.167
14.511372,0.043653,0.056005,-0.034013,0.967720,0.969936,-0.057197,0.124171,-0.547028,0.563853,0.124171,0.000000,0.119511,MOVE,0,7,0.085029,4.144195,0.334877,1,333.384
14.561562,0.050190,0.073946,-0.085635,1.000863,1.007238,-0.114618,-0.056645,-0.329866,0.353776,-0.056645,0.000000,0.114074,MOVE,0,7,0.082186,4.144195,0.334877,1,333.078
14.615146,0.053584,0.002182,-0.020504,0.861712,0.861959,-0.081937,0.154715,-0.256867,0.310856,0.154715,0.000000,-0.021571,MOVE,1,8,0.090477,4.592354,0.375536,1,333.099
14.658455,0.043309,-0.025424,-0.043421,0.810779,0.812339,0.016188,0.036445,-0.052074,0.065589,0.036445,0.000000,-0.188308,MOVE,0,8,0.092055,4.592354,0.375536,1,333.620
14.701739,0.043285,-0.029620,-0.042938,0.909964,0.911458,0.082027,0.224496,0.049905,0.244167,0.224496,0.000000,-0.249165,MOVE,0,8,0.101772,4.592354,0.375536,1,334.435
14.752424,0.050684,0.003152,-0.073815,1.072266,1.074808,0.193205,0.103850,0.211173,0.304478,0.103850,0.000000,-0.156921,MOVE,0,8,0.107036,4.592354,0.375536,1,335.337
14.795918,0.043494,0.093827,-0.135569,1.256501,1.267271,-0.286019,-0.066887,0.178187,0.343557,-0.066887,0.000000,0.099315,MOVE,0,8,0.104127,4.592354,0.375536,1,336.170
14.839443,0.043525,0.048974,-0.117718,1.093224,1.100634,-0.162013,0.204337,0.310439,0.405431,0.204337,0.000000,0.179954,MOVE,0,8,0.113020,4.592354,0.375536,1,337.283
14.887478,0.048035,-0.001481,0.041032,1.145619,1.146354,-0.035870,-0.460895,-0.408550,0.616947,-0.460895,0.000000,0.293678,MOVE,0,8,0.090881,4.592354,0.375536,1,336.878
14.931482,0.044004,0.202927,-0.233024,1.248459,1.286130,-0.422853,-0.090100,-0.214600,0.482675,-0.090100,0.000000,0.521826,MOVE,0,8,0.086917,4.592354,0.375536,1,337.161
14.974863,0.043381,0.096493,-0.157521,0.923124,0.941425,0.233216,0.148138,0.277452,0.391554,0.148138,0.000000,0.416926,MOVE,0,8,0.093343,4.592354,0.375536,1,338.493
15.018290,0.043427,0.040246,-0.079605,0.995014,0.999004,0.431137,0.114540,0.233775,0.503636,0.114540,0.000000,0.374338,MOVE,0,8,0.098317,4.592354,0.375536,1,339.758
15.068619,0.050329,0.056247,-0.078881,0.894367,0.899599,0.101575,0.014358,0.202927,0.227383,0.014358,0.000000,0.246543,MOVE,0,8,0.099040,4.592354,0.375536,1,340.698
15.112247,0.043628,0.080492,-0.071644,0.906065,0.912450,0.020175,-0.048383,0.000103,0.052421,-0.048383,0.000000,0.143094,MOVE,0,8,0.096929,4.592354,0.375536,1,341.129
15.155745,0.043498,0.113465,-0.105657,0.909233,0.922357,0.173303,0.021323,0.049093,0.181380,0.021323,0.000000,0.058906,MOVE,0,8,0.097856,4.592354,0.375536,1,341.453
15.206190,0.050445,0.064248,0.006070,0.917031,0.919299,0.052659,-0.053864,-0.188624,0.203109,-0.053864,0.000000,-0.019615,MOVE,1,9,0.095139,5.040319,0.418284,1,341.268
15.249716,0.043526,0.048004,-0.110240,0.878283,0.886476,0.089311,0.003252,-0.259485,0.274444,0.003252,0.000000,-0.119826,MOVE,0,9,0.095281,5.040319,0.418284,1,340.963
15.292888,0.043172,-0.014563,-0.060548,0.959191,0.961210,0.062043,0.065386,-0.079592,0.120248,0.065386,0.000000,-0.142754,MOVE,0,9,0.098104,5.040319,0.418284,1,341.012
15.343823,0.050935,-0.043937,-0.068749,0.974300,0.977710,0.060821,0.283771,0.010205,0.290395,0.283771,0.000000,-0.148539,MOVE,0,9,0.112557,5.040319,0.418284,1,341.232
15.388048,0.044225,-0.026658,0.023551,1.165358,1.165901,0.262406,0.138385,-0.025225,0.297731,0.138385,0.000000,0.015626,MOVE,0,9,0.118677,5.040319,0.418284,1,341.391
15.431258,0.043211,0.037579,-0.040767,1.248215,1.249446,-0.020381,0.045969,-0.141017,0.149714,0.045969,0.000000,0.238565,MOVE,0,9,0.120664,5.040319,0.418284,1,341.308
15.474722,0.043464,0.049944,0.077451,1.250652,1.254043,0.033680,-0.359340,-0.402162,0.540364,-0.359340,0.000000,0.443347,MOVE,0,9,0.105045,5.040319,0.418284,1,340.316
15.518183,0.043460,0.193714,-0.117959,1.206299,1.227436,0.102403,-0.146148,-0.706373,0.728566,-0.146148,0.000000,0.603704,MOVE,0,9,0.098694,5.040319,0.418284,1,338.485
15.565163,0.046980,0.226202,-0.202147,1.022552,1.066604,-0.003277,-0.098500,0.018724,0.100318,-0.098500,0.000000,0.603277,MOVE,0,9,0.094066,5.040319,0.418284,1,338.639
15.608319,0.043156,0.107404,-0.026535,0.823452,0.830850,0.457621,0.174556,0.539487,0.728651,0.174556,0.000000,0.390715,MOVE,0,9,0.101599,5.040319,0.418284,1,339.938
15.651673,0.043354,0.021820,0.136449,0.918737,0.929071,0.381568,-0.037719,-0.023425,0.384143,-0.037719,0.000000,0.287807,MOVE,0,9,0.099964,5.040319,0.418284,1,339.602
15.695670,0.043997,0.106676,0.057542,1.003544,1.010837,-0.273279,-0.069484,-0.507231,0.580338,-0.069484,0.000000,0.268779,MOVE,0,9,0.096907,5.040319,0.418284,1,338.095
15.739197,0.043527,0.126557,-0.046315,0.895342,0.905428,-0.384457,0.030087,-0.466914,0.605575,0.030087,0.000000,0.156786,MOVE,0,9,0.098216,5.040319,0.418284,1,336.636
15.782178,0.042981,0.109586,-0.036425,0.996964,1.003630,-0.259230,-0.115910,-0.367343,0.464301,-0.115910,0.000000,0.144374,MOVE,0,9,0.093234,5.040319,0.418284,1,335.792
15.825093,0.042914,0.081704,-0.054035,0.968939,0.973878,-0.232352,-0.081396,-0.115666,0.272013,-0.081396,0.000000,0.106427,MOVE,0,9,0.089741,5.040319,0.418284,1,335.526
15.869260,0.044168,0.030306,-0.062236,0.941888,0.944429,-0.084628,0.045225,0.150898,0.178822,0.045225,0.000000,0.045770,MOVE,0,9,0.091739,5.040319,0.418284,1,335.932
15.913169,0.043909,-0.027399,0.016267,0.934090,0.934633,-0.100816,0.088902,0.219926,0.257749,0.088902,0.000000,-0.017637,MOVE,1,10,0.095642,5.488263,0.461257,1,336.653
15.960494,0.047325,-0.063190,0.019666,0.951392,0.953691,-0.164041,0.167093,0.282539,0.366957,0.167093,0.000000,-0.057551,MOVE,0,10,0.103550,5.488263,0.461257,1,337.408
16.006498,0.046004,-0.015057,-0.024605,1.148299,1.148662,-0.041257,0.231234,0.142651,0.274810,0.231234,0.000000,0.082000,MOVE,0,10,0.114188,5.488263,0.461257,1,337.985
16.056887,0.050389,0.036367,-0.111929,1.175350,1.181227,-0.117615,0.556519,0.444418,0.721841,0.556519,0.000000,0.236904,MOVE,0,10,0.142230,5.488263,0.461257,1,338.908
16.100999,0.044112,0.003152,0.017967,1.002813,1.002979,0.022579,0.072714,-0.100473,0.126064,0.072714,0.000000,0.215894,MOVE,0,10,0.145438,5.488263,0.461257,1,338.655
16.152001,0.051002,0.193714,-0.164516,1.270879,1.296042,-0.203136,-0.281893,-0.246776,0.426176,-0.281893,0.000000,0.460743,MOVE,0,10,0.131061,5.488263,0.461257,1,337.733
16.202795,0.050793,0.170682,-0.205524,0.920930,0.958898,0.004253,0.022012,0.362868,0.363560,0.022012,0.000000,0.377676,MOVE,0,10,0.132179,5.488263,0.461257,1,338.417
16.253708,0.050913,0.116859,-0.083464,1.021090,1.031139,0.430637,-0.113600,0.384554,0.588417,-0.113600,0.000000,0.367933,MOVE,0,10,0.126395,5.488263,0.461257,1,339.310
16.300082,0.046374,0.121950,-0.106622,1.003787,1.016774,0.388487,-0.001811,0.380888,0.544060,-0.001811,0.000000,0.346237,MOVE,0,10,0.126311,5.488263,0.461257,1,339.921
16.338786,0.038704,0.140134,-0.082740,1.017922,1.030848,0.179266,-0.165829,0.124936,0.274307,-0.165829,0.000000,0.339376,MOVE,0,10,0.119893,5.488263,0.461257,1,339.984
16.380745,0.041959,0.168500,-0.104692,1.011829,1.031092,0.184763,0.021707,0.119438,0.221075,0.021707,0.000000,0.333422,MOVE,0,10,0.120804,5.488263,0.461257,1,339.824
16.418547,0.037802,0.138437,-0.066096,0.960653,0.972824,0.162161,0.065689,0.191520,0.259406,0.065689,0.000000,0.275622,MOVE,0,10,0.123287,5.488263,0.461257,1,339.861
16.466976,0.048429,0.110070,0.023308,0.952611,0.959232,0.008068,0.030416,-0.079001,0.085037,0.030416,0.000000,0.211368,MOVE,0,10,0.124760,5.488263,0.461257,1,339.227
16.504752,0.037776,0.127042,-0.034737,0.958460,0.967466,-0.002995,0.083569,-0.184571,0.202631,0.083569,0.000000,0.160951,MOVE,0,10,0.127917,5.488263,0.461257,1,338.320
16.546891,0.042139,0.125102,-0.013026,0.992577,1.000515,0.044374,0.117030,-0.275801,0.302872,0.117030,0.000000,0.145320,MOVE,0,10,0.132848,5.488263,0.461257,1,337.299
16.588440,0.041549,0.119526,-0.038837,1.024745,1.032423,-0.044506,0.156125,-0.301458,0.342393,0.156125,0.000000,0.159968,MOVE,0,10,0.139335,5.488263,0.461257,1,336.175
16.633383,0.044942,0.080977,-0.021228,1.031081,1.034474,-0.017628,0.213852,-0.375983,0.432905,0.213852,0.000000,0.174998,MOVE,0,10,0.148946,5.488263,0.461257,1,334.856
16.681778,0.048395,0.018426,-0.046798,1.006468,1.007724,0.005279,0.016848,-0.452647,0.452991,0.016848,0.000000,0.164450,MOVE,0,10,0.149762,5.488263,0.461257,1,333.559
16.719559,0.037781,0.128011,-0.099144,1.161459,1.172691,-0.149270,-0.228720,-0.523202,0.590199,-0.228720,0.000000,0.303427,MOVE,0,10,0.141120,5.488263,0.461257,1,331.906
16.767960,0.048401,0.103040,-0.134122,0.959922,0.974708,-0.173399,0.064190,-0.197916,0.270848,0.064190,0.000000,0.250321,MOVE,0,10,0.144227,5.488263,0.461257,1,331.209
16.812763,0.044803,0.060127,-0.064890,0.940913,0.945063,0.107069,0.005256,0.088459,0.138984,0.005256,0.000000,0.175846,MOVE,0,10,0.144463,5.488263,0.461257,1,331.227
16.854155,0.041392,0.043398,0.020152,1.018409,1.019533,0.174338,0.059522,-0.064378,0.195144,0.059522,0.000000,0.175841,MOVE,0,10,0.146926,5.488263,0.461257,1,331.106
16.899089,0.044934,0.083401,-0.022434,1.039611,1.043192,0.043893,0.081580,-0.192327,0.213475,0.081580,0.000000,0.197129,MOVE,0,10,0.150592,5.488263,0.461257,1,330.650
16.940503,0.041414,0.108858,-0.058618,0.985754,0.993477,-0.094552,-0.023895,-0.174786,0.200153,-0.023895,0.000000,0.171546,MOVE,0,10,0.149603,5.488263,0.461257,1,330.049
16.985339,0.044837,0.125829,-0.006996,1.026939,1.034642,-0.065525,-0.085945,-0.255752,0.277650,-0.085945,0.000000,0.185569,MOVE,0,10,0.145749,5.488263,0.461257,1,329.226
17.033878,0.048539,0.135770,-0.064649,0.986972,0.998362,-0.083325,-0.051514,-0.042141,0.106642,-0.051514,0.000000,0.165538,MOVE,0,10,0.143249,5.488263,0.461257,1,328.988
17.071733,0.037855,0.074916,-0.013991,0.875846,0.879156,-0.004981,0.030587,0.204502,0.206837,0.030587,0.000000,0.040225,MOVE,0,10,0.144407,5.488263,0.461257,1,329.480
17.120343,0.048610,0.040731,-0.005307,0.921418,0.922333,0.034114,0.056243,0.327897,0.334430,0.056243,0.000000,-0.033698,MOVE,1,11,0.147140,5.933400,0.527232,1,330.393
17.165262,0.044919,-0.030114,0.031563,0.967964,0.968946,0.205768,-0.033554,0.218552,0.302045,-0.033554,0.000000,-0.058276,MOVE,0,11,0.145633,5.933400,0.527232,1,331.000
17.206669,0.041407,0.124860,0.002914,1.304265,1.310232,0.149873,-0.246746,-0.179732,0.340073,-0.246746,0.000000,0.226760,MOVE,0,11,0.135416,5.933400,0.527232,1,330.514
17.251548,0.044880,0.098433,-0.082499,1.011586,1.019706,-0.164417,0.134434,-0.037401,0.215648,0.134434,0.000000,0.221819,MOVE,0,11,0.141450,5.933400,0.527232,1,330.232
17.292833,0.041285,0.017456,-0.096490,0.926048,0.931225,0.004487,-0.001178,0.239627,0.239672,-0.001178,0.000000,0.137740,MOVE,0,11,0.141401,5.933400,0.527232,1,330.614
17.337861,0.045028,-0.029620,-0.028706,0.973569,0.974442,0.127234,0.068511,0.061126,0.156903,0.068511,0.000000,0.100964,MOVE,0,11,0.144486,5.933400,0.527232,1,330.610
17.386917,0.049057,0.013577,-0.023399,1.044728,1.045079,-0.087625,-0.068515,-0.062862,0.127766,-0.068515,0.000000,0.131438,MOVE,0,11,0.141125,5.933400,0.527232,1,330.195
17.432297,0.045379,0.083644,-0.092872,1.082014,1.089209,-0.020185,-0.096968,-0.034810,0.104986,-0.096968,0.000000,0.198582,MOVE,0,11,0.136724,5.933400,0.527232,1,329.860
17.480640,0.048343,0.093827,-0.107587,1.103947,1.113138,0.081822,0.093321,0.132256,0.181371,0.093321,0.000000,0.280548,MOVE,0,11,0.141236,5.933400,0.527232,1,330.141
17.518726,0.038086,0.026427,-0.026776,0.949199,0.949944,0.054638,0.127224,0.323152,0.351565,0.127224,0.000000,0.207444,MOVE,0,11,0.146081,5.933400,0.527232,1,330.922
17.560097,0.041371,-0.034804,0.061912,0.950418,0.953068,0.096474,0.097284,-0.013434,0.137666,0.097284,0.000000,0.144460,MOVE,0,11,0.150106,5.933400,0.527232,1,331.109
17.601614,0.041517,0.004606,-0.028947,1.009392,1.009818,-0.073036,-0.042900,-0.125201,0.151162,-0.042900,0.000000,0.138850,MOVE,0,11,0.148325,5.933400,0.527232,1,330.869
17.646372,0.044758,0.055763,-0.090218,1.038149,1.043552,-0.100190,-0.018456,-0.111125,0.150757,-0.018456,0.000000,0.164162,MOVE,0,11,0.147499,5.933400,0.527232,1,330.547
17.687740,0.041368,0.054793,-0.085394,1.032300,1.037274,0.007632,0.052091,-0.014596,0.054633,0.052091,0.000000,0.181293,MOVE,0,11,0.149654,5.933400,0.527232,1,330.363
17.732554,0.044814,0.033215,-0.054758,0.996964,0.999019,-0.035734,0.027340,0.061143,0.075913,0.027340,0.000000,0.162280,MOVE,0,11,0.150879,5.933400,0.527232,1,330.321
17.774005,0.041451,0.018183,-0.023881,1.012317,1.012762,-0.000301,0.056653,0.010432,0.057606,0.056653,0.000000,0.157538,MOVE,0,11,0.153227,5.933400,0.527232,1,330.157
17.815244,0.041240,0.004122,-0.027259,0.978687,0.979075,-0.043369,-0.028270,-0.019499,0.055320,-0.028270,0.000000,0.122951,MOVE,0,11,0.152062,5.933400,0.527232,1,330.014
17.853275,0.038030,0.017941,-0.048245,1.010123,1.011434,-0.053432,-0.060936,-0.020713,0.083650,-0.060936,0.000000,0.120947,MOVE,0,11,0.149744,5.933400,0.527232,1,329.902
17.901944,0.048669,0.030548,-0.054758,1.041804,1.043689,0.042774,0.009014,0.004638,0.043959,0.009014,0.000000,0.148172,MOVE,0,11,0.150183,5.933400,0.527232,1,330.032
17.946987,0.045043,0.012122,-0.031359,1.014510,1.015067,-0.018923,-0.026109,0.009520,0.033621,-0.026109,0.000000,0.146915,MOVE,0,11,0.149007,5.933400,0.527232,1,330.235
17.988345,0.041358,0.017214,-0.047280,1.010855,1.012106,0.027803,0.038334,0.031203,0.056711,0.038334,0.000000,0.143119,MOVE,0,11,0.150592,5.933400,0.527232,1,330.371
18.033434,0.045089,0.009698,-0.010614,1.017434,1.017536,-0.021372,0.008401,-0.107145,0.109578,0.008401,0.000000,0.144590,MOVE,0,11,0.150971,5.933400,0.527232,1,330.119
18.082043,0.048609,0.026427,-0.058618,1.010123,1.012168,0.015280,0.009006,-0.046958,0.050196,0.009006,0.000000,0.141082,MOVE,0,11,0.151409,5.933400,0.527232,1,330.032
18.126838,0.044795,0.036124,-0.060306,1.027670,1.030071,0.018939,0.024883,-0.020988,0.037661,0.024883,0.000000,0.154038,MOVE,0,11,0.152523,5.933400,0.527232,1,330.013
18.168205,0.041366,0.026427,-0.044144,1.002813,1.004132,0.023214,0.054198,-0.038395,0.070360,0.054198,0.000000,0.142352,MOVE,0,11,0.154765,5.933400,0.527232,1,329.836
18.213114,0.044910,0.029094,-0.053552,1.003300,1.005149,-0.000916,0.000136,-0.020370,0.020391,0.000136,0.000000,0.132751,MOVE,0,11,0.154772,5.933400,0.527232,1,329.728
18.254702,0.041588,0.035397,-0.049210,1.029132,1.030916,0.010690,0.008382,-0.014868,0.020140,0.008382,0.000000,0.147300,MOVE,0,11,0.155120,5.933400,0.527232,1,329.757
18.299464,0.044762,0.031518,-0.041008,1.033031,1.034325,0.021985,0.029148,-0.016085,0.039896,0.029148,0.000000,0.163463,MOVE,0,11,0.156425,5.933400,0.527232,1,329.810
18.347956,0.048493,0.020850,-0.031118,1.010367,1.011061,0.025033,0.006848,-0.031961,0.041171,0.006848,0.000000,0.157071,MOVE,0,11,0.156757,5.933400,0.527232,1,329.819
18.393770,0.045814,0.026427,-0.037872,1.016460,1.017508,0.033578,0.012649,-0.007521,0.036661,0.012649,0.000000,0.157122,MOVE,0,11,0.157336,5.933400,0.527232,1,329.866
18.435062,0.041292,0.012607,-0.022434,1.010611,1.010938,0.047923,0.002875,-0.045693,0.066278,0.002875,0.000000,0.151254,MOVE,0,11,0.157455,5.933400,0.527232,1,329.779
18.479945,0.044883,0.019396,-0.063442,1.006468,1.008652,0.007295,-0.015755,0.006542,0.018554,-0.015755,0.000000,0.143916,MOVE,0,11,0.156748,5.933400,0.527232,1,329.740
18.528410,0.048464,0.020608,-0.039802,1.032544,1.033516,0.047604,0.022428,-0.040490,0.066398,0.022428,0.000000,0.159688,MOVE,0,11,0.157835,5.933400,0.527232,1,329.588
18.566275,0.037866,0.024729,-0.060065,1.010123,1.012210,-0.015924,-0.020636,0.018151,0.031763,-0.020636,0.000000,0.154708,MOVE,0,11,0.157054,5.933400,0.527232,1,329.549
18.614682,0.048407,0.031276,-0.044386,1.006955,1.008418,-0.002483,0.008686,0.016008,0.018381,0.008686,0.000000,0.146814,MOVE,0,11,0.157474,5.933400,0.527232,1,329.572
18.659730,0.045048,0.025942,-0.046798,0.979661,0.981121,-0.009201,-0.057584,0.037992,0.069599,-0.057584,0.000000,0.115142,MOVE,0,11,0.154880,5.933400,0.527232,1,329.682
18.701075,0.041345,0.033700,-0.053552,1.022552,1.024508,0.027448,-0.071612,0.049892,0.091493,-0.071612,0.000000,0.125685,MOVE,0,11,0.151919,5.933400,0.527232,1,329.813
18.745926,0.044851,0.027154,-0.034737,1.038392,1.039328,0.071109,-0.061822,0.048044,0.105767,-0.061822,0.000000,0.148511,MOVE,0,11,0.149146,5.933400,0.527232,1,329.930
18.787337,0.041411,0.033458,-0.036184,1.034981,1.036153,-0.002506,-0.037988,0.024214,0.045119,-0.037988,0.000000,0.166198,MOVE,0,11,0.147573,5.933400,0.527232,1,329.949
18.832177,0.044840,0.033700,-0.037390,1.029863,1.031092,-0.037626,0.012410,0.008947,0.040617,0.012410,0.000000,0.177561,MOVE,0,11,0.148130,5.933400,0.527232,1,329.937
18.880811,0.048634,0.032245,-0.032565,1.016703,1.017736,-0.088920,-0.020881,0.032151,0.096832,-0.020881,0.000000,0.175767,MOVE,0,11,0.147114,5.933400,0.527232,1,330.129
18.925787,0.044976,0.054308,-0.056929,1.102485,1.105288,-0.241016,0.206969,0.075217,0.326470,0.206969,0.000000,0.252950,MOVE,0,11,0.156423,5.933400,0.527232,1,330.315
18.967238,0.041451,0.059642,-0.006996,1.053745,1.055455,-0.405644,0.468725,0.119505,0.631294,0.468725,0.000000,0.277564,MOVE,0,11,0.175852,5.933400,0.527232,1,330.709
19.012125,0.044887,0.024002,-0.084429,0.985266,0.989168,-0.277974,0.341360,0.085296,0.448410,0.341360,0.000000,0.240059,MOVE,0,11,0.191175,5.933400,0.527232,1,331.290
19.053676,0.041551,0.006061,-0.046074,0.952611,0.953744,-0.094409,0.293407,0.022683,0.309055,0.293407,0.000000,0.174423,MOVE,0,11,0.203366,5.933400,0.527232,1,331.918
19.098804,0.045127,0.016486,-0.048245,0.944813,0.946187,-0.192147,0.093043,-0.145916,0.258590,0.093043,0.000000,0.108549,MOVE,0,11,0.207565,5.933400,0.527232,1,332.287
19.147103,0.048299,0.045095,-0.009167,1.020115,1.021152,-0.093187,0.057307,-0.224718,0.249932,0.057307,0.000000,0.116731,MOVE,0,11,0.210333,5.933400,0.527232,1,332.517
19.192090,0.044987,-0.001728,-0.063442,1.025720,1.027682,0.045785,0.302570,-0.284888,0.418098,0.302570,0.000000,0.129972,MOVE,0,11,0.223944,5.933400,0.527232,1,332.752
19.233575,0.041485,-0.058994,-0.047763,1.000619,1.003494,0.149632,0.308678,-0.477922,0.588287,0.308678,0.000000,0.120119,MOVE,0,11,0.236750,5.933400,0.527232,1,332.582
19.278484,0.044909,-0.049367,-0.029430,1.036930,1.038522,0.216216,0.149853,-0.858185,0.897601,0.149853,0.000000,0.142777,MOVE,0,11,0.243480,5.933400,0.527232,1,331.496
19.320057,0.041573,0.013092,-0.045350,1.045460,1.046525,0.046701,-0.021800,-1.344739,1.345727,-0.021800,0.000000,0.170371,MOVE,0,11,0.242573,5.933400,0.527232,1,329.403
19.361497,0.041440,0.064248,-0.104692,1.061543,1.068627,0.006384,0.074717,-1.410713,1.412704,0.074717,0.000000,0.215098,MOVE,0,11,0.245670,5.933400,0.527232,1,327.697
19.399575,0.038078,0.051156,-0.077192,0.937502,0.942064,0.096181,0.269583,-1.405826,1.434668,0.269583,0.000000,0.141446,MOVE,0,11,0.255935,5.933400,0.527232,1,326.057
19.447913,0.048338,0.038549,-0.034495,0.975518,0.976889,0.208275,0.267750,-1.645285,1.679890,0.267750,0.000000,0.106502,MOVE,0,11,0.268877,5.933400,0.527232,1,325.353
19.492827,0.044914,0.064248,-0.014956,1.014510,1.016652,0.217744,0.318147,-1.892074,1.930952,0.318147,0.000000,0.110839,MOVE,0,11,0.283167,5.933400,0.527232,1,308.903
19.534477,0.041649,0.085583,-0.007478,1.018165,1.021783,0.260199,0.196890,-2.308990,2.331932,0.196890,0.000000,0.119360,MOVE,0,11,0.291367,5.933400,0.527232,1,293.314
19.579414,0.044938,0.170682,-0.088771,1.075678,1.092747,0.048839,0.318452,-2.567386,2.587522,0.318452,0.000000,0.190896,MOVE,0,11,0.305678,5.933400,0.527232,1,277.562
19.627812,0.048398,0.129951,-0.072609,1.000132,1.011149,0.026543,0.405195,-2.504162,2.536871,0.405195,0.000000,0.181841,MOVE,0,11,0.325288,5.933400,0.527232,1,264.308
19.665736,0.037924,0.142073,-0.075504,1.018165,1.030799,0.182924,0.337084,-2.477589,2.507097,0.337084,0.000000,0.191376,MOVE,0,11,0.338072,5.933400,0.527232,1,250.260
19.714207,0.048471,0.154923,-0.076227,1.060569,1.074531,0.150243,0.298905,-2.388708,2.412021,0.298905,0.000000,0.239316,MOVE,0,11,0.352560,5.933400,0.527232,1,237.528
19.759176,0.044969,0.104494,-0.051864,0.947981,0.955132,0.277608,0.371597,-2.196896,2.245329,0.371597,0.000000,0.175003,MOVE,0,11,0.369270,5.933400,0.527232,1,226.105
19.800534,0.041357,0.077098,-0.033530,0.970401,0.974036,0.213773,0.421688,-2.198729,2.248984,0.421688,0.000000,0.134135,MOVE,0,11,0.386710,5.933400,0.527232,1,214.837
19.845448,0.044915,0.065945,-0.022916,1.030350,1.032713,0.258061,0.437571,-2.360303,2.414352,0.437571,0.000000,0.150163,MOVE,0,11,0.406364,5.933400,0.527232,1,204.096
19.887107,0.041659,0.090190,-0.102762,1.044485,1.053396,0.349996,0.395116,-2.399093,2.456473,0.395116,0.000000,0.183203,MOVE,0,11,0.422824,5.933400,0.527232,1,193.810
19.928557,0.041450,0.071522,-0.083947,0.980636,0.986818,0.383288,0.353272,-2.452849,2.507624,0.353272,0.000000,0.153019,MOVE,0,11,0.437467,5.933400,0.527232,1,183.268
19.973473,0.044916,0.080734,-0.105657,1.033031,1.041554,0.621220,0.063111,-2.682840,2.754546,0.063111,0.000000,0.175115,MOVE,0,11,0.440301,5.933400,0.527232,1,173.456
20.015448,0.041975,0.150316,-0.204801,1.233106,1.259003,0.396422,0.386258,-2.291886,2.357771,0.386258,0.000000,0.390707,MOVE,0,11,0.456515,5.933400,0.527232,1,164.678
20.056859,0.041410,0.070794,-0.156073,0.959435,0.974621,0.433379,0.462922,-2.164521,2.255496,0.462922,0.000000,0.328795,MOVE,0,11,0.475685,5.933400,0.527232,1,157.133
20.094991,0.038132,0.050186,-0.143529,1.037905,1.048983,0.425743,0.279357,-2.302271,2.357912,0.279357,0.000000,0.340000,MOVE,0,11,0.486337,5.933400,0.527232,1,148.375
20.143301,0.048310,0.074916,-0.150284,1.039367,1.052844,0.313955,0.166958,-2.364884,2.391468,0.166958,0.000000,0.353560,MOVE,0,11,0.494403,5.933400,0.527232,1,140.247
20.188224,0.044923,0.118314,-0.171029,1.028157,1.048979,0.267224,0.138858,-2.469037,2.487334,0.138858,0.000000,0.362285,MOVE,0,11,0.500641,5.933400,0.527232,1,132.871
20.229688,0.041464,0.106676,-0.196840,0.958947,0.984736,0.293491,0.119005,-2.264397,2.286437,0.119005,0.000000,0.312319,MOVE,0,11,0.505575,5.933400,0.527232,1,125.784
20.274590,0.044902,0.035397,-0.110723,0.945056,0.952179,0.289826,0.152602,-2.295856,2.319104,0.152602,0.000000,0.238048,MOVE,0,11,0.512427,5.933400,0.527232,1,119.295
20.316108,0.041517,0.050914,-0.177542,0.998426,1.015366,0.222325,0.018517,-2.194453,2.205764,0.018517,0.000000,0.228072,MOVE,0,11,0.513196,5.933400,0.527232,1,112.761
20.361041,0.044934,0.065218,-0.123749,1.040098,1.049462,0.233626,0.028291,-2.338312,2.350124,0.028291,0.000000,0.249781,MOVE,0,11,0.514467,5.933400,0.527232,1,105.597
20.409665,0.048623,0.078068,-0.162104,1.036686,1.052184,0.242178,-0.030963,-2.210641,2.224082,-0.030963,0.000000,0.271769,MOVE,0,11,0.512962,5.933400,0.527232,1,99.332
20.454571,0.044907,0.066673,-0.102280,1.043510,1.050628,0.145967,0.056086,-2.162688,2.168334,0.056086,0.000000,0.290157,MOVE,0,11,0.515480,5.933400,0.527232,1,93.800
20.495942,0.041371,0.017941,-0.127126,0.965040,0.973542,0.165515,0.106482,-1.971792,1.981590,0.106482,0.000000,0.237329,MOVE,0,11,0.519886,5.933400,0.527232,1,88.685
20.538397,0.042454,-0.001234,-0.127609,0.966258,0.974649,0.267224,0.076244,-1.688046,1.710766,0.076244,0.000000,0.190780,MOVE,0,11,0.523123,5.933400,0.527232,1,84.058
20.583409,0.045013,-0.035791,-0.114341,0.988678,0.995911,0.186589,-0.139391,-1.535635,1.553196,-0.139391,0.000000,0.168022,MOVE,0,11,0.516848,5.933400,0.527232,1,80.269
20.625457,0.042047,-0.052576,-0.156314,1.073241,1.085838,-0.028435,-0.181846,-1.310225,1.323090,-0.181846,0.000000,0.228474,MOVE,0,11,0.509202,5.933400,0.527232,1,76.862
20.670307,0.044850,-0.055291,-0.153420,1.001838,1.015024,-0.057451,0.041425,-1.002349,1.004849,0.041425,0.000000,0.219148,MOVE,0,11,0.511060,5.933400,0.527232,1,73.923
20.718610,0.048303,-0.092563,-0.180196,0.929216,0.951042,-0.054091,0.067387,-0.722879,0.728025,0.067387,0.000000,0.153172,MOVE,0,11,0.514315,5.933400,0.527232,1,72.263
20.756460,0.037850,-0.080962,-0.151007,0.951149,0.966459,-0.055619,-0.014775,-0.462344,0.465912,-0.014775,0.000000,0.107667,MOVE,0,11,0.513756,5.933400,0.527232,1,70.800
20.804794,0.048333,-0.046158,-0.062960,0.907771,0.911121,-0.098379,0.093959,-0.169129,0.217052,0.093959,0.000000,0.016910,MOVE,1,12,0.518297,6.324299,0.750162,1,70.273
20.849719,0.044925,-0.091329,-0.010855,0.960166,0.964560,0.031124,-0.045318,-0.186844,0.194765,-0.045318,0.000000,-0.016677,MOVE,0,12,0.516261,6.324299,0.750162,1,69.767
20.891752,0.042033,-0.032829,-0.028223,1.077627,1.078497,-0.001557,-0.076472,-0.236019,0.248103,-0.076472,0.000000,0.055638,MOVE,0,12,0.513047,6.324299,0.750162,1,69.042
20.936770,0.045018,-0.013576,-0.040767,1.049359,1.050238,-0.143889,-0.121065,-0.285804,0.342118,-0.121065,0.000000,0.095288,MOVE,0,12,0.507597,6.324299,0.750162,1,68.119
20.985180,0.048410,-0.008392,-0.105174,1.069585,1.074777,-0.119149,-0.053259,-0.198756,0.237775,-0.053259,0.000000,0.153058,MOVE,0,12,0.505018,6.324299,0.750162,1,67.595
21.030134,0.044953,-0.022956,-0.086841,1.020115,1.024062,-0.135315,-0.085014,0.121649,0.200838,-0.085014,0.000000,0.159408,MOVE,0,12,0.501197,6.324299,0.750162,1,67.667
21.071518,0.041384,-0.055785,-0.020263,0.986729,0.988512,-0.038798,0.009059,0.244433,0.247659,0.009059,0.000000,0.133128,MOVE,0,12,0.501572,6.324299,0.750162,1,68.012
21.113009,0.041491,-0.109842,0.022094,0.976981,0.983384,0.021976,-0.002549,0.022682,0.031685,-0.002549,0.000000,0.104861,MOVE,0,12,0.501466,6.324299,0.750162,1,67.873
21.151496,0.038487,-0.074298,-0.055964,1.038636,1.042793,-0.057427,-0.042853,-0.026793,0.076499,-0.042853,0.000000,0.132889,MOVE,0,12,0.499817,6.324299,0.750162,1,67.615
21.194719,0.043222,-0.060475,-0.071644,1.014023,1.018348,-0.020459,0.053963,-0.073512,0.093459,0.053963,0.000000,0.136113,MOVE,0,12,0.502149,6.324299,0.750162,1,67.240
21.238035,0.043316,-0.038506,-0.095767,1.036686,1.041812,0.010388,0.040515,-0.139757,0.145881,0.040515,0.000000,0.160132,MOVE,0,12,0.503904,6.324299,0.750162,1,66.793
21.288408,0.050373,-0.037272,-0.101797,0.942863,0.949075,-0.045504,0.020354,0.018765,0.053264,0.020354,0.000000,0.098286,MOVE,0,12,0.504929,6.324299,0.750162,1,66.690
21.339225,0.050817,-0.074298,-0.055241,0.963334,0.967772,-0.007933,-0.002556,-0.015442,0.017547,-0.002556,0.000000,0.059453,MOVE,0,12,0.504799,6.324299,0.750162,1,66.570
21.383154,0.043930,-0.072076,-0.043421,1.048628,1.051998,0.013142,-0.110055,-0.004752,0.110939,-0.110055,0.000000,0.100306,MOVE,0,12,0.499965,6.324299,0.750162,1,66.452
21.426830,0.043676,-0.068127,-0.010131,1.003787,1.006147,0.051923,-0.027266,-0.139729,0.151537,-0.027266,0.000000,0.095808,MOVE,0,12,0.498774,6.324299,0.750162,1,66.017
21.470723,0.043893,-0.065905,-0.049451,0.937989,0.941601,0.029007,-0.117963,-0.136333,0.182602,-0.117963,0.000000,0.033668,MOVE,1,13,0.493596,6.720585,0.963370,1,65.542
21.517916,0.047193,-0.040234,-0.051622,1.009880,1.011998,0.042751,-0.109106,-0.180010,0.214792,-0.109106,0.000000,0.041100,MOVE,0,13,0.488447,6.720585,0.963370,1,65.104
21.561729,0.043813,-0.003949,-0.063684,1.007686,1.009705,0.019532,-0.094422,-0.154321,0.181967,-0.094422,0.000000,0.045724,MOVE,0,13,0.484310,6.720585,0.963370,1,64.615
21.605442,0.043713,0.003637,-0.026052,1.018165,1.018505,0.055562,-0.015911,-0.152450,0.163037,-0.015911,0.000000,0.057806,MOVE,0,13,0.483615,6.720585,0.963370,1,64.108
21.648947,0.043505,-0.029867,-0.045109,0.913620,0.915220,0.036925,0.031729,-0.095315,0.107029,0.031729,0.000000,-0.024276,MOVE,0,13,0.484995,6.720585,0.963370,1,63.718
21.693012,0.044065,-0.030854,-0.033530,1.017678,1.018698,0.021035,-0.075159,-0.152705,0.171494,-0.075159,0.000000,-0.005021,MOVE,0,13,0.481683,6.720585,0.963370,1,63.276
21.736538,0.043527,-0.008639,-0.002171,1.081770,1.081807,0.026837,-0.202823,-0.337172,0.394389,-0.202823,0.000000,0.069108,MOVE,0,13,0.472855,6.720585,0.963370,1,62.403
21.783706,0.047168,0.001940,-0.100350,1.143426,1.147822,-0.081286,-0.325302,-0.540590,0.636134,-0.325302,0.000000,0.195237,MOVE,0,13,0.457511,6.720585,0.963370,1,61.181
21.827181,0.043474,0.017214,-0.196358,1.081283,1.099102,-0.099612,-0.077901,0.062945,0.141256,-0.077901,0.000000,0.264905,MOVE,0,13,0.454124,6.720585,0.963370,1,61.273
21.870908,0.043728,-0.081209,-0.029671,0.991602,0.995365,0.152370,0.153311,0.188478,0.286783,0.153311,0.000000,0.234243,MOVE,0,13,0.460828,6.720585,0.963370,1,61.552
21.914842,0.043933,-0.090342,0.021123,0.957972,0.962455,0.040567,-0.013155,0.038802,0.057657,-0.013155,0.000000,0.177028,MOVE,0,13,0.460250,6.720585,0.963370,1,61.510
21.965582,0.050740,-0.044677,0.005827,1.058132,1.059091,-0.032732,-0.096829,-0.138942,0.172488,-0.096829,0.000000,0.212506,MOVE,0,13,0.455337,6.720585,0.963370,1,61.068
22.008564,0.042983,0.004364,-0.014956,1.079090,1.079202,-0.073655,-0.064141,-0.270263,0.287370,-0.064141,0.000000,0.262538,MOVE,0,13,0.452580,6.720585,0.963370,1,60.407
22.052199,0.043634,0.027639,-0.044627,1.076653,1.077932,-0.096859,-0.057417,-0.165180,0.199907,-0.057417,0.000000,0.306422,MOVE,0,13,0.450075,6.720585,0.963370,1,59.834
22.095835,0.043636,0.021820,-0.071644,0.975031,0.977903,0.004544,-0.005190,-0.065596,0.065958,-0.005190,0.000000,0.255893,MOVE,0,13,0.449848,6.720585,0.963370,1,59.520
22.146360,0.050525,-0.002962,-0.054758,0.956754,0.958324,-0.031186,-0.002732,0.016871,0.035562,-0.002732,0.000000,0.192795,MOVE,0,13,0.449710,6.720585,0.963370,1,59.407
22.190014,0.043654,-0.053563,-0.038355,0.927023,0.929361,-0.036067,-0.028687,0.081611,0.093724,-0.028687,0.000000,0.109940,MOVE,0,13,0.448458,6.720585,0.963370,1,59.513
22.241170,0.051156,-0.092070,0.001942,0.942619,0.947107,-0.087667,0.010413,0.073035,0.114578,0.010413,0.000000,0.051343,MOVE,0,13,0.448991,6.720585,0.963370,1,59.573
22.284617,0.043447,-0.098241,0.004613,0.969670,0.974645,-0.157289,0.133793,0.064475,0.216327,0.133793,0.000000,0.023389,MOVE,1,14,0.454804,7.124841,1.161049,0,59.558
22.335323,0.050706,-0.057760,-0.066578,1.246022,1.249136,-0.379949,0.056824,0.218414,0.441922,0.056824,0.000000,0.245272,MOVE,0,14,0.457685,7.124841,1.161049,0,59.921
22.379583,0.044260,-0.079975,-0.131709,1.003300,1.015064,0.137759,0.417540,0.161603,0.468437,0.417540,0.000000,0.234302,MOVE,0,14,0.476165,7.124841,1.161049,0,60.154
22.423167,0.043584,0.018183,-0.115065,1.377618,1.382535,0.101718,-0.471269,-0.351829,0.596846,-0.471269,0.000000,0.555153,MOVE,0,14,0.455625,7.124841,1.161049,0,59.389
22.466831,0.043664,0.142316,-0.243879,1.199720,1.232501,0.037272,-0.061684,-0.052811,0.089348,-0.061684,0.000000,0.708888,MOVE,0,14,0.452932,7.124841,1.161049,0,59.210
22.513760,0.046929,0.081219,-0.162827,1.020359,1.036456,0.199151,-0.005484,0.412363,0.457968,-0.005484,0.000000,0.670810,MOVE,0,14,0.452675,7.124841,1.161049,0,60.145
22.557652,0.043892,-0.017772,-0.040526,0.937502,0.938546,0.567503,0.394022,0.451764,0.825472,0.394022,0.000000,0.548420,MOVE,0,14,0.469969,7.124841,1.161049,0,61.121
22.601451,0.043799,-0.011108,-0.051622,0.957485,0.958940,0.322241,0.251996,0.297215,0.505646,0.251996,0.000000,0.456624,MOVE,0,14,0.481006,7.124841,1.161049,0,61.665
22.644724,0.043272,0.027881,-0.075021,1.115888,1.118754,0.060790,0.173500,0.051036,0.190794,0.173500,0.000000,0.517840,MOVE,0,14,0.488514,7.124841,1.161049,0,61.714
22.688372,0.043649,0.065460,-0.119889,1.046434,1.055312,0.018941,0.099552,0.025985,0.104616,0.099552,0.000000,0.515837,MOVE,0,14,0.492859,7.124841,1.161049,0,61.717
22.738786,0.050414,0.059642,-0.101074,0.989409,0.996345,0.001837,0.160627,0.100197,0.189324,0.160627,0.000000,0.460964,MOVE,0,14,0.500957,7.124841,1.161049,0,62.003
22.782435,0.043649,0.008970,-0.077434,0.757897,0.761895,0.040932,0.050060,0.261771,0.269639,0.050060,0.000000,0.200573,MOVE,0,14,0.503142,7.124841,1.161049,0,62.683
22.833009,0.050574,-0.059241,-0.032083,0.792746,0.795603,0.023523,-0.006750,0.258716,0.259871,-0.006750,0.000000,-0.003441,MOVE,1,15,0.502801,7.519147,1.377896,0,63.258
22.876714,0.043706,-0.128108,0.029863,0.781048,0.792048,-0.304207,-0.125869,0.056215,0.333983,-0.125869,0.000000,-0.190254,MOVE,0,15,0.497300,7.519147,1.377896,0,63.543
22.920143,0.043428,-0.126627,-0.003860,1.051064,1.058672,-0.174994,0.003634,-0.037550,0.179014,0.003634,0.000000,-0.118424,MOVE,0,15,0.497457,7.519147,1.377896,0,63.590
22.970835,0.050692,-0.137241,-0.016403,1.061056,1.070021,0.010404,0.346330,-0.093139,0.358786,0.346330,0.000000,-0.043563,MOVE,0,15,0.515014,7.519147,1.377896,0,63.535
23.013708,0.042872,-0.012835,-0.146665,1.204837,1.213799,-0.046101,0.145966,0.033921,0.156786,0.145966,0.000000,0.153213,MOVE,0,15,0.521272,7.519147,1.377896,0,63.668
23.056847,0.043140,-0.015304,-0.074539,1.180955,1.183404,0.162501,0.118761,-0.126435,0.237690,0.118761,0.000000,0.302955,MOVE,0,15,0.526395,7.519147,1.377896,0,63.412
23.100236,0.043389,0.072006,-0.027259,1.212636,1.215077,0.216562,-0.764245,-0.632843,1.015608,-0.764245,0.000000,0.466229,MOVE,0,15,0.493235,7.519147,1.377896,0,62.281
23.143102,0.042865,0.170682,-0.212279,1.212148,1.242376,-0.072071,-0.447511,-0.344514,0.569343,-0.447511,0.000000,0.637744,MOVE,0,15,0.474052,7.519147,1.377896,0,61.876
23.186530,0.043428,0.084614,-0.176095,0.937745,0.957881,-0.010374,0.340810,0.623707,0.710823,0.340810,0.000000,0.536063,MOVE,0,15,0.488853,7.519147,1.377896,0,63.482
23.237173,0.050643,-0.082937,0.152959,0.771057,0.790445,0.411734,0.367383,0.097752,0.560402,0.367383,0.000000,0.293857,MOVE,0,15,0.507458,7.519147,1.377896,0,63.786
23.280613,0.043440,-0.000741,0.047830,0.970157,0.971336,-0.290150,-0.226989,-0.466993,0.594806,-0.226989,0.000000,0.238673,MOVE,0,15,0.497598,7.519147,1.377896,0,62.492
23.331506,0.050893,0.152741,-0.126402,1.056670,1.075108,-0.285874,0.076305,-0.553736,0.627830,0.076305,0.000000,0.282404,MOVE,0,15,0.501481,7.519147,1.377896,0,61.385
23.376788,0.045282,0.131891,-0.188639,1.000132,1.026277,0.067209,0.058282,-0.083051,0.121702,0.058282,0.000000,0.277812,MOVE,0,15,0.504121,7.519147,1.377896,0,61.222
23.427454,0.050666,-0.006911,-0.037149,0.928972,0.929741,0.044903,0.082089,-0.067767,0.115530,0.082089,0.000000,0.186797,MOVE,0,15,0.508280,7.519147,1.377896,0,61.207
23.471025,0.043570,-0.058994,-0.014232,0.877065,0.879162,0.024740,-0.046197,-0.057684,0.077934,-0.046197,0.000000,0.059364,MOVE,0,15,0.506267,7.519147,1.377896,0,61.192
23.514434,0.043409,-0.066646,-0.041250,0.892418,0.895853,0.012828,0.253127,-0.078453,0.265316,0.253127,0.000000,-0.040305,MOVE,0,15,0.517255,7.519147,1.377896,0,61.140
23.562033,0.047599,-0.096266,0.061184,0.894367,0.901612,-0.038484,0.114155,-0.056767,0.133172,0.114155,0.000000,-0.124824,MOVE,0,15,0.522689,7.519147,1.377896,0,61.152
23.607568,0.045535,-0.081949,-0.019298,1.038149,1.041557,0.104764,0.275118,-0.020115,0.295076,0.275118,0.000000,-0.074940,MOVE,0,15,0.535216,7.519147,1.377896,0,61.287
23.657900,0.050332,-0.034063,-0.128815,1.119056,1.126960,-0.175929,0.415617,0.337546,0.563583,0.415617,0.000000,0.046818,MOVE,0,15,0.556135,7.519147,1.377896,0,62.108
23.700981,0.043081,-0.074791,-0.033289,1.090056,1.093126,-0.062003,0.439746,0.131074,0.463035,0.439746,0.000000,0.125949,MOVE,0,15,0.575080,7.519147,1.377896,0,62.535
23.743949,0.042968,-0.038506,-0.054517,1.289156,1.290883,0.000306,-0.530614,-0.317607,0.618405,-0.530614,0.000000,0.375149,MOVE,0,15,0.552280,7.519147,1.377896,0,62.055
23.787668,0.043719,0.106191,-0.212520,1.205081,1.228276,-0.328340,-0.090791,-0.138318,0.367671,-0.090791,0.000000,0.543082,MOVE,0,15,0.548311,7.519147,1.377896,0,61.891
23.838067,0.050399,0.040004,-0.200941,0.859031,0.883127,-0.004581,-0.052306,0.455138,0.458156,-0.052306,0.000000,0.383588,MOVE,0,15,0.545675,7.519147,1.377896,0,63.102
23.881949,0.043882,0.008728,-0.075745,0.922636,0.925781,0.228158,0.221972,0.483238,0.578659,0.221972,0.000000,0.278432,MOVE,0,15,0.555415,7.519147,1.377896,0,64.539
23.933066,0.051117,-0.008639,-0.092390,0.876821,0.881718,0.083078,-0.008324,0.337852,0.348016,-0.008324,0.000000,0.144135,MOVE,0,15,0.554990,7.519147,1.377896,0,65.310
23.976547,0.043481,0.037579,-0.091425,1.054233,1.058856,0.093463,-0.201052,0.057770,0.229117,-0.201052,0.000000,0.182692,MOVE,0,15,0.546248,7.519147,1.377896,0,65.575
24.027599,0.051053,0.080977,-0.138464,1.017191,1.029760,0.055584,-0.064823,0.103576,0.134237,-0.064823,0.000000,0.191207,MOVE,0,15,0.542939,7.519147,1.377896,0,65.821
24.071439,0.043840,0.038306,-0.105416,0.920687,0.927493,-0.089802,-0.016260,0.305162,0.318516,-0.016260,0.000000,0.106831,MOVE,0,15,0.542226,7.519147,1.377896,0,66.469
24.115057,0.043618,-0.064424,-0.037149,0.811267,0.814668,0.077881,-0.019314,0.188792,0.205136,-0.019314,0.000000,-0.070651,MOVE,0,15,0.541383,7.519147,1.377896,0,66.896
24.158700,0.043643,-0.104905,-0.061271,0.900460,0.908618,0.066885,-0.138433,0.204674,0.255986,-0.138433,0.000000,-0.145829,MOVE,0,15,0.535342,7.519147,1.377896,0,67.319
24.209039,0.050338,-0.121690,-0.045350,1.036686,1.044789,0.204941,0.029555,0.159470,0.261352,0.029555,0.000000,-0.090936,MOVE,0,15,0.536830,7.519147,1.377896,0,67.670
24.252768,0.043729,-0.090342,-0.102039,0.989409,0.998751,0.321005,-0.182415,0.258736,0.450848,-0.182415,0.000000,-0.082967,MOVE,0,15,0.528853,7.519147,1.377896,0,68.323
24.303845,0.051077,-0.020734,-0.099868,1.262837,1.266949,0.162791,0.140122,0.157332,0.266249,0.140122,0.000000,0.165584,MOVE,0,15,0.536010,7.519147,1.377896,0,68.561
24.355211,0.051366,-0.065411,-0.062719,1.142207,1.145796,-0.116680,0.173720,-0.023178,0.210547,0.173720,0.000000,0.280243,MOVE,0,15,0.544933,7.519147,1.377896,0,68.208
24.398856,0.043645,-0.014563,-0.016645,1.177543,1.177751,-0.249543,-0.347349,-0.571430,0.713761,-0.347349,0.000000,0.412194,MOVE,0,15,0.529773,7.519147,1.377896,0,66.433
24.449364,0.050508,0.095039,-0.185020,0.999888,1.021294,-0.368051,-0.366896,-0.497210,0.719230,-0.366896,0.000000,0.390139,MOVE,0,15,0.511241,7.519147,1.377896,0,65.375
24.493354,0.043990,0.077340,-0.177301,0.869267,0.890529,0.211049,0.081173,0.381520,0.443496,0.081173,0.000000,0.252601,MOVE,0,15,0.514812,7.519147,1.377896,0,66.105
24.540850,0.047496,-0.058006,0.176753,0.820771,0.841589,0.568100,0.060099,-0.003020,0.571278,0.060099,0.000000,0.084771,MOVE,0,15,0.517667,7.519147,1.377896,0,65.934
24.584335,0.043485,-0.015057,0.104886,1.004031,1.009607,-0.049790,-0.071848,-0.634654,0.640646,-0.071848,0.000000,0.084940,MOVE,0,15,0.514542,7.519147,1.377896,0,64.218
24.627860,0.043525,0.087765,-0.052587,1.040098,1.045118,-0.461208,-0.102392,-0.906184,1.021942,-0.102392,0.000000,0.117053,MOVE,0,15,0.510086,7.519147,1.377896,0,61.593
24.678183,0.050323,0.125829,-0.203595,1.042048,1.069181,-0.104463,-0.023590,-0.555853,0.566075,-0.023590,0.000000,0.167610,MOVE,0,15,0.508899,7.519147,1.377896,0,60.159
24.721444,0.043261,0.069340,-0.111205,0.930678,0.939860,0.209828,0.118742,-0.047002,0.245635,0.118742,0.000000,0.096723,MOVE,0,15,0.514036,7.519147,1.377896,0,59.889
24.764937,0.043494,-0.047886,-0.025570,0.827351,0.829130,0.213493,0.308721,-0.131302,0.397653,0.308721,0.000000,-0.066732,MOVE,0,15,0.527463,7.519147,1.377896,0,59.503
24.808579,0.043642,-0.074791,-0.023399,0.883157,0.886627,-0.113611,0.013670,-0.049740,0.124774,0.013670,0.000000,-0.162094,MOVE,0,15,0.528059,7.519147,1.377896,0,59.343
24.852253,0.043674,-0.065905,0.009954,0.987703,0.989950,-0.093441,0.200585,-0.111740,0.247893,0.200585,0.000000,-0.154930,MOVE,0,15,0.536820,7.519147,1.377896,0,59.034
24.903128,0.050874,-0.034804,-0.056206,1.004762,1.006935,-0.056483,0.262588,0.048612,0.272958,0.262588,0.000000,-0.133196,MOVE,0,15,0.550179,7.519147,1.377896,0,59.103
24.946401,0.043273,-0.036532,-0.046074,1.094686,1.096264,0.101120,0.389648,0.073352,0.409183,0.389648,0.000000,-0.033239,MOVE,1,16,0.567040,7.898720,1.619608,0,59.254
24.990189,0.043788,-0.047639,-0.059824,1.085913,1.088603,-0.089775,0.172485,-0.004227,0.194496,0.172485,0.000000,0.049828,MOVE,0,16,0.574593,7.898720,1.619608,0,59.388
25.041490,0.051301,-0.016291,-0.056929,1.152686,1.154206,0.017431,-0.194950,-0.087305,0.214317,-0.194950,0.000000,0.183630,MOVE,0,16,0.564592,7.898720,1.619608,0,59.360
25.091964,0.050473,0.048489,-0.181884,1.184367,1.199232,-0.024418,-0.088042,-0.038424,0.099116,-0.088042,0.000000,0.344576,MOVE,0,16,0.560148,7.898720,1.619608,0,59.392
25.135045,0.043082,0.017214,-0.194187,1.001107,1.019911,-0.186909,-0.088348,0.217529,0.300098,-0.088348,0.000000,0.328039,MOVE,0,16,0.556342,7.898720,1.619608,0,59.926
25.178984,0.043939,-0.004690,-0.116512,0.952367,0.959479,0.286207,0.074448,0.245018,0.384045,0.074448,0.000000,0.258766,MOVE,0,16,0.559613,7.898720,1.619608,0,60.608
25.229817,0.050833,0.023760,-0.092872,0.960166,0.964939,-0.058622,0.046344,0.150626,0.168145,0.046344,0.000000,0.201335,MOVE,0,16,0.561969,7.898720,1.619608,0,60.857
25.273592,0.043776,0.050186,-0.069956,1.056182,1.059685,-0.072046,-0.069713,-0.146246,0.177309,-0.069713,0.000000,0.234918,MOVE,0,16,0.558917,7.898720,1.619608,0,60.430
25.324373,0.050781,0.080250,-0.115547,0.992821,1.002739,-0.024388,-0.027554,-0.074442,0.083040,-0.027554,0.000000,0.213891,MOVE,0,16,0.557518,7.898720,1.619608,0,60.214
25.368011,0.043638,0.035882,-0.040285,0.965283,0.966790,-0.013083,0.000550,-0.082076,0.083114,0.000550,0.000000,0.162613,MOVE,0,16,0.557542,7.898720,1.619608,0,60.026
25.412440,0.044429,-0.025918,-0.056447,0.854157,0.856413,0.055638,-0.000680,-0.101918,0.116117,-0.000680,0.000000,0.017123,MOVE,1,17,0.557512,8.280578,1.857692,0,59.557
25.462877,0.050437,-0.029867,-0.099385,0.913863,0.919737,-0.105936,0.062239,-0.233254,0.263635,0.062239,0.000000,-0.056826,MOVE,0,17,0.560651,8.280578,1.857692,0,58.993
25.506282,0.043405,-0.096760,-0.185020,0.825889,0.851873,-0.069284,0.120882,0.108525,0.176608,0.120882,0.000000,-0.184458,MOVE,0,17,0.565898,8.280578,1.857692,0,59.182
25.550000,0.043718,-0.102437,-0.094802,0.974300,0.984246,0.071826,0.271766,0.151591,0.319367,0.271766,0.000000,-0.180191,MOVE,0,17,0.577779,8.280578,1.857692,0,59.572
25.600572,0.050572,-0.087380,-0.078398,1.062518,1.068984,0.248366,0.227783,0.213900,0.399154,0.227783,0.000000,-0.100086,MOVE,0,17,0.589298,8.280578,1.857692,0,59.929
25.643849,0.043277,-0.084171,-0.042697,1.167308,1.171117,0.112448,0.160588,-0.185606,0.269968,0.160588,0.000000,0.063928,MOVE,0,17,0.596248,8.280578,1.857692,0,59.369
25.694727,0.050879,-0.095525,-0.064649,1.153905,1.159655,0.093511,-0.121021,-0.491955,0.515180,-0.121021,0.000000,0.201225,MOVE,0,17,0.590091,8.280578,1.857692,0,58.137
25.738036,0.043309,0.051156,-0.141358,1.138308,1.148192,-0.072033,-0.484791,-0.518528,0.713500,-0.484791,0.000000,0.314475,MOVE,0,17,0.569095,8.280578,1.857692,0,57.090
25.781575,0.043539,0.046550,-0.254011,1.171451,1.199577,0.113059,0.112941,0.448472,0.476094,0.112941,0.000000,0.462647,MOVE,0,17,0.574012,8.280578,1.857692,0,58.167
25.832134,0.050559,-0.086886,0.087648,0.907040,0.915397,0.470721,0.595830,0.276513,0.808115,0.595830,0.000000,0.340240,MOVE,0,17,0.604137,8.280578,1.857692,0,58.675
25.876218,0.044084,-0.003949,0.035448,0.961872,0.962533,-0.202758,0.013064,-0.328854,0.386557,0.013064,0.000000,0.272495,MOVE,0,17,0.604713,8.280578,1.857692,0,57.640
25.926944,0.050727,0.048732,-0.080328,1.040342,1.044576,-0.255598,0.097974,-0.661165,0.715589,0.097974,0.000000,0.285364,MOVE,0,17,0.609682,8.280578,1.857692,0,56.143
25.970744,0.043800,0.066188,-0.175130,0.916300,0.935231,-0.090664,0.016424,-0.407961,0.418237,0.016424,0.000000,0.198535,MOVE,0,17,0.610402,8.280578,1.857692,0,55.190
26.021313,0.050569,0.001697,-0.124714,0.958947,0.967024,-0.153889,-0.150037,-0.185606,0.283976,-0.150037,0.000000,0.149004,MOVE,0,17,0.602815,8.280578,1.857692,0,55.109
26.064768,0.043455,-0.078247,-0.033772,0.866830,0.871009,-0.111424,0.003904,-0.088778,0.142520,0.003904,0.000000,0.018012,MOVE,1,18,0.602984,8.651219,2.112889,0,55.134
26.115594,0.050826,-0.076766,-0.090701,0.881939,0.889908,-0.214965,-0.080090,-0.115045,0.256632,-0.080090,0.000000,-0.082873,MOVE,0,18,0.598914,8.651219,2.112889,0,55.301
26.158877,0.043283,-0.047639,-0.080569,0.932140,0.936828,-0.305984,0.063158,-0.006311,0.312498,0.063158,0.000000,-0.131440,MOVE,0,18,0.601647,8.651219,2.112889,0,55.626
26.202510,0.043633,-0.032829,-0.113376,1.039611,1.046290,-0.229626,0.208239,0.606387,0.681026,0.208239,0.000000,-0.076635,MOVE,0,18,0.610733,8.651219,2.112889,0,56.876
26.253174,0.050664,-0.037272,-0.226511,1.018653,1.044198,-0.117838,0.077819,0.432596,0.455061,0.077819,0.000000,-0.029193,MOVE,0,18,0.614676,8.651219,2.112889,0,58.215
26.296815,0.043641,-0.046652,-0.166928,1.107115,1.120600,-0.061638,0.110500,0.523615,0.538685,0.110500,0.000000,0.082266,MOVE,0,18,0.619498,8.651219,2.112889,0,59.993
26.347588,0.050773,-0.098241,-0.179472,1.032056,1.052141,-0.299570,-0.180577,0.388002,0.522395,-0.180577,0.000000,0.120967,MOVE,0,18,0.610330,8.651219,2.112889,0,61.326
26.391395,0.043807,-0.013823,-0.149560,1.087863,1.098182,-0.116616,-0.836646,-0.040825,0.845720,-0.836646,0.000000,0.197234,MOVE,0,18,0.573679,8.651219,2.112889,0,61.972
26.441843,0.050448,0.084371,-0.308045,1.179980,1.222442,-0.055529,-0.405375,0.281101,0.496418,-0.405375,0.000000,0.377708,MOVE,0,18,0.553229,8.651219,2.112889,0,63.314
26.492435,0.050592,0.001940,-0.183573,0.994039,1.010850,0.110320,-0.035497,0.640901,0.651294,-0.035497,0.000000,0.349702,MOVE,0,18,0.551433,8.651219,2.112889,0,65.109
26.535887,0.043453,-0.020734,-0.137016,0.934090,0.944313,0.169269,-0.005259,0.570651,0.595250,-0.005259,0.000000,0.264614,MOVE,0,18,0.551205,8.651219,2.112889,0,66.564
26.579326,0.043439,0.034670,-0.190086,0.960166,0.979414,0.178737,-0.154004,0.376701,0.444487,-0.154004,0.000000,0.219626,MOVE,0,18,0.544515,8.651219,2.112889,0,67.592
26.623372,0.044045,0.041458,-0.205042,1.033518,1.054477,0.212946,-0.422785,-0.050293,0.476049,-0.422785,0.000000,0.246692,MOVE,0,18,0.525893,8.651219,2.112889,0,67.702
26.666630,0.043258,0.175773,-0.247498,1.114426,1.155031,0.095965,-0.258768,-0.013031,0.276297,-0.258768,0.000000,0.361550,MOVE,0,18,0.514699,8.651219,2.112889,0,67.832
26.717425,0.050795,0.133830,-0.210831,0.876821,0.911689,0.152165,0.065602,0.236202,0.288530,0.065602,0.000000,0.245915,MOVE,0,18,0.518031,8.651219,2.112889,0,68.419
26.760779,0.043354,0.112252,-0.071403,0.884620,0.894567,0.402314,-0.198598,0.291791,0.535201,-0.198598,0.000000,0.126434,MOVE,0,18,0.509421,8.651219,2.112889,0,69.145
26.811421,0.050642,0.024972,-0.125920,0.893393,0.902569,0.107257,-0.020223,0.082563,0.136856,-0.020223,0.000000,0.026102,MOVE,1,19,0.508397,9.044306,2.331939,0,69.255
26.854674,0.043253,-0.028139,-0.091425,0.938720,0.943582,0.073351,-0.030912,-0.049694,0.093838,-0.030912,0.000000,-0.027284,MOVE,0,19,0.507060,9.044306,2.331939,0,68.999
26.898258,0.043584,-0.003209,-0.123508,1.013291,1.020796,-0.012177,-0.012582,-0.117494,0.118792,-0.012582,0.000000,-0.005840,MOVE,0,19,0.506512,9.044306,2.331939,0,68.537
26.945872,0.047614,0.004606,-0.301774,1.099804,1.140464,-0.258356,0.225961,-0.036554,0.345170,0.225961,0.000000,0.121161,MOVE,0,19,0.517271,9.044306,2.331939,0,68.241
26.989098,0.043226,-0.006171,-0.131468,1.108090,1.115878,-0.011872,0.437931,0.284761,0.522506,0.437931,0.000000,0.213336,MOVE,0,19,0.536201,9.044306,2.331939,0,68.516
27.032205,0.043107,-0.044677,-0.094078,1.043997,1.049179,0.121602,0.448926,0.019951,0.465532,0.448926,0.000000,0.236263,MOVE,0,19,0.555553,9.044306,2.331939,0,68.305
27.075304,0.043099,-0.005924,-0.066820,1.094199,1.096253,0.057156,-0.171407,-0.463855,0.497804,-0.171407,0.000000,0.299265,MOVE,0,19,0.548165,9.044306,2.331939,0,67.220
27.119184,0.043880,0.111525,-0.139187,1.173400,1.186878,0.092891,-0.379712,-0.353899,0.527309,-0.379712,0.000000,0.437529,MOVE,0,19,0.531503,9.044306,2.331939,0,66.533
27.162416,0.043232,0.063763,-0.185985,1.087375,1.105007,0.188186,0.023459,0.114329,0.221440,0.023459,0.000000,0.488282,MOVE,0,19,0.532518,9.044306,2.331939,0,66.769
27.205689,0.043273,-0.004937,0.030349,0.927267,0.927776,0.577613,0.549414,0.216955,0.826173,0.549414,0.000000,0.374453,MOVE,0,19,0.556292,9.044306,2.331939,0,66.949
27.249117,0.043427,0.030306,-0.073574,0.829300,0.833109,0.265766,0.180146,-0.071679,0.328971,0.180146,0.000000,0.186806,MOVE,0,19,0.564116,9.044306,2.331939,0,66.367
27.299676,0.050559,0.147407,-0.030153,1.019871,1.030910,-0.119995,-0.213557,-0.377112,0.449687,-0.213557,0.000000,0.195944,MOVE,0,19,0.553318,9.044306,2.331939,0,65.242
27.343806,0.044130,0.135770,-0.119889,0.998670,1.014962,-0.222010,-0.251736,-0.380777,0.507593,-0.251736,0.000000,0.189816,MOVE,0,19,0.542209,9.044306,2.331939,0,64.219
27.388419,0.044613,0.143043,-0.143529,0.959191,0.980362,-0.155120,-0.243184,0.121660,0.313052,-0.243184,0.000000,0.153160,MOVE,0,19,0.531360,9.044306,2.331939,0,64.269
27.435293,0.046874,0.054793,-0.066337,0.908258,0.912324,0.100222,-0.111543,0.127463,0.196807,-0.111543,0.000000,0.058936,MOVE,0,19,0.526132,9.044306,2.331939,0,64.262
27.478775,0.043482,0.004849,-0.124955,0.930678,0.939042,0.308832,0.108064,0.227645,0.398594,0.108064,0.000000,-0.001820,MOVE,1,20,0.530831,9.432380,2.559751,0,64.394
27.521900,0.043125,0.035155,-0.021952,0.862931,0.863925,0.165584,-0.143307,0.115856,0.247746,-0.143307,0.000000,-0.124106,MOVE,0,20,0.524650,9.432380,2.559751,0,64.317
27.565271,0.043370,0.056732,-0.167652,0.930435,0.947119,-0.129758,-0.083130,0.090193,0.178557,-0.083130,0.000000,-0.159288,MOVE,0,20,0.521045,9.432380,2.559751,0,64.230
27.616155,0.050884,0.063763,-0.065131,0.958460,0.962784,-0.198786,-0.193697,0.097523,0.294185,-0.193697,0.000000,-0.176854,MOVE,0,20,0.511189,9.432380,2.559751,0,64.108
27.659262,0.043108,0.110555,-0.162104,0.973082,0.992667,-0.132812,-0.168346,0.102715,0.237760,-0.168346,0.000000,-0.165768,MOVE,0,20,0.503932,9.432380,2.559751,0,63.980
27.703029,0.043766,0.109586,0.015053,0.922149,0.928759,0.001578,-0.326255,0.071561,0.334014,-0.326255,0.000000,-0.213308,MOVE,0,20,0.489653,9.432380,2.559751,0,63.727
27.745866,0.042837,0.155165,-0.143529,1.135627,1.155131,0.130165,-0.211412,-0.019763,0.249055,-0.211412,0.000000,-0.052359,MOVE,0,20,0.480597,9.432380,2.559751,0,63.431
27.789447,0.043581,0.144983,-0.048728,0.813704,0.827954,0.107258,-0.267917,0.006504,0.288662,-0.267917,0.000000,-0.201965,MOVE,0,20,0.468920,9.432380,2.559751,0,63.055
27.833246,0.043799,0.169955,-0.175130,0.936283,0.967565,0.080380,-0.267917,-0.014265,0.280078,-0.267917,0.000000,-0.210960,MOVE,0,20,0.457186,9.432380,2.559751,0,62.705
27.876455,0.043210,0.151044,-0.111688,0.986485,1.004211,0.095040,-0.272499,0.002228,0.288605,-0.272499,0.000000,-0.186074,MOVE,0,20,0.445412,9.432380,2.559751,0,62.360
27.918912,0.042457,0.246810,0.052443,0.995014,1.026508,0.094429,-0.280745,-0.016403,0.296654,-0.280745,0.000000,-0.143609,MOVE,0,20,0.433492,9.432380,2.559751,0,61.998
27.968290,0.049378,0.184501,-0.023640,0.963334,0.981128,0.096567,-0.283800,-0.018236,0.300333,-0.283800,0.000000,-0.146233,MOVE,0,20,0.419478,9.432380,2.559751,0,61.631
28.011608,0.043318,0.166803,-0.057653,0.983073,0.998789,0.094429,-0.285632,-0.026788,0.302027,-0.285632,0.000000,-0.132700,MOVE,0,20,0.407105,9.432380,2.559751,0,61.268
28.062230,0.050622,0.165591,-0.036425,0.861956,0.878473,0.091375,-0.287159,-0.026483,0.302508,-0.287159,0.000000,-0.228804,MOVE,0,20,0.392569,9.432380,2.559751,0,60.871
28.106379,0.044149,0.199775,-0.188397,0.928972,0.968707,0.019597,-0.073961,-0.028008,0.081478,-0.073961,0.000000,-0.234087,MOVE,0,20,0.389304,9.432380,2.559751,0,60.513
28.146433,0.040054,0.142558,-0.021952,0.939695,0.950701,0.057776,-0.292651,-0.017012,0.298784,-0.292651,0.000000,-0.255048,MOVE,0,20,0.377582,9.432380,2.559751,0,60.043
28.193669,0.047236,0.127284,-0.064890,0.906309,0.917500,0.060830,-0.291429,-0.016707,0.298178,-0.291429,0.000000,-0.303793,MOVE,0,20,0.363816,9.432380,2.559751,0,59.572
28.236880,0.043211,0.167530,-0.018816,0.948956,0.963814,0.058998,-0.292651,-0.013958,0.298865,-0.292651,0.000000,-0.305981,MOVE,0,20,0.351170,9.432380,2.559751,0,59.014
28.280983,0.044103,0.194684,-0.031359,1.036199,1.054796,0.059608,-0.291124,-0.014569,0.297520,-0.291124,0.000000,-0.226067,MOVE,0,20,0.338331,9.432380,2.559751,0,58.483
28.332744,0.051761,0.193229,0.015053,0.943107,0.962816,0.059914,-0.292040,-0.015485,0.298524,-0.292040,0.000000,-0.236926,MOVE,0,20,0.323215,9.432380,2.559751,0,57.819
28.376168,0.043424,0.206564,0.013839,0.937014,0.959613,0.058998,-0.291124,-0.016096,0.297477,-0.291124,0.000000,-0.249582,MOVE,0,20,0.310573,9.432380,2.559751,0,57.220
28.423531,0.047363,0.255780,-0.019298,0.950905,0.984894,0.059608,-0.293262,-0.014569,0.299613,-0.293262,0.000000,-0.238219,MOVE,0,20,0.296683,9.432380,2.559751,0,56.505
28.466706,0.043175,0.197836,0.051715,0.936283,0.958353,0.058692,-0.290513,-0.014874,0.296755,-0.290513,0.000000,-0.251880,MOVE,0,20,0.284140,9.432380,2.559751,0,55.669
28.516673,0.049967,0.181107,0.026222,0.954073,0.971464,0.058692,-0.294178,-0.016096,0.300407,-0.294178,0.000000,-0.252374,MOVE,0,20,0.269441,9.432380,2.559751,0,54.813
28.559745,0.043072,0.206806,-0.032807,0.782998,0.810513,0.059303,-0.289902,-0.017317,0.296412,-0.289902,0.000000,-0.397675,MOVE,0,20,0.256954,9.432380,2.559751,0,53.912
28.603139,0.043394,0.245355,-0.009890,0.899241,0.932165,0.059608,-0.294483,-0.016096,0.300887,-0.294483,0.000000,-0.418959,MOVE,0,20,0.244175,9.432380,2.559751,0,53.059
28.646312,0.043173,0.310573,0.008741,0.963577,1.012429,0.057776,-0.292345,-0.015179,0.298386,-0.292345,0.000000,-0.365876,MOVE,0,20,0.231554,9.432380,2.559751,0,52.196
28.689562,0.043250,0.291178,0.084249,0.917275,0.966062,0.057470,-0.292040,-0.015790,0.298060,-0.292040,0.000000,-0.359833,MOVE,0,20,0.218923,9.432380,2.559751,0,51.252
28.739775,0.050213,0.314937,0.070410,1.057888,1.106015,0.059303,-0.291429,-0.014874,0.297773,-0.291429,0.000000,-0.228436,MOVE,0,20,0.204290,9.432380,2.559751,0,50.209
28.783123,0.043348,0.219656,0.124310,0.980392,1.012359,0.057470,-0.293262,-0.016401,0.299290,-0.293262,0.000000,-0.194469,MOVE,0,20,0.191577,9.432380,2.559751,0,49.224
28.826321,0.043198,0.278813,0.295721,1.110770,1.182793,0.056554,-0.294789,-0.015790,0.300580,-0.294789,0.000000,-0.010509,MOVE,1,21,0.178843,9.875203,2.639802,0,48.155
28.869436,0.043115,0.373124,0.200547,1.210930,1.282884,0.060830,-0.293873,-0.016096,0.300534,-0.293873,0.000000,0.245138,MOVE,0,21,0.166173,9.875203,2.639802,0,47.174
28.916917,0.047481,0.241961,0.169712,1.211173,1.246711,0.056860,-0.292345,-0.013347,0.298122,-0.292345,0.000000,0.442664,MOVE,0,21,0.152292,9.875203,2.639802,0,46.255
28.960226,0.043309,0.274934,0.071381,1.143426,1.178179,0.058387,-0.294178,-0.015790,0.300332,-0.294178,0.000000,0.558758,MOVE,0,21,0.139551,9.875203,2.639802,0,45.368
29.011009,0.050783,0.286571,0.124067,1.122224,1.164862,0.057776,-0.290818,-0.014874,0.296875,-0.290818,0.000000,0.651258,MOVE,0,21,0.124783,9.875203,2.639802,0,44.294
29.055669,0.044660,0.250447,0.179909,1.097367,1.139871,0.060219,-0.293262,-0.015179,0.299765,-0.293262,0.000000,0.712016,MOVE,0,21,0.111686,9.875203,2.639802,0,43.469
29.099514,0.043844,0.207534,0.176025,1.011342,1.047314,0.058692,-0.292345,-0.014874,0.298550,-0.292345,0.000000,0.683397,MOVE,0,21,0.098868,9.875203,2.639802,0,42.644
29.146692,0.047179,0.327302,0.047345,0.919225,0.976904,0.057776,-0.294483,-0.014874,0.300466,-0.294483,0.000000,0.594271,MOVE,0,21,0.084975,9.875203,2.639802,0,42.039
29.190254,0.043562,0.033458,0.085706,1.257963,1.261323,0.058998,-0.294178,-0.016401,0.300484,-0.294178,0.000000,0.770035,MOVE,0,21,0.072160,9.875203,2.639802,0,41.818
29.233479,0.043224,0.173106,0.040061,0.847090,0.865524,0.058081,-0.291124,-0.014569,0.297218,-0.291124,0.000000,0.572003,MOVE,0,21,0.059576,9.875203,2.639802,0,41.041
29.284456,0.050977,-0.407526,0.551382,0.905334,1.135662,0.059303,-0.292345,-0.014569,0.298655,-0.292345,0.000000,0.636899,MOVE,0,21,0.044673,9.875203,2.639802,0,40.486
29.328774,0.044318,-0.003456,0.364189,0.987703,1.052712,-0.824008,-0.491182,-0.469969,1.068232,-0.491182,0.000000,0.620650,MOVE,0,21,0.022905,9.875203,2.639802,0,39.271
29.375772,0.046998,0.118556,0.122853,0.934821,0.950284,-2.618730,0.978254,-0.068019,2.796311,0.978254,0.000000,0.513840,MOVE,0,21,0.068881,9.875203,2.639802,0,39.575
29.420227,0.044455,-0.037272,-0.164034,1.032056,1.045675,-1.086680,-0.813719,0.723968,1.538552,-0.813719,0.000000,0.503564,MOVE,0,21,0.032707,9.875203,2.639802,0,41.849
29.471107,0.050879,0.062551,0.067496,0.993308,0.997562,0.414521,-0.101755,0.108826,0.440483,-0.101755,0.000000,0.451013,MOVE,0,21,0.027530,9.875203,2.639802,0,43.038
29.514231,0.043125,0.067885,0.047830,1.079333,1.082523,-0.321567,0.168246,0.001010,0.362923,0.168246,0.000000,0.480183,MOVE,0,21,0.034785,9.875203,2.639802,0,44.007
29.557054,0.042823,-0.006171,0.015053,0.942376,0.942516,-0.154801,0.068064,0.263682,0.313248,0.068064,0.000000,0.380429,MOVE,0,21,0.037700,9.875203,2.639802,0,45.349
29.600440,0.043386,0.040246,-0.008202,1.008174,1.009010,-0.022238,0.018272,0.055369,0.062403,0.018272,0.000000,0.350495,MOVE,0,21,0.038493,9.875203,2.639802,0,45.981
29.643589,0.043149,0.009455,-0.002412,1.002081,1.002129,-0.005439,-0.003719,0.022380,0.023330,-0.003719,0.000000,0.317362,MOVE,0,21,0.038332,9.875203,2.639802,0,46.305
29.693987,0.050398,0.021335,-0.000724,1.005981,1.006207,-0.001163,0.011855,0.007719,0.014194,0.011855,0.000000,0.291212,MOVE,0,21,0.038930,9.875203,2.639802,0,46.494
29.737162,0.043175,0.031276,-0.003136,1.005981,1.006472,-0.006659,0.004828,-0.002361,0.008558,0.004828,0.000000,0.267915,MOVE,0,21,0.039138,9.875203,2.639802,0,46.584
29.780630,0.043468,0.024972,-0.003618,1.007199,1.007515,0.005557,0.005133,0.016269,0.017942,0.005133,0.000000,0.247887,MOVE,0,21,0.039361,9.875203,2.639802,0,46.728
29.823811,0.043181,0.031518,-0.002171,1.005493,1.005989,0.006167,0.008795,-0.001752,0.010884,0.008795,0.000000,0.228489,MOVE,0,21,0.039741,9.875203,2.639802,0,46.835
29.867007,0.043195,0.021578,-0.001930,1.000619,1.000854,0.003417,0.003907,-0.004194,0.006673,0.003907,0.000000,0.206409,MOVE,0,21,0.039910,9.875203,2.639802,0,46.922
29.914303,0.047296,0.030063,-0.004583,1.007686,1.008145,0.008913,0.004822,-0.004193,0.010967,0.004822,0.000000,0.193098,MOVE,0,21,0.040138,9.875203,2.639802,0,47.007
29.957755,0.043452,0.021335,-0.000000,1.002569,1.002796,0.010437,0.003293,0.000389,0.010951,0.003293,0.000000,0.176305,MOVE,0,21,0.040281,9.875203,2.639802,0,47.116
30.001179,0.043424,0.020365,-0.003136,1.008417,1.008628,0.012267,0.005733,-0.002360,0.013745,0.005733,0.000000,0.166440,MOVE,0,21,0.040530,9.875203,2.639802,0,47.217
30.051762,0.050583,0.029336,-0.002171,1.006712,1.007141,0.011042,0.010313,-0.000222,0.015111,0.010313,0.000000,0.156223,MOVE,0,21,0.041052,9.875203,2.639802,0,47.295
30.095097,0.043335,0.024487,-0.004825,1.008174,1.008483,0.011040,0.016419,0.004969,0.020399,0.016419,0.000000,0.148235,MOVE,0,21,0.041763,9.875203,2.639802,0,47.384
30.138258,0.043162,0.028366,-0.003377,1.006712,1.007117,0.009510,0.008170,0.000998,0.012577,0.008170,0.000000,0.139817,MOVE,0,21,0.042116,9.875203,2.639802,0,47.469
30.181598,0.043339,0.021820,-0.000482,1.008661,1.008897,0.009507,-0.000994,-0.000529,0.009574,-0.000994,0.000000,0.133843,MOVE,0,21,0.042073,9.875203,2.639802,0,47.577
30.235278,0.053680,0.024729,-0.002653,1.005737,1.006044,0.004925,0.003282,-0.002972,0.006623,0.003282,0.000000,0.125898,MOVE,0,21,0.042249,9.875203,2.639802,0,47.661
30.278646,0.043368,0.026427,-0.004825,1.009880,1.010237,0.008284,0.001449,-0.003589,0.009144,0.001449,0.000000,0.122522,MOVE,0,21,0.042312,9.875203,2.639802,0,47.798
30.321952,0.043306,0.025942,-0.001689,1.010611,1.010945,-0.004544,0.000838,-0.082688,0.082817,0.000838,0.000000,0.120120,MOVE,0,21,0.042348,9.875203,2.639802,0,47.784
30.372366,0.050414,0.031518,-0.008443,1.009149,1.009676,-0.010040,-0.003133,-0.006329,0.012275,-0.003133,0.000000,0.116817,MOVE,0,21,0.042190,9.875203,2.639802,0,47.828
30.416280,0.043914,0.039761,-0.012061,1.004762,1.005621,-0.014619,0.002976,-0.014878,0.021069,0.002976,0.000000,0.110194,MOVE,0,21,0.042321,9.875203,2.639802,0,47.847
30.459479,0.043200,-0.007158,0.012382,1.022308,1.022408,-0.061343,-0.004661,-0.006934,0.061909,-0.004661,0.000000,0.119342,MOVE,0,21,0.042119,9.875203,2.639802,0,47.883
30.510106,0.050627,0.043155,-0.009890,1.008905,1.009876,-0.018882,0.006028,-0.009376,0.021926,0.006028,0.000000,0.116296,MOVE,0,21,0.042425,9.875203,2.639802,0,47.888
30.553485,0.043379,0.017941,-0.009167,1.004275,1.004477,-0.032925,0.000224,-0.013648,0.035642,0.000224,0.000000,0.108695,MOVE,0,21,0.042434,9.875203,2.639802,0,47.893
30.596771,0.043286,0.033215,-0.008925,1.006712,1.007299,-0.042384,0.020379,0.002235,0.047082,0.020379,0.000000,0.104395,MOVE,0,21,0.043316,9.875203,2.639802,0,47.978
30.647186,0.050415,0.025942,-0.012303,1.015972,1.016378,0.009841,0.006021,-0.006617,0.013299,0.006021,0.000000,0.108696,MOVE,0,21,0.043620,9.875203,2.639802,0,47.964
30.697568,0.050382,0.029578,-0.014474,1.007199,1.007737,0.031215,0.004796,-0.006921,0.032330,0.004796,0.000000,0.104789,MOVE,0,21,0.043862,9.875203,2.639802,0,48.027
30.740409,0.042841,0.029094,-0.012544,1.013048,1.013543,0.018686,0.004184,-0.007530,0.020576,0.004184,0.000000,0.106499,MOVE,0,21,0.044041,9.875203,2.639802,0,48.126
30.783371,0.042962,0.031033,0.001942,1.020846,1.021319,-0.072630,0.007239,0.084082,0.111343,0.007239,0.000000,0.115037,MOVE,0,21,0.044352,9.875203,2.639802,0,48.353
30.826619,0.043248,0.022305,-0.011096,1.003300,1.003609,-0.024363,0.014264,0.076724,0.081753,0.014264,0.000000,0.106781,MOVE,0,21,0.044969,9.875203,2.639802,0,48.702
30.869856,0.043237,0.024487,-0.018574,1.002081,1.002553,0.008013,0.026480,0.093487,0.097495,0.026480,0.000000,0.098401,MOVE,0,21,0.046114,9.875203,2.639802,0,49.030
30.913504,0.043648,0.032003,-0.024123,1.021821,1.022606,0.057481,-0.018114,0.170428,0.180770,-0.018114,0.000000,0.108906,MOVE,0,21,0.045323,9.875203,2.639802,0,49.480
30.963998,0.050494,0.033700,-0.028947,1.023527,1.024490,0.030904,-0.018113,0.186588,0.189995,-0.018113,0.000000,0.120057,MOVE,0,21,0.044408,9.875203,2.639802,0,49.849
31.006994,0.042996,0.047277,-0.015921,1.005006,1.006243,0.075491,-0.012310,0.232992,0.245225,-0.012310,0.000000,0.113670,MOVE,0,21,0.043879,9.875203,2.639802,0,50.343
31.049926,0.042932,0.003879,-0.035219,1.012317,1.012937,0.055943,-0.007117,0.229021,0.235862,-0.007117,0.000000,0.113946,MOVE,0,21,0.043574,9.875203,2.639802,0,50.872
31.093311,0.043386,0.037579,-0.002412,1.007443,1.008146,0.056544,0.079620,0.132481,0.164583,0.079620,0.000000,0.109883,MOVE,0,21,0.047028,9.875203,2.639802,0,51.137
31.136627,0.043316,0.044852,0.003885,1.000376,1.001388,0.037595,0.013646,0.025560,0.047465,0.013646,0.000000,0.100144,MOVE,0,21,0.047619,9.875203,2.639802,0,51.218
31.187165,0.050538,0.027639,-0.015680,1.020846,1.021340,0.063848,0.005703,0.041739,0.076494,0.005703,0.000000,0.109336,MOVE,0,21,0.047907,9.875203,2.639802,0,51.233
31.230376,0.043211,0.040973,-0.011338,1.019140,1.020027,0.067499,0.023415,0.038984,0.081389,0.023415,0.000000,0.116426,MOVE,0,21,0.048919,9.875203,2.639802,0,51.243
31.273639,0.043263,0.039276,0.004370,0.999644,1.000425,0.019841,0.023412,-0.003779,0.030920,0.023412,0.000000,0.105167,MOVE,0,21,0.049932,9.875203,2.639802,0,51.171
31.324656,0.051017,0.048247,-0.012061,0.938233,0.939550,0.066262,0.082665,0.155963,0.188543,0.082665,0.000000,0.040245,MOVE,0,21,0.054149,9.875203,2.639802,0,51.417
31.368430,0.043773,0.059642,0.018695,1.018409,1.020325,0.017698,0.040210,0.205443,0.210087,0.040210,0.000000,0.054513,MOVE,0,21,0.055909,9.875203,2.639802,0,51.799
31.412626,0.044196,0.043398,0.000728,1.012317,1.013247,0.024110,0.019133,-0.006222,0.031402,0.019133,0.000000,0.060984,MOVE,0,21,0.056755,9.875203,2.639802,0,51.691
31.455779,0.043154,0.024245,0.000486,1.016703,1.016992,0.009445,-0.001026,-0.007442,0.012068,-0.001026,0.000000,0.070179,MOVE,0,21,0.056711,9.875203,2.639802,0,51.562
31.506567,0.050788,0.032245,0.000486,1.012073,1.012587,0.012192,0.003249,-0.012937,0.018071,0.003249,0.000000,0.074489,MOVE,0,21,0.056876,9.875203,2.639802,0,51.408
31.550003,0.043436,0.035155,0.000971,1.013779,1.014389,-0.000026,0.008745,-0.038890,0.039861,0.008745,0.000000,0.079990,MOVE,0,21,0.057256,9.875203,2.639802,0,51.189
31.593351,0.043349,0.036124,0.000728,1.014510,1.015153,0.026239,0.018822,0.072587,0.079445,0.018822,0.000000,0.085629,MOVE,0,21,0.058072,9.875203,2.639802,0,51.113
31.643728,0.050377,0.034185,0.002185,1.019384,1.019959,0.011879,0.004465,-0.014765,0.019469,0.004465,0.000000,0.095029,MOVE,0,21,0.058296,9.875203,2.639802,0,50.971
31.687504,0.043776,0.036609,-0.009890,1.015241,1.015949,0.020124,0.018208,-0.006208,0.027839,0.018208,0.000000,0.099880,MOVE,0,21,0.059094,9.875203,2.639802,0,50.895
31.730750,0.043246,0.018183,-0.003860,1.024745,1.024914,-0.027220,0.018815,-0.094769,0.100380,0.018815,0.000000,0.112315,MOVE,0,21,0.059907,9.875203,2.639802,0,50.551
31.781178,0.050427,0.048247,0.012382,1.009880,1.011107,0.030812,0.014537,-0.007401,0.034863,0.014537,0.000000,0.111080,MOVE,0,21,0.060640,9.875203,2.639802,0,50.470
31.824441,0.043264,0.034670,-0.006754,1.019384,1.019996,0.017062,0.010563,-0.003729,0.020411,0.010563,0.000000,0.117968,MOVE,0,21,0.061097,9.875203,2.639802,0,50.361
31.867590,0.043149,0.029094,0.002914,1.015972,1.016393,0.014007,0.016975,-0.003423,0.022273,0.016975,0.000000,0.120925,MOVE,0,21,0.061830,9.875203,2.639802,0,50.387
31.910959,0.043369,0.028124,-0.006996,1.023039,1.023450,-0.017758,-0.003794,-0.022054,0.028568,-0.003794,0.000000,0.129937,MOVE,0,21,0.061665,9.875203,2.639802,0,50.345
31.961555,0.050596,0.024245,0.000243,1.028401,1.028687,0.032938,-0.001660,-0.004644,0.033305,-0.001660,0.000000,0.142761,MOVE,0,21,0.061581,9.875203,2.639802,0,50.292
32.004731,0.043176,0.042186,-0.002653,1.007686,1.008573,0.013084,0.015138,-0.004949,0.020611,0.015138,0.000000,0.136201,MOVE,0,21,0.062235,9.875203,2.639802,0,50.246
32.048151,0.043420,0.026911,0.002185,1.015728,1.016087,0.013385,0.011470,-0.003421,0.017956,0.011470,0.000000,0.137059,MOVE,0,21,0.062733,9.875203,2.639802,0,50.215
32.092230,0.044079,0.026669,0.003156,1.019871,1.020225,0.049415,0.009634,-0.005558,0.050651,0.009634,0.000000,0.141555,MOVE,0,21,0.063157,9.875203,2.639802,0,50.164
32.131907,0.039677,0.042186,0.000971,1.015485,1.016361,0.020699,0.009938,-0.011970,0.025894,0.009938,0.000000,0.142125,MOVE,0,21,0.063552,9.875203,2.639802,0,50.117
32.175047,0.043139,0.034912,0.003885,1.019871,1.020476,0.006341,0.005050,-0.028767,0.029887,0.005050,0.000000,0.146341,MOVE,0,21,0.063770,9.875203,2.639802,0,50.025
32.218172,0.043125,0.034427,-0.000241,1.015728,1.016312,0.012143,0.009324,-0.007689,0.017132,0.009324,0.000000,0.146387,MOVE,0,21,0.064172,9.875203,2.639802,0,49.997
32.261486,0.043314,0.035882,-0.001206,1.017922,1.018555,0.017027,0.082931,-0.007077,0.084956,0.082931,0.000000,0.148448,MOVE,0,21,0.067764,9.875203,2.639802,0,50.000
32.304830,0.043344,0.026427,-0.002895,1.019871,1.020218,-0.011683,0.016957,-0.076407,0.079133,0.016957,0.000000,0.151799,MOVE,0,21,0.068499,9.875203,2.639802,0,49.930
32.355412,0.050581,0.030306,-0.000241,1.019871,1.020322,0.014582,0.016648,-0.000965,0.022152,0.016648,0.000000,0.154909,MOVE,0,21,0.069341,9.875203,2.639802,0,49.935
32.399066,0.043654,0.033700,0.001700,0.394302,0.395743,0.137670,-0.213344,0.035688,0.256403,-0.213344,0.000000,-0.404414,MOVE,0,21,0.060027,9.875203,2.639802,0,49.812
