t,dt,acc_x_g,acc_y_g,acc_z_g,acc_mag_g,gyro_x_rads,gyro_y_rads,gyro_z_rads,state,step,heading_rad,pos_x_m,pos_y_m,walkable
0.000008,0.000008,0.081462,0.013839,2.081659,2.083298,-0.009495,-0.065578,0.040051,MOVE,0,0.000000,1.000000,0.250000,1
0.155189,0.155181,0.055035,-0.021469,1.001594,1.003335,0.002369,0.000483,-0.000293,MOVE,1,-0.000045,1.700000,0.249968,1
0.192216,0.037028,0.055035,-0.021469,1.000376,1.002118,0.000244,-0.001375,-0.000548,MOVE,0,-0.000065,1.700000,0.249968,1
0.234715,0.042499,0.052853,-0.020987,0.999157,1.000774,0.002297,0.001659,-0.000260,MOVE,0,-0.000076,1.700000,0.249968,1
0.279808,0.045093,0.055035,-0.021710,0.999644,1.001394,-0.000177,0.002509,0.000350,MOVE,0,-0.000061,1.700000,0.249968,1
0.318945,0.039137,0.053096,-0.020504,0.999157,1.000777,0.001285,0.002461,-0.000573,MOVE,0,-0.000083,1.700000,0.249968,1
0.353682,0.034737,0.053823,-0.020745,0.999401,1.001064,0.001899,0.000597,-0.001154,MOVE,0,-0.000123,1.700000,0.249968,1
0.385178,0.031496,0.052611,-0.020263,1.000376,1.001963,0.001886,0.001779,0.001556,MOVE,0,-0.000074,1.700000,0.249968,1
0.426276,0.041097,0.053581,-0.021228,1.000132,1.001791,0.001217,0.000268,-0.000237,MOVE,0,-0.000084,1.700000,0.249968,1
0.455643,0.029367,0.053338,-0.020022,1.000619,1.002240,-0.000025,0.001766,-0.001735,MOVE,0,-0.000135,1.700000,0.249968,1
0.490199,0.034556,0.054550,-0.020745,1.001350,1.003050,0.001473,0.001076,-0.001713,MOVE,0,-0.000194,1.700000,0.249968,1
0.527817,0.037617,0.053581,-0.019539,1.000863,1.002487,0.003856,-0.000426,0.001322,MOVE,0,-0.000144,1.700000,0.249968,1
0.560073,0.032257,0.054308,-0.019781,1.001594,1.003260,-0.001327,0.001380,-0.001715,MOVE,0,-0.000200,1.700000,0.249968,1
0.591002,0.030929,0.055278,-0.021228,1.001107,1.002856,0.000209,0.001349,-0.001383,MOVE,0,-0.000242,1.700000,0.249968,1
0.624903,0.033901,0.053096,-0.020022,1.001594,1.003200,0.000787,0.000413,0.000155,MOVE,0,-0.000237,1.700000,0.249968,1
0.658514,0.033611,0.052853,-0.020987,1.002813,1.004424,0.002568,0.000094,-0.001942,MOVE,0,-0.000302,1.700000,0.249968,1
0.695118,0.036603,0.054065,-0.021710,1.004518,1.006207,-0.001371,0.000061,-0.000376,MOVE,0,-0.000316,1.700000,0.249968,1
0.720854,0.025736,0.054065,-0.021228,1.004518,1.006196,0.002228,0.002451,-0.001540,MOVE,0,-0.000356,1.700000,0.249968,1
0.758833,0.037980,0.053823,-0.020745,1.001838,1.003497,0.000372,-0.000898,-0.000633,MOVE,0,-0.000380,1.700000,0.249968,1
0.792520,0.033686,0.054065,-0.021952,1.002325,1.004022,0.002777,0.001504,-0.002408,MOVE,0,-0.000461,1.700000,0.249968,1
0.823714,0.031194,0.052368,-0.021469,1.005981,1.007572,0.000628,0.002344,0.000935,STILL,0,-0.000432,1.700000,0.249968,1
0.859051,0.035336,0.054308,-0.020745,1.006224,1.007902,0.001177,0.000184,-0.000873,STILL,0,-0.000463,1.700000,0.249968,1
0.892581,0.033530,0.053823,-0.020263,1.007686,1.009326,0.002034,0.001975,-0.000238,STILL,0,-0.000471,1.700000,0.249968,1
0.929350,0.036769,0.054550,-0.020745,1.008174,1.009862,-0.000096,-0.000188,-0.001141,STILL,0,-0.000513,1.700000,0.249968,1
0.957824,0.028474,0.053823,-0.020745,1.006712,1.008363,-0.001940,-0.000492,0.000093,STILL,0,-0.000510,1.700000,0.249968,1
0.994136,0.036311,0.053581,-0.020987,1.007199,1.008842,-0.002466,0.001006,0.002192,STILL,0,-0.000430,1.700000,0.249968,1
1.034594,0.040459,0.052611,-0.020504,1.008905,1.010484,0.000249,0.001527,-0.001459,STILL,0,-0.000489,1.700000,0.249968,1
1.064239,0.029644,0.054308,-0.019781,1.007686,1.009343,0.001727,0.001476,-0.000830,STILL,0,-0.000514,1.700000,0.249968,1
1.098028,0.033790,0.054065,-0.020745,1.007199,1.008862,0.002310,-0.000370,-0.000212,STILL,0,-0.000521,1.700000,0.249968,1
1.134283,0.036255,0.054065,-0.020504,1.008174,1.009831,0.000467,-0.000097,-0.002597,STILL,0,-0.000615,1.700000,0.249968,1
1.167427,0.033144,0.053581,-0.021710,1.009636,1.011290,0.001382,0.000186,-0.000159,STILL,0,-0.000621,1.700000,0.249968,1
1.203712,0.036284,0.053581,-0.020263,1.008417,1.010043,0.000741,0.000465,-0.000744,STILL,0,-0.000648,1.700000,0.249968,1
1.234805,0.031094,0.054065,-0.020745,1.008661,1.010322,-0.001076,-0.000416,0.000161,STILL,0,-0.000643,1.700000,0.249968,1
1.270069,0.035264,0.053338,-0.021710,1.009392,1.011034,-0.000184,0.002280,0.000471,STILL,0,-0.000626,1.700000,0.249968,1
1.302487,0.032418,0.054065,-0.021469,1.009636,1.011311,-0.001685,0.001639,-0.000135,STILL,0,-0.000630,1.700000,0.249968,1
1.337566,0.035079,0.054308,-0.021469,1.011098,1.012783,0.002520,-0.000518,0.000496,STILL,0,-0.000613,1.700000,0.249968,1
1.376899,0.039333,0.053581,-0.019298,1.009636,1.011241,0.001866,-0.000796,-0.000106,STILL,0,-0.000617,1.700000,0.249968,1
1.406803,0.029904,0.053823,-0.020987,1.009636,1.011287,-0.000574,-0.000184,-0.001579,STILL,0,-0.000664,1.700000,0.249968,1
1.439028,0.032224,0.054065,-0.020504,1.010855,1.012507,0.003324,-0.001109,-0.000656,STILL,0,-0.000686,1.700000,0.249968,1
1.475900,0.036873,0.053823,-0.021710,1.009880,1.011546,0.000241,-0.000466,-0.000329,STILL,0,-0.000698,1.700000,0.249968,1
1.508158,0.032258,0.053096,-0.019539,1.010367,1.011950,0.000833,0.002492,-0.000603,STILL,0,-0.000717,1.700000,0.249968,1
1.543674,0.035516,0.054308,-0.021469,1.011342,1.013027,0.000220,-0.000554,-0.001178,STILL,0,-0.000759,1.700000,0.249968,1
1.578647,0.034973,0.054308,-0.021228,1.010367,1.012048,-0.000088,-0.000571,-0.000859,STILL,0,-0.000789,1.700000,0.249968,1
1.614185,0.035538,0.053823,-0.020022,1.009880,1.011511,0.001702,-0.000862,0.000050,STILL,0,-0.000787,1.700000,0.249968,1
1.648854,0.034669,0.052611,-0.022916,1.011829,1.013455,0.000744,0.000658,0.001545,STILL,0,-0.000734,1.700000,0.249968,1
1.680314,0.031460,0.054065,-0.022193,1.011098,1.012786,0.001860,-0.002082,-0.001204,STILL,0,-0.000771,1.700000,0.249968,1
1.718110,0.037796,0.051883,-0.020263,1.012317,1.013848,-0.000910,0.001225,0.000032,STILL,0,-0.000770,1.700000,0.249968,1
1.750976,0.032866,0.053823,-0.020022,1.011342,1.012971,-0.000915,0.000594,0.000637,STILL,0,-0.000749,1.700000,0.249968,1
1.785943,0.034966,0.054065,-0.020745,1.011829,1.013485,-0.001169,-0.000612,0.000330,STILL,0,-0.000738,1.700000,0.249968,1
1.822210,0.036267,0.052611,-0.020745,1.012804,1.014382,0.000926,-0.001538,-0.000251,STILL,0,-0.000747,1.700000,0.249968,1
1.857002,0.034792,0.054793,-0.020504,1.012073,1.013763,-0.000881,0.000906,0.001224,STILL,0,-0.000704,1.700000,0.249968,1
1.895469,0.038467,0.054065,-0.020263,1.011586,1.013232,0.002126,0.001456,-0.001785,STILL,0,-0.000773,1.700000,0.249968,1
1.930877,0.035408,0.054065,-0.020504,1.010855,1.012507,0.000599,0.001112,-0.000264,STILL,0,-0.000782,1.700000,0.249968,1
1.966123,0.035246,0.053581,-0.020745,1.012560,1.014189,-0.000021,0.002587,-0.000255,STILL,0,-0.000791,1.700000,0.249968,1
2.001640,0.035516,0.054065,-0.021469,1.013048,1.014717,0.000545,0.002241,0.000023,STILL,0,-0.000790,1.700000,0.249968,1
2.039985,0.038346,0.054308,-0.020987,1.013779,1.015449,-0.000985,-0.001117,-0.000268,STILL,0,-0.000801,1.700000,0.249968,1
2.078460,0.038475,0.054793,-0.020745,1.012804,1.014497,-0.001288,0.000697,0.000932,STILL,0,-0.000765,1.700000,0.249968,1
2.115430,0.036970,0.054550,-0.019781,1.013048,1.014708,0.000842,0.001579,0.000947,STILL,0,-0.000730,1.700000,0.249968,1
2.147483,0.032052,0.053096,-0.020263,1.013779,1.015370,0.002005,-0.000851,0.000034,STILL,0,-0.000729,1.700000,0.249968,1
2.182074,0.034591,0.052126,-0.020745,1.014754,1.016303,0.001047,-0.000532,0.001855,STILL,0,-0.000665,1.700000,0.249968,1
2.219064,0.036990,0.053581,-0.021228,1.014510,1.016146,0.001267,0.001283,0.000342,STILL,0,-0.000652,1.700000,0.249968,1
2.249074,0.030010,0.055520,-0.020504,1.014997,1.016722,-0.001157,0.000619,-0.000865,STILL,0,-0.000678,1.700000,0.249968,1
2.284742,0.035668,0.052126,-0.020504,1.014266,1.015812,0.000963,-0.000017,-0.000862,STILL,0,-0.000709,1.700000,0.249968,1
2.319170,0.034428,0.053823,-0.020987,1.015241,1.016883,-0.002057,0.000894,-0.000248,STILL,0,-0.000717,1.700000,0.249968,1
2.353410,0.034240,0.054308,-0.021228,1.014266,1.015941,0.000720,0.002076,0.001267,STILL,0,-0.000674,1.700000,0.249968,1
2.379306,0.025896,0.053581,-0.021469,1.014754,1.016394,-0.000485,0.001411,0.000940,STILL,0,-0.000649,1.700000,0.249968,1
2.423244,0.043937,0.053823,-0.020504,1.014023,1.015657,-0.000154,-0.000428,-0.001153,STILL,0,-0.000700,1.700000,0.249968,1
2.453336,0.030092,0.053096,-0.021228,1.014754,1.016364,0.002544,0.002579,-0.001120,STILL,0,-0.000734,1.700000,0.249968,1
2.491565,0.038229,0.055035,-0.021952,1.014023,1.015752,-0.000503,-0.000174,0.000394,STILL,0,-0.000719,1.700000,0.249968,1
2.523254,0.031689,0.053096,-0.021469,1.013779,1.015395,0.001000,-0.001339,-0.000205,STILL,0,-0.000725,1.700000,0.249968,1
2.560122,0.036868,0.055035,-0.020987,1.015485,1.017191,0.000045,-0.000699,-0.002030,STILL,0,-0.000800,1.700000,0.249968,1
2.595871,0.035749,0.055035,-0.021710,1.015485,1.017207,-0.000547,0.002002,-0.001713,STILL,0,-0.000861,1.700000,0.249968,1
2.635424,0.039553,0.054308,-0.021469,1.016460,1.018136,-0.000513,0.001345,-0.000469,STILL,0,-0.000880,1.700000,0.249968,1
2.678743,0.043319,0.054065,-0.020263,1.014997,1.016638,0.000079,0.000709,0.001063,STILL,0,-0.000834,1.700000,0.249968,1
2.708150,0.029407,0.053338,-0.021952,1.014997,1.016635,0.000967,0.000961,-0.001335,STILL,0,-0.000873,1.700000,0.249968,1
2.738132,0.029982,0.053581,-0.020745,1.014266,1.015892,-0.000872,-0.001443,0.001102,STILL,0,-0.000840,1.700000,0.249968,1
2.786578,0.048446,0.054550,-0.023640,1.014997,1.016737,0.000639,0.000386,0.001691,STILL,0,-0.000758,1.700000,0.249968,1
2.819450,0.032872,0.054065,-0.020504,1.014510,1.016157,-0.001795,0.000378,-0.000132,STILL,0,-0.000762,1.700000,0.249968,1
2.855244,0.035794,0.054793,-0.020745,1.015485,1.017173,-0.001766,-0.001426,-0.000713,STILL,0,-0.000788,1.700000,0.249968,1
2.894007,0.038763,0.054065,-0.020987,1.015972,1.017626,0.000065,-0.001419,0.000187,STILL,0,-0.000781,1.700000,0.249968,1
2.925264,0.031257,0.053823,-0.021228,1.015241,1.016888,0.001524,-0.000476,0.000181,STILL,0,-0.000775,1.700000,0.249968,1
2.961665,0.036402,0.052853,-0.020504,1.015728,1.017309,-0.001825,0.001938,-0.001607,STILL,0,-0.000834,1.700000,0.249968,1
2.996079,0.034414,0.054308,-0.021228,1.016216,1.017887,-0.000293,-0.000474,-0.001263,STILL,0,-0.000877,1.700000,0.249968,1
3.032642,0.036563,0.053581,-0.020263,1.016460,1.018072,0.001824,0.001624,0.000866,STILL,0,-0.000845,1.700000,0.249968,1
3.064352,0.031710,0.053823,-0.021469,1.014023,1.015677,-0.000594,-0.001128,-0.001280,STILL,0,-0.000886,1.700000,0.249968,1
3.099549,0.035197,0.052853,-0.021952,1.015728,1.017340,0.000026,-0.000495,0.000859,STILL,0,-0.000856,1.700000,0.249968,1
3.134019,0.034470,0.055035,-0.021710,1.014997,1.016720,0.000025,0.001313,-0.000640,STILL,0,-0.000878,1.700000,0.249968,1
3.170062,0.036043,0.055278,-0.021952,1.016216,1.017955,0.000040,-0.001713,0.001488,STILL,0,-0.000824,1.700000,0.249968,1
3.205407,0.035345,0.053581,-0.020987,1.015728,1.017357,0.001835,0.000105,-0.000038,STILL,0,-0.000825,1.700000,0.249968,1
3.237878,0.032471,0.055035,-0.021469,1.015972,1.017688,0.001529,-0.000504,0.000279,STILL,0,-0.000816,1.700000,0.249968,1
3.270667,0.032789,0.053823,-0.021228,1.016460,1.018105,0.001448,-0.000787,-0.000631,STILL,0,-0.000837,1.700000,0.249968,1
3.302987,0.032320,0.053823,-0.022434,1.016460,1.018131,0.001084,-0.000471,0.001482,STILL,0,-0.000789,1.700000,0.249968,1
3.330198,0.027211,0.054065,-0.021228,1.017191,1.018848,0.000763,0.000451,-0.000344,STILL,0,-0.000799,1.700000,0.249968,1
3.363811,0.033613,0.053823,-0.022916,1.015972,1.017655,0.001343,-0.000160,0.000884,STILL,0,-0.000769,1.700000,0.249968,1
3.399496,0.035684,0.055035,-0.021228,1.015728,1.017440,0.000413,0.000726,0.000274,STILL,0,-0.000759,1.700000,0.249968,1
3.438259,0.038763,0.053823,-0.020745,1.017434,1.019068,0.000689,-0.002917,0.000545,STILL,0,-0.000738,1.700000,0.249968,1
3.467946,0.029687,0.054308,-0.021469,1.015728,1.017406,0.001241,0.001314,0.000226,STILL,0,-0.000731,1.700000,0.249968,1
3.505122,0.037176,0.053338,-0.021710,1.016947,1.018576,0.001796,-0.000231,0.000214,STILL,0,-0.000723,1.700000,0.249968,1
3.543301,0.038179,0.054065,-0.019298,1.016703,1.018323,-0.001832,-0.000534,-0.000089,STILL,0,-0.000727,1.700000,0.249968,1
3.575361,0.032060,0.053581,-0.022193,1.015241,1.016896,0.002122,-0.002313,-0.000416,STILL,0,-0.000740,1.700000,0.249968,1
3.613176,0.037815,0.052853,-0.021469,1.017678,1.019276,-0.000961,0.002223,-0.001288,STILL,0,-0.000789,1.700000,0.249968,1
3.654067,0.040891,0.054065,-0.020987,1.016460,1.018113,0.000262,-0.000213,0.000226,STILL,0,-0.000780,1.700000,0.249968,1
3.686077,0.032011,0.054065,-0.021952,1.017191,1.018863,-0.000368,-0.002053,-0.000952,STILL,0,-0.000810,1.700000,0.249968,1
3.725867,0.039790,0.053338,-0.020745,1.017191,1.018799,-0.000376,-0.000218,0.000275,STILL,0,-0.000799,1.700000,0.249968,1
3.762614,0.036747,0.053823,-0.021469,1.015972,1.017623,0.001454,-0.000536,0.000266,STILL,0,-0.000789,1.700000,0.249968,1
3.795597,0.032982,0.055278,-0.020745,1.016947,1.018659,-0.000921,-0.000819,-0.000308,STILL,0,-0.000799,1.700000,0.249968,1
3.840026,0.044429,0.053338,-0.021952,1.015728,1.017365,0.001191,-0.000221,0.002360,STILL,0,-0.000695,1.700000,0.249968,1
3.886823,0.046798,0.053823,-0.020745,1.016460,1.018095,0.000286,0.001298,0.000229,STILL,0,-0.000684,1.700000,0.249968,1
3.933064,0.046240,0.054793,-0.022675,1.017434,1.019161,0.000902,-0.002309,0.001143,STILL,0,-0.000631,1.700000,0.249968,1
3.997526,0.064463,0.055035,-0.020022,1.016947,1.018632,-0.000339,-0.000771,-0.000361,STILL,0,-0.000654,1.700000,0.249968,1
4.034790,0.037264,0.054308,-0.020745,1.015972,1.017634,0.002380,0.000131,-0.000375,STILL,0,-0.000668,1.700000,0.249968,1
4.079397,0.044607,0.054065,-0.020504,1.016703,1.018346,0.001130,0.000432,0.000824,STILL,0,-0.000632,1.700000,0.249968,1
4.115958,0.036561,0.054065,-0.020263,1.017922,1.019558,0.000507,-0.000769,-0.000104,STILL,0,-0.000635,1.700000,0.249968,1
4.152199,0.036241,0.053096,-0.020263,1.015972,1.017560,-0.003063,-0.000423,-0.001592,STILL,0,-0.000693,1.700000,0.249968,1
4.189261,0.037062,0.054793,-0.021952,1.017434,1.019145,-0.000314,0.001403,0.001423,STILL,0,-0.000640,1.700000,0.249968,1
4.233919,0.044658,0.055278,-0.020987,1.017678,1.019394,-0.001210,-0.000700,0.000175,STILL,0,-0.000633,1.700000,0.249968,1
4.270561,0.036641,0.054308,-0.020745,1.017434,1.019094,0.000002,0.000214,-0.000432,STILL,0,-0.000648,1.700000,0.249968,1
4.307874,0.037314,0.055520,-0.020745,1.016460,1.018186,0.002109,0.000497,-0.001013,STILL,0,-0.000686,1.700000,0.249968,1
4.348553,0.040679,0.054550,-0.020987,1.016703,1.018382,-0.000033,-0.001046,0.000477,STILL,0,-0.000667,1.700000,0.249968,1
4.379397,0.030844,0.053338,-0.020987,1.017191,1.018804,-0.002404,-0.001627,0.000746,STILL,0,-0.000644,1.700000,0.249968,1
4.413727,0.034330,0.054065,-0.020263,1.016216,1.017855,0.001824,-0.000407,0.001012,STILL,0,-0.000609,1.700000,0.249968,1
4.449327,0.035600,0.053581,-0.021952,1.016216,1.017864,0.001809,-0.000724,-0.001425,STILL,0,-0.000660,1.700000,0.249968,1
4.484799,0.035472,0.054550,-0.021710,1.017922,1.019613,-0.000618,-0.000140,0.000104,STILL,0,-0.000656,1.700000,0.249968,1
4.517576,0.032777,0.054308,-0.020263,1.016947,1.018598,-0.000618,-0.000736,0.000711,STILL,0,-0.000633,1.700000,0.249968,1
4.554916,0.037340,0.053823,-0.020504,1.017191,1.018820,-0.000002,-0.000401,-0.001089,STILL,0,-0.000673,1.700000,0.249968,1
4.587810,0.032894,0.053823,-0.020987,1.016947,1.018586,0.001184,-0.001894,-0.000722,STILL,0,-0.000697,1.700000,0.249968,1
4.620589,0.032780,0.053823,-0.020987,1.016703,1.018343,0.000590,-0.000349,-0.000413,STILL,0,-0.000711,1.700000,0.249968,1
4.656395,0.035806,0.054308,-0.021469,1.017434,1.019109,-0.000026,0.001479,0.000467,STILL,0,-0.000694,1.700000,0.249968,1
4.693297,0.036902,0.055035,-0.022675,1.016947,1.018687,0.001472,0.000274,0.001052,STILL,0,-0.000655,1.700000,0.249968,1
4.727578,0.034281,0.053338,-0.020745,1.018165,1.019773,-0.000359,0.001481,0.001668,STILL,0,-0.000598,1.700000,0.249968,1
4.758663,0.031085,0.054550,-0.020263,1.017922,1.019584,-0.000072,-0.000019,0.000421,STILL,0,-0.000585,1.700000,0.249968,1
4.791080,0.032417,0.053823,-0.021228,1.016460,1.018105,0.001142,0.000287,0.000107,STILL,0,-0.000581,1.700000,0.249968,1
4.827446,0.036366,0.053581,-0.022193,1.017191,1.018843,0.001720,0.001214,-0.001083,STILL,0,-0.000621,1.700000,0.249968,1
4.863571,0.036125,0.053823,-0.020504,1.017434,1.019063,-0.001326,-0.000583,0.000755,STILL,0,-0.000594,1.700000,0.249968,1
4.896733,0.033162,0.053581,-0.021228,1.018165,1.019795,0.000790,-0.001450,0.000414,STILL,0,-0.000580,1.700000,0.249968,1
4.930297,0.033564,0.053823,-0.021228,1.017191,1.018835,-0.001903,-0.000230,-0.000185,STILL,0,-0.000586,1.700000,0.249968,1
4.973819,0.043522,0.053581,-0.021710,1.016703,1.018346,-0.000073,0.001254,-0.001390,STILL,0,-0.000647,1.700000,0.249968,1
5.007673,0.033854,0.054793,-0.021228,1.016947,1.018643,0.002362,-0.002102,0.000463,STILL,0,-0.000631,1.700000,0.249968,1
5.047224,0.039551,0.054550,-0.021710,1.018653,1.020343,0.001713,-0.001431,-0.000463,STILL,0,-0.000649,1.700000,0.249968,1
5.086506,0.039282,0.054550,-0.021952,1.016947,1.018645,0.000159,-0.000238,0.001924,STILL,0,-0.000574,1.700000,0.249968,1
5.122165,0.035659,0.054065,-0.020504,1.018165,1.019806,-0.002213,0.000972,-0.001723,STILL,0,-0.000635,1.700000,0.249968,1
5.158411,0.036245,0.053338,-0.021469,1.017191,1.018814,0.000238,0.001565,0.001923,STILL,0,-0.000565,1.700000,0.249968,1
5.190086,0.031676,0.053823,-0.021952,1.017678,1.019337,-0.001226,0.000037,0.000402,STILL,0,-0.000553,1.700000,0.249968,1
5.223302,0.033216,0.053581,-0.020987,1.017434,1.019060,-0.002427,-0.000245,0.000384,STILL,0,-0.000540,1.700000,0.249968,1
5.258833,0.035531,0.052611,-0.021710,1.016947,1.018538,-0.002402,-0.000216,-0.000515,STILL,0,-0.000558,1.700000,0.249968,1
5.287099,0.028266,0.054065,-0.020745,1.016947,1.018594,-0.000886,-0.000224,-0.001413,STILL,0,-0.000598,1.700000,0.249968,1
5.317404,0.030304,0.053096,-0.022193,1.019140,1.020764,0.001531,-0.000863,0.001331,STILL,0,-0.000558,1.700000,0.249968,1
5.352766,0.035363,0.053581,-0.020745,1.014754,1.016379,-0.001192,0.000377,-0.000530,STILL,0,-0.000577,1.700000,0.249968,1
5.384894,0.032128,0.053096,-0.021952,1.017922,1.019542,0.000069,0.000079,0.000103,STILL,0,-0.000573,1.700000,0.249968,1
5.418829,0.033935,0.054308,-0.022434,1.016460,1.018157,0.000972,0.000412,-0.000465,STILL,0,-0.000589,1.700000,0.249968,1
5.452531,0.033702,0.055035,-0.022193,1.017191,1.018920,-0.003835,0.000384,-0.000150,STILL,0,-0.000594,1.700000,0.249968,1
5.488809,0.036278,0.054065,-0.020745,1.016216,1.017865,-0.001670,0.000091,0.002253,STILL,0,-0.000512,1.700000,0.249968,1
5.520458,0.031649,0.053338,-0.021710,1.017191,1.018820,0.002009,-0.001368,0.000406,STILL,0,-0.000499,1.700000,0.249968,1
5.561066,0.040608,0.053823,-0.021710,1.017434,1.019088,-0.000109,-0.000437,-0.000829,STILL,0,-0.000533,1.700000,0.249968,1
5.592370,0.031303,0.054065,-0.020987,1.017922,1.019572,-0.001612,0.000173,-0.002033,STILL,0,-0.000597,1.700000,0.249968,1
5.644103,0.051733,0.053823,-0.021469,1.017678,1.019327,-0.001889,0.001088,0.001023,STILL,0,-0.000544,1.700000,0.249968,1
5.678743,0.034641,0.054308,-0.020263,1.015241,1.016894,-0.000920,-0.001310,0.000398,STILL,0,-0.000530,1.700000,0.249968,1
5.713482,0.034739,0.054550,-0.020745,1.016216,1.017890,-0.001515,0.000530,-0.000511,STILL,0,-0.000548,1.700000,0.249968,1
5.747168,0.033686,0.054308,-0.020504,1.016947,1.018602,-0.001490,0.001749,0.000692,STILL,0,-0.000524,1.700000,0.249968,1
5.785962,0.038794,0.054550,-0.021710,1.016460,1.018154,-0.000290,0.000230,0.000384,STILL,0,-0.000510,1.700000,0.249968,1
5.814114,0.028152,0.053823,-0.021469,1.015972,1.017623,0.002117,-0.000093,0.000086,STILL,0,-0.000507,1.700000,0.249968,1
5.854131,0.040017,0.054308,-0.020987,1.016216,1.017882,-0.001236,0.000190,0.000073,STILL,0,-0.000504,1.700000,0.249968,1
5.882120,0.027990,0.055035,-0.021228,1.017922,1.019629,-0.000284,-0.000122,-0.000219,STILL,0,-0.000510,1.700000,0.249968,1
5.923034,0.040914,0.054065,-0.022434,1.015241,1.016927,-0.000885,-0.000102,0.001900,STILL,0,-0.000433,1.700000,0.249968,1
5.963113,0.040079,0.054065,-0.020987,1.016460,1.018113,0.000005,-0.000389,0.000055,STILL,0,-0.000430,1.700000,0.249968,1
5.997099,0.033987,0.054793,-0.021469,1.016703,1.018405,-0.000896,0.000515,0.000338,STILL,0,-0.000419,1.700000,0.249968,1
6.030848,0.033748,0.055278,-0.021228,1.016947,1.018669,-0.000576,0.000502,0.000022,STILL,0,-0.000418,1.700000,0.249968,1
6.062605,0.031757,0.054308,-0.020022,1.014997,1.016646,0.000324,-0.000095,-0.000284,STILL,0,-0.000427,1.700000,0.249968,1
6.099762,0.037157,0.054065,-0.021952,1.015728,1.017403,0.001504,-0.000127,-0.000891,STILL,0,-0.000460,1.700000,0.249968,1
6.140314,0.040552,0.054065,-0.021710,1.016216,1.017885,-0.000038,0.000152,-0.000601,STILL,0,-0.000485,1.700000,0.249968,1
6.178043,0.037729,0.054308,-0.020263,1.015972,1.017624,-0.000382,0.000723,0.000315,STILL,0,-0.000473,1.700000,0.249968,1
6.235870,0.057827,0.055278,-0.021228,1.015972,1.017696,-0.001621,0.000694,0.000600,STILL,0,-0.000438,1.700000,0.249968,1
6.277329,0.041459,0.053823,-0.021228,1.016703,1.018348,-0.000106,0.000996,-0.001823,STILL,0,-0.000514,1.700000,0.249968,1
6.352851,0.075522,0.053823,-0.021710,1.014754,1.016412,-0.001599,0.000973,0.000300,STILL,0,-0.000491,1.700000,0.249968,1
6.384078,0.031227,0.054793,-0.020987,1.016216,1.017908,-0.000364,-0.001452,0.001781,STILL,0,-0.000435,1.700000,0.249968,1
6.417140,0.033063,0.053823,-0.021469,1.015972,1.017623,-0.001564,0.000063,-0.000640,STILL,0,-0.000457,1.700000,0.249968,1
6.453562,0.036422,0.054550,-0.020745,1.016460,1.018134,-0.000941,-0.000540,0.001768,STILL,0,-0.000392,1.700000,0.249968,1
6.485443,0.031881,0.053096,-0.021710,1.015485,1.017104,0.000271,-0.000237,-0.001248,STILL,0,-0.000432,1.700000,0.249968,1
6.520087,0.034644,0.054065,-0.020263,1.014510,1.016152,-0.000323,0.000957,-0.001517,STILL,0,-0.000484,1.700000,0.249968,1
6.554085,0.033998,0.053338,-0.021469,1.015972,1.017598,-0.000007,0.000635,-0.000290,STILL,0,-0.000494,1.700000,0.249968,1
6.590495,0.036411,0.052853,-0.020987,1.017191,1.018779,0.000278,0.001209,0.002117,STILL,0,-0.000417,1.700000,0.249968,1
6.626065,0.035570,0.055035,-0.020504,1.016460,1.018155,0.000264,-0.001238,-0.001812,STILL,0,-0.000482,1.700000,0.249968,1
6.656227,0.030161,0.054550,-0.022193,1.017191,1.018894,0.000225,-0.000041,0.001236,STILL,0,-0.000444,1.700000,0.249968,1
6.690594,0.034368,0.053338,-0.020987,1.016216,1.017831,-0.000053,-0.001562,-0.000277,STILL,0,-0.000454,1.700000,0.249968,1
6.729638,0.039043,0.054308,-0.020987,1.016460,1.018126,-0.000311,0.000237,-0.000547,STILL,0,-0.000475,1.700000,0.249968,1
6.758544,0.028906,0.053581,-0.020987,1.016703,1.018330,-0.000005,-0.000066,-0.000259,STILL,0,-0.000483,1.700000,0.249968,1
6.794359,0.035815,0.054308,-0.020504,1.015728,1.017386,0.000560,-0.000910,0.000350,STILL,0,-0.000470,1.700000,0.249968,1
6.829991,0.035632,0.055520,-0.020745,1.015972,1.017699,-0.000980,-0.000274,0.000053,STILL,0,-0.000468,1.700000,0.249968,1
6.864998,0.035007,0.052368,-0.020745,1.016216,1.017776,-0.000672,-0.000595,0.000347,STILL,0,-0.000456,1.700000,0.249968,1
6.898499,0.033501,0.054793,-0.021710,1.017434,1.019140,-0.001251,-0.000876,0.003048,STILL,0,-0.000354,1.700000,0.249968,1
6.931995,0.033496,0.053338,-0.019781,1.016703,1.018294,-0.001214,-0.001788,-0.000887,STILL,0,-0.000384,1.700000,0.249968,1
6.966618,0.034623,0.053338,-0.021228,1.016703,1.018323,-0.000588,0.000669,-0.001468,STILL,0,-0.000435,1.700000,0.249968,1
6.997356,0.030738,0.053581,-0.019539,1.016947,1.018545,-0.001204,-0.001150,-0.002085,STILL,0,-0.000499,1.700000,0.249968,1
7.037685,0.040329,0.054065,-0.020504,1.016216,1.017860,-0.001184,0.000945,-0.000540,STILL,0,-0.000520,1.700000,0.249968,1
7.070207,0.032522,0.053823,-0.020745,1.016460,1.018095,0.000036,-0.000287,-0.000496,STILL,0,-0.000537,1.700000,0.249968,1
7.110734,0.040527,0.053581,-0.020987,1.015485,1.017114,-0.001757,0.002725,-0.000480,STILL,0,-0.000556,1.700000,0.249968,1
7.145745,0.035012,0.053823,-0.022193,1.015728,1.017396,0.001875,-0.000629,-0.001665,STILL,0,-0.000614,1.700000,0.249968,1
7.185944,0.040198,0.053338,-0.021469,1.016216,1.017841,0.001222,-0.000593,0.000172,STILL,0,-0.000607,1.700000,0.249968,1
7.224144,0.038201,0.054550,-0.021952,1.015728,1.017429,0.001822,0.003616,0.000787,STILL,0,-0.000577,1.700000,0.249968,1
7.257104,0.032960,0.053581,-0.022193,1.017191,1.018843,-0.000290,-0.000628,-0.001321,STILL,0,-0.000621,1.700000,0.249968,1
7.289380,0.032276,0.053823,-0.021228,1.017191,1.018835,0.000305,-0.001212,-0.001883,STILL,0,-0.000682,1.700000,0.249968,1
7.318288,0.028908,0.053096,-0.021710,1.016460,1.018077,0.000911,-0.001192,-0.000038,STILL,0,-0.000683,1.700000,0.249968,1
7.351778,0.033490,0.053581,-0.021710,1.017922,1.019562,0.002397,-0.000898,-0.001528,STILL,0,-0.000734,1.700000,0.249968,1
7.384855,0.033077,0.054308,-0.021469,1.016703,1.018379,0.000846,0.002441,-0.001487,STILL,0,-0.000783,1.700000,0.249968,1
7.417915,0.033060,0.053338,-0.021952,1.017678,1.019311,0.001398,-0.000598,-0.000847,STILL,0,-0.000811,1.700000,0.249968,1
7.445845,0.027930,0.053581,-0.020263,1.017191,1.018802,-0.000125,0.000037,-0.001730,STILL,0,-0.000860,1.700000,0.249968,1
7.476822,0.030977,0.053823,-0.021952,1.014023,1.015687,-0.002218,0.000336,-0.001408,STILL,0,-0.000903,1.700000,0.249968,1
7.506732,0.029910,0.054065,-0.021469,1.018653,1.020312,-0.000342,0.002122,-0.000480,STILL,0,-0.000917,1.700000,0.249968,1
7.538148,0.031416,0.054793,-0.021469,1.014510,1.016215,0.000240,-0.003329,-0.002576,STILL,0,-0.000998,1.700000,0.249968,1
7.576179,0.038031,0.053823,-0.021952,1.017191,1.018850,0.002044,0.000921,-0.001314,STILL,0,-0.001048,1.700000,0.249968,1
7.601566,0.025387,0.054550,-0.020263,1.016703,1.018367,-0.000412,-0.002388,-0.000359,STILL,0,-0.001058,1.700000,0.249968,1
7.633126,0.031559,0.054308,-0.020745,1.016947,1.018607,-0.000093,0.000970,-0.002159,STILL,0,-0.001126,1.700000,0.249968,1
7.661322,0.028196,0.054308,-0.021228,1.016460,1.018131,0.000546,0.000337,-0.002113,STILL,0,-0.001185,1.700000,0.249968,1
7.692588,0.031266,0.052853,-0.020745,1.015972,1.017557,-0.000628,0.000646,-0.000586,STILL,0,-0.001204,1.700000,0.249968,1
7.733678,0.041090,0.053823,-0.020987,1.015485,1.017127,0.000249,0.002141,0.000630,STILL,0,-0.001178,1.700000,0.249968,1
7.761555,0.027877,0.053823,-0.021710,1.016216,1.017872,-0.001816,0.001520,-0.001473,STILL,0,-0.001219,1.700000,0.249968,1
7.803373,0.041819,0.053338,-0.021710,1.018653,1.020279,0.001868,-0.000608,0.000062,STILL,0,-0.001216,1.700000,0.249968,1
7.842088,0.038715,0.053096,-0.021952,1.016460,1.018082,0.000950,-0.000308,-0.000541,STILL,0,-0.001237,1.700000,0.249968,1
7.880083,0.037995,0.052611,-0.019781,1.015728,1.017282,-0.001794,-0.001494,-0.002019,STILL,0,-0.001314,1.700000,0.249968,1
7.914033,0.033950,0.055035,-0.022434,1.017434,1.019169,0.000358,0.000323,0.001026,STILL,0,-0.001279,1.700000,0.249968,1
7.950720,0.036687,0.054065,-0.020987,1.017434,1.019086,-0.000270,-0.000299,-0.001966,STILL,0,-0.001351,1.700000,0.249968,1
7.985990,0.035270,0.054065,-0.020504,1.016947,1.018589,-0.001452,-0.000899,-0.001019,STILL,0,-0.001387,1.700000,0.249968,1
8.025305,0.039315,0.055035,-0.022193,1.017678,1.019407,0.002210,-0.001200,-0.000375,STILL,0,-0.001402,1.700000,0.249968,1
8.060927,0.035621,0.054308,-0.020745,1.018653,1.020310,-0.001187,0.000046,-0.000367,STILL,0,-0.001415,1.700000,0.249968,1
8.091508,0.030581,0.053338,-0.021228,1.017191,1.018809,0.000965,0.000030,0.000551,STILL,0,-0.001398,1.700000,0.249968,1
8.129555,0.038047,0.054550,-0.020745,1.018409,1.020080,0.000382,0.000039,-0.001860,STILL,0,-0.001469,1.700000,0.249968,1
8.157574,0.028019,0.054308,-0.022434,1.017191,1.018886,0.000385,0.000633,-0.000322,STILL,0,-0.001478,1.700000,0.249968,1
8.201261,0.043686,0.053338,-0.021952,1.019140,1.020771,-0.002301,-0.000004,-0.000616,STILL,0,-0.001505,1.700000,0.249968,1
8.245693,0.044432,0.054550,-0.020022,1.017191,1.018849,-0.000788,-0.001520,-0.001817,STILL,0,-0.001585,1.700000,0.249968,1
8.279011,0.033319,0.054065,-0.021469,1.017678,1.019339,0.001325,0.000897,-0.000871,STILL,0,-0.001614,1.700000,0.249968,1
8.314808,0.035797,0.053096,-0.021469,1.017922,1.019532,0.001286,0.001508,0.000635,STILL,0,-0.001592,1.700000,0.249968,1
8.358207,0.043399,0.054308,-0.021469,1.017678,1.019352,0.000638,-0.000609,-0.001198,STILL,0,-0.001644,1.700000,0.249968,1
8.396689,0.038482,0.053823,-0.021952,1.016947,1.018607,-0.000570,-0.000283,0.003031,STILL,0,-0.001527,1.700000,0.249968,1
8.436184,0.039495,0.054308,-0.021469,1.017434,1.019109,0.000926,-0.000243,-0.000934,STILL,0,-0.001564,1.700000,0.249968,1
8.471504,0.035321,0.053581,-0.021952,1.017922,1.019567,0.001516,0.001236,0.000904,STILL,0,-0.001532,1.700000,0.249968,1
8.515704,0.044200,0.053338,-0.021469,1.017191,1.018814,-0.000597,0.000319,-0.001508,STILL,0,-0.001599,1.700000,0.249968,1
8.558827,0.043123,0.054550,-0.022434,1.016703,1.018413,0.000004,-0.000002,0.000329,STILL,0,-0.001585,1.700000,0.249968,1
8.599866,0.041039,0.054308,-0.022193,1.016216,1.017908,-0.000302,0.000003,0.000007,STILL,0,-0.001584,1.700000,0.249968,1
8.645407,0.045541,0.053581,-0.020987,1.016947,1.018574,0.001200,-0.002679,0.000312,STILL,0,-0.001570,1.700000,0.249968,1
8.684404,0.038997,0.054550,-0.021710,1.016703,1.018397,0.000599,0.000998,-0.000579,STILL,0,-0.001593,1.700000,0.249968,1
8.721650,0.037246,0.054065,-0.021952,1.019384,1.021053,-0.000622,-0.001117,-0.000570,STILL,0,-0.001614,1.700000,0.249968,1
8.756868,0.035218,0.054550,-0.020987,1.017678,1.019355,0.001786,-0.001340,-0.001156,STILL,0,-0.001655,1.700000,0.249968,1
8.792182,0.035314,0.053823,-0.021710,1.017434,1.019088,-0.001811,0.000782,0.000073,STILL,0,-0.001652,1.700000,0.249968,1
8.837667,0.045485,0.054308,-0.020745,1.016947,1.018607,-0.002692,0.001071,-0.000565,STILL,0,-0.001678,1.700000,0.249968,1
8.881685,0.044019,0.053823,-0.020987,1.015972,1.017613,0.001261,0.000496,0.000039,STILL,0,-0.001676,1.700000,0.249968,1
8.921684,0.039999,0.053096,-0.021710,1.017678,1.019294,0.000623,0.001060,-0.000553,STILL,0,-0.001698,1.700000,0.249968,1
8.957994,0.036310,0.054550,-0.022193,1.018165,1.019867,0.002134,-0.000778,-0.000234,STILL,0,-0.001707,1.700000,0.249968,1
8.997942,0.039948,0.053581,-0.020504,1.016216,1.017834,0.002949,0.000144,-0.000516,STILL,0,-0.001727,1.700000,0.249968,1
9.041712,0.043770,0.053581,-0.020745,1.017678,1.019299,-0.002799,-0.001067,0.001308,STILL,0,-0.001670,1.700000,0.249968,1
9.075259,0.033548,0.053338,-0.020987,1.016460,1.018074,-0.001805,-0.001942,0.000684,STILL,0,-0.001647,1.700000,0.249968,1
9.108610,0.033350,0.054308,-0.020745,1.016703,1.018364,-0.000579,0.000199,-0.000810,STILL,0,-0.001674,1.700000,0.249968,1
9.141655,0.033045,0.054793,-0.021469,1.016216,1.017918,0.000682,0.000778,0.001029,STILL,0,-0.001640,1.700000,0.249968,1
9.173525,0.031870,0.052611,-0.022193,1.016460,1.018062,0.000349,-0.000469,-0.001087,STILL,0,-0.001675,1.700000,0.249968,1
9.208640,0.035115,0.053823,-0.020745,1.017191,1.018825,0.000347,-0.001370,-0.001066,STILL,0,-0.001712,1.700000,0.249968,1
9.242731,0.034091,0.054550,-0.021469,1.016703,1.018392,0.000325,-0.000153,-0.000145,STILL,0,-0.001717,1.700000,0.249968,1
9.277134,0.034403,0.054793,-0.020987,1.017678,1.019368,0.001861,-0.000143,-0.000150,STILL,0,-0.001722,1.700000,0.249968,1
9.312181,0.035047,0.053338,-0.021469,1.017434,1.019058,0.000033,0.000468,0.000145,STILL,0,-0.001717,1.700000,0.249968,1
9.349636,0.037455,0.054308,-0.020987,1.016703,1.018369,0.000327,0.000467,0.000160,STILL,0,-0.001711,1.700000,0.249968,1
9.381672,0.032037,0.053581,-0.020263,1.016460,1.018072,-0.000300,-0.000719,-0.001362,STILL,0,-0.001755,1.700000,0.249968,1
9.417146,0.035474,0.053823,-0.021469,1.018653,1.020300,-0.001185,0.000195,0.001952,STILL,0,-0.001686,1.700000,0.249968,1
9.457673,0.040527,0.054793,-0.022675,1.016947,1.018674,0.001206,0.000204,0.000125,STILL,0,-0.001680,1.700000,0.249968,1
9.493673,0.036000,0.054550,-0.021469,1.017922,1.019608,0.002057,-0.001024,-0.000149,STILL,0,-0.001686,1.700000,0.249968,1
9.525707,0.032034,0.053581,-0.022193,1.017434,1.019086,-0.000099,-0.001341,-0.001936,STILL,0,-0.001748,1.700000,0.249968,1
9.563996,0.038289,0.053581,-0.020263,1.018897,1.020506,0.000750,0.001076,0.000516,STILL,0,-0.001728,1.700000,0.249968,1
9.596136,0.032140,0.054550,-0.021469,1.018409,1.020095,-0.001387,-0.001663,-0.000066,STILL,0,-0.001730,1.700000,0.249968,1
9.635579,0.039443,0.053338,-0.021952,1.018409,1.020041,-0.000450,0.001391,0.000842,STILL,0,-0.001697,1.700000,0.249968,1
9.686469,0.050890,0.053338,-0.021228,1.019140,1.020756,0.000145,-0.000157,-0.000673,STILL,0,-0.001731,1.700000,0.249968,1
9.723178,0.036710,0.054550,-0.021710,1.017191,1.018884,0.000466,0.001365,-0.000035,STILL,0,-0.001733,1.700000,0.249968,1
9.764415,0.041237,0.055278,-0.020987,1.016947,1.018664,-0.001041,0.001034,-0.000038,STILL,0,-0.001734,1.700000,0.249968,1
9.795726,0.031310,0.054793,-0.021228,1.016703,1.018400,0.000164,-0.000812,-0.000633,STILL,0,-0.001754,1.700000,0.249968,1
9.834870,0.039145,0.053096,-0.020987,1.017434,1.019035,0.001360,-0.000505,-0.000627,STILL,0,-0.001778,1.700000,0.249968,1
9.895941,0.061071,0.054065,-0.020745,1.018409,1.020054,-0.000747,0.000067,-0.001787,STILL,0,-0.001888,1.700000,0.249968,1
9.928650,0.032709,0.053096,-0.022193,1.017922,1.019547,-0.003740,0.000410,0.001240,STILL,0,-0.001847,1.700000,0.249968,1
9.964933,0.036283,0.054550,-0.021228,1.017922,1.019603,0.002345,0.000361,0.000894,STILL,0,-0.001815,1.700000,0.249968,1
9.990219,0.025286,0.053823,-0.022434,1.017922,1.019590,-0.001006,-0.000877,-0.000312,STILL,0,-0.001822,1.700000,0.249968,1
10.014244,0.024026,0.054065,-0.020987,1.017434,1.019086,-0.000107,-0.000247,-0.001793,STILL,0,-0.001866,1.700000,0.249968,1
10.045754,0.031510,0.055520,-0.021228,1.017434,1.019169,0.000772,-0.000259,0.000333,STILL,0,-0.001855,1.700000,0.249968,1
10.074059,0.028305,0.053581,-0.021952,1.016703,1.018351,-0.001050,-0.000581,0.000017,STILL,0,-0.001855,1.700000,0.249968,1
10.109644,0.035585,0.054065,-0.022434,1.017191,1.018874,-0.000735,-0.002679,0.000302,STILL,0,-0.001844,1.700000,0.249968,1
10.138196,0.028552,0.053338,-0.022434,1.018409,1.020052,-0.001006,0.000078,0.002078,STILL,0,-0.001785,1.700000,0.249968,1
10.168577,0.030381,0.054793,-0.021952,1.018409,1.020118,0.000789,-0.000240,-0.001259,STILL,0,-0.001823,1.700000,0.249968,1
10.200519,0.031942,0.055278,-0.022434,1.016947,1.018695,-0.001604,-0.001184,-0.001538,STILL,0,-0.001872,1.700000,0.249968,1
10.225532,0.025013,0.053338,-0.019539,1.016947,1.018532,0.002934,-0.002091,0.000601,STILL,0,-0.001857,1.700000,0.249968,1
10.252650,0.027118,0.055035,-0.020745,1.017191,1.018890,0.000484,0.001838,-0.000631,STILL,0,-0.001874,1.700000,0.249968,1
10.300588,0.047938,0.054793,-0.020504,1.015972,1.017655,0.000468,0.002402,-0.001210,STILL,0,-0.001932,1.700000,0.249968,1
10.337654,0.037066,0.054065,-0.021469,1.016460,1.018123,-0.000734,-0.000045,0.000021,STILL,0,-0.001931,1.700000,0.249968,1
10.374830,0.037176,0.052853,-0.021228,1.017191,1.018784,0.002569,0.001138,-0.000885,STILL,0,-0.001964,1.700000,0.249968,1
10.414587,0.039757,0.053096,-0.021228,1.018409,1.020013,-0.001971,0.000189,-0.000260,STILL,0,-0.001974,1.700000,0.249968,1
10.444810,0.030223,0.054308,-0.021952,1.017678,1.019363,0.000436,-0.000739,-0.000862,STILL,0,-0.002001,1.700000,0.249968,1
10.477648,0.032837,0.053338,-0.021710,1.018409,1.020036,0.001063,0.002024,0.000643,STILL,0,-0.001979,1.700000,0.249968,1
10.509805,0.032157,0.054308,-0.020504,1.017434,1.019089,0.001033,-0.001592,-0.001461,STILL,0,-0.002026,1.700000,0.249968,1
10.537909,0.028104,0.054793,-0.021952,1.015972,1.017685,0.001609,-0.001549,0.000375,STILL,0,-0.002016,1.700000,0.249968,1
10.569391,0.031482,0.053338,-0.021228,1.018409,1.020026,0.001270,-0.001212,0.000332,STILL,0,-0.002005,1.700000,0.249968,1
10.603081,0.033690,0.053823,-0.022434,1.017678,1.019347,-0.003832,0.000020,0.000616,STILL,0,-0.001985,1.700000,0.249968,1
10.633765,0.030684,0.054308,-0.021469,1.017678,1.019352,0.000429,-0.000872,0.000015,STILL,0,-0.001984,1.700000,0.249968,1
10.667425,0.033660,0.052611,-0.021228,1.016460,1.018042,-0.002257,0.001860,-0.001807,STILL,0,-0.002045,1.700000,0.249968,1
10.706911,0.039486,0.054550,-0.020745,1.017922,1.019593,0.000480,-0.001170,-0.000266,STILL,0,-0.002056,1.700000,0.249968,1
10.734844,0.027933,0.055035,-0.021469,1.016947,1.018661,0.000189,-0.000571,-0.000257,STILL,0,-0.002063,1.700000,0.249968,1
10.770093,0.035250,0.054065,-0.020745,1.017922,1.019568,-0.002843,-0.000576,0.000990,STILL,0,-0.002028,1.700000,0.249968,1
10.806743,0.036649,0.053823,-0.021952,1.016460,1.018120,-0.000094,-0.000271,-0.002065,STILL,0,-0.002104,1.700000,0.249968,1
10.839876,0.033133,0.054308,-0.021710,1.016703,1.018384,-0.001010,0.002173,0.000378,STILL,0,-0.002091,1.700000,0.249968,1
10.871843,0.031968,0.054550,-0.020987,1.016947,1.018625,0.002044,0.000951,0.001295,STILL,0,-0.002050,1.700000,0.249968,1
10.908450,0.036607,0.053581,-0.020263,1.018897,1.020506,-0.000399,-0.001798,0.000989,STILL,0,-0.002013,1.700000,0.249968,1
10.940996,0.032546,0.054065,-0.020987,1.017678,1.019329,-0.000705,-0.002103,-0.000233,STILL,0,-0.002021,1.700000,0.249968,1
10.979231,0.038235,0.053823,-0.022193,1.016460,1.018125,0.000212,-0.000576,-0.001454,STILL,0,-0.002077,1.700000,0.249968,1
11.013212,0.033981,0.053338,-0.021710,1.017191,1.018820,-0.000705,0.000645,-0.000538,STILL,0,-0.002095,1.700000,0.249968,1
11.046979,0.033767,0.053338,-0.023158,1.016460,1.018121,0.002044,0.000645,-0.001454,STILL,0,-0.002144,1.700000,0.249968,1
11.082098,0.035119,0.053581,-0.021228,1.016947,1.018579,0.001738,-0.000882,0.000989,STILL,0,-0.002109,1.700000,0.249968,1
11.117669,0.035570,0.053096,-0.020263,1.016947,1.018534,-0.000705,0.000951,0.000684,STILL,0,-0.002085,1.700000,0.249968,1
11.154240,0.036571,0.053581,-0.021710,1.017678,1.019319,0.001738,-0.001187,-0.000232,STILL,0,-0.002093,1.700000,0.249968,1
11.182331,0.028091,0.053823,-0.022193,1.016460,1.018125,0.001127,0.000340,0.001905,STILL,0,-0.002040,1.700000,0.249968,1
11.219864,0.037533,0.053823,-0.020745,1.017434,1.019068,0.000517,0.001561,-0.000538,STILL,0,-0.002060,1.700000,0.249968,1
11.259682,0.039818,0.054550,-0.022434,1.017678,1.019386,0.000516,0.001561,0.000073,STILL,0,-0.002057,1.700000,0.249968,1
11.303988,0.044306,0.054065,-0.021228,1.018897,1.020551,-0.000400,0.000645,-0.001454,STILL,0,-0.002122,1.700000,0.249968,1
11.346909,0.042921,0.053823,-0.021228,1.017191,1.018835,0.001432,0.001561,0.000378,STILL,0,-0.002105,1.700000,0.249968,1
11.390214,0.043305,0.053823,-0.022193,1.017922,1.019585,-0.001011,-0.001799,0.001295,STILL,0,-0.002049,1.700000,0.249968,1
11.425665,0.035451,0.053823,-0.022434,1.016947,1.018617,0.001127,0.001561,0.000989,STILL,0,-0.002014,1.700000,0.249968,1
11.463286,0.037621,0.054550,-0.020987,1.017191,1.018869,0.000211,-0.000272,-0.000843,STILL,0,-0.002046,1.700000,0.249968,1
11.500591,0.037305,0.054308,-0.021228,1.018409,1.020077,0.000822,0.001255,0.002516,STILL,0,-0.001952,1.700000,0.249968,1
11.535318,0.034727,0.053823,-0.020745,1.017434,1.019068,0.002043,0.001255,0.001600,STILL,0,-0.001896,1.700000,0.249968,1
11.571114,0.035796,0.055278,-0.020263,1.019384,1.021083,0.000210,-0.000272,-0.000538,STILL,0,-0.001916,1.700000,0.249968,1
11.604122,0.033008,0.053823,-0.021952,1.017922,1.019580,0.001737,-0.001188,0.001294,STILL,0,-0.001873,1.700000,0.249968,1
11.638332,0.034210,0.054065,-0.021228,1.018165,1.019821,-0.000095,-0.003020,-0.000233,STILL,0,-0.001881,1.700000,0.249968,1
11.674357,0.036025,0.054065,-0.020987,1.017922,1.019572,-0.001928,-0.000882,0.000683,STILL,0,-0.001856,1.700000,0.249968,1
11.710172,0.035815,0.054065,-0.022193,1.015241,1.016922,-0.000095,-0.001798,-0.002066,STILL,0,-0.001930,1.700000,0.249968,1
11.745648,0.035476,0.053823,-0.020987,1.017678,1.019317,0.001432,0.000340,-0.000844,STILL,0,-0.001960,1.700000,0.249968,1
11.776429,0.030780,0.054550,-0.020987,1.019871,1.021545,-0.001012,0.001256,-0.000844,STILL,0,-0.001986,1.700000,0.249968,1
11.809947,0.033518,0.053338,-0.021228,1.017191,1.018809,0.001737,-0.000271,-0.001454,STILL,0,-0.002035,1.700000,0.249968,1
11.845669,0.035722,0.053823,-0.021952,1.017434,1.019093,0.001432,0.001256,0.000989,STILL,0,-0.002000,1.700000,0.249968,1
11.881673,0.036004,0.053823,-0.020987,1.016703,1.018343,0.000516,0.000950,0.000683,STILL,0,-0.001975,1.700000,0.249968,1
11.915997,0.034324,0.055035,-0.023640,1.017922,1.019682,-0.002539,-0.000272,-0.000233,STILL,0,-0.001983,1.700000,0.249968,1
11.951328,0.035331,0.054308,-0.020263,1.018653,1.020301,0.000210,-0.000577,-0.000233,STILL,0,-0.001991,1.700000,0.249968,1
11.982682,0.031354,0.052853,-0.020745,1.017678,1.019261,-0.000706,0.000645,-0.000844,STILL,0,-0.002018,1.700000,0.249968,1
12.020953,0.038271,0.055035,-0.021469,1.016703,1.018418,-0.000706,0.000339,-0.001149,STILL,0,-0.002062,1.700000,0.249968,1
12.055498,0.034545,0.054308,-0.022193,1.017434,1.019124,-0.001012,0.003088,-0.000538,STILL,0,-0.002080,1.700000,0.249968,1
12.098172,0.042674,0.054065,-0.021710,1.016703,1.018371,-0.001622,0.000034,-0.001149,STILL,0,-0.002129,1.700000,0.249968,1
12.136086,0.037914,0.053823,-0.021952,1.017191,1.018850,0.001126,0.000950,0.000073,STILL,0,-0.002127,1.700000,0.249968,1
12.170323,0.034238,0.053338,-0.021469,1.018653,1.020274,0.001432,-0.000578,-0.000233,STILL,0,-0.002135,1.700000,0.249968,1
12.203112,0.032789,0.054793,-0.020504,1.017678,1.019358,-0.002844,-0.000272,0.000073,STILL,0,-0.002132,1.700000,0.249968,1
12.234216,0.031104,0.053823,-0.020745,1.016460,1.018095,-0.000400,-0.000272,0.000378,STILL,0,-0.002120,1.700000,0.249968,1
12.262683,0.028468,0.052853,-0.020987,1.016947,1.018536,0.000211,0.002782,-0.001454,STILL,0,-0.002162,1.700000,0.249968,1
12.298706,0.036023,0.055035,-0.020745,1.017922,1.019619,-0.000706,0.000644,-0.000232,STILL,0,-0.002170,1.700000,0.249968,1
12.332284,0.033578,0.054793,-0.021469,1.017191,1.018892,-0.002538,0.000338,0.000989,STILL,0,-0.002137,1.700000,0.249968,1
12.367544,0.035259,0.053823,-0.021469,1.017434,1.019083,-0.001011,-0.001189,-0.000233,STILL,0,-0.002145,1.700000,0.249968,1
12.400663,0.033120,0.054308,-0.021228,1.016216,1.017887,-0.000094,0.000644,-0.001149,STILL,0,-0.002183,1.700000,0.249968,1
12.429401,0.028738,0.053581,-0.020745,1.016947,1.018569,0.000211,-0.000883,0.000378,STILL,0,-0.002172,1.700000,0.249968,1
12.463186,0.033785,0.054793,-0.021710,1.016947,1.018653,-0.000094,0.001255,-0.000232,STILL,0,-0.002180,1.700000,0.249968,1
12.509494,0.046308,0.054308,-0.021952,1.016947,1.018633,-0.001316,0.001560,0.000378,STILL,0,-0.002163,1.700000,0.249968,1
12.541730,0.032235,0.054550,-0.021469,1.017191,1.018879,-0.000705,0.000338,0.000989,STILL,0,-0.002131,1.700000,0.249968,1
12.574654,0.032924,0.054550,-0.021952,1.016216,1.017916,0.001128,0.001865,-0.001149,STILL,0,-0.002169,1.700000,0.249968,1
12.616365,0.041711,0.054308,-0.021228,1.015972,1.017644,0.002654,0.001559,-0.000843,STILL,0,-0.002204,1.700000,0.249968,1
12.661229,0.044863,0.054308,-0.021710,1.016216,1.017898,0.000516,0.000032,0.000378,STILL,0,-0.002187,1.700000,0.249968,1
12.699211,0.037982,0.053338,-0.022675,1.016460,1.018111,0.001738,0.000032,0.000989,STILL,0,-0.002149,1.700000,0.249968,1
12.739556,0.040344,0.053823,-0.019298,1.016460,1.018067,0.001433,0.001254,0.000684,STILL,0,-0.002122,1.700000,0.249968,1
12.772722,0.033167,0.054550,-0.021228,1.017434,1.019117,-0.001011,-0.002717,-0.000232,STILL,0,-0.002129,1.700000,0.249968,1
12.810313,0.037591,0.053823,-0.021469,1.015728,1.017380,0.000516,0.000949,0.000989,STILL,0,-0.002092,1.700000,0.249968,1
12.848481,0.038168,0.053338,-0.021228,1.015728,1.017349,-0.000400,-0.000579,0.000989,STILL,0,-0.002054,1.700000,0.249968,1
12.890644,0.042162,0.054065,-0.023399,1.015241,1.016949,-0.000095,0.000948,-0.001454,STILL,0,-0.002116,1.700000,0.249968,1
12.933668,0.043024,0.054308,-0.021469,1.014266,1.015946,0.001127,0.000948,0.000379,STILL,0,-0.002099,1.700000,0.249968,1
12.975524,0.041856,0.052126,-0.019298,1.016947,1.018465,0.003265,-0.000579,-0.001759,STILL,0,-0.002173,1.700000,0.249968,1
13.011907,0.036383,0.052853,-0.019781,1.014997,1.016565,0.002348,-0.001190,0.000073,STILL,0,-0.002170,1.700000,0.249968,1
13.050292,0.038385,0.052853,-0.019298,1.016216,1.017772,-0.001012,0.001865,0.000989,STILL,0,-0.002132,1.700000,0.249968,1
13.082558,0.032266,0.054065,-0.022434,1.013779,1.015467,-0.000706,-0.001495,0.000989,STILL,0,-0.002101,1.700000,0.249968,1
13.120166,0.037608,0.054550,-0.025087,1.014023,1.015799,0.000821,0.001254,0.000073,STILL,0,-0.002098,1.700000,0.249968,1
13.155969,0.035803,0.056490,-0.022434,1.015485,1.017302,0.000515,-0.000273,-0.001149,STILL,0,-0.002139,1.700000,0.249968,1
13.192606,0.036637,0.053096,-0.020504,1.015972,1.017565,0.001126,-0.001495,-0.001149,STILL,0,-0.002181,1.700000,0.249968,1
13.227907,0.035301,0.054065,-0.021469,1.015485,1.017150,0.001737,-0.000579,0.000073,STILL,0,-0.002178,1.700000,0.249968,1
13.274069,0.046161,0.054065,-0.020987,1.011586,1.013247,0.000515,0.002475,-0.000843,STILL,0,-0.002217,1.700000,0.249968,1
13.305198,0.031130,0.050671,-0.016645,1.015241,1.016641,-0.000096,0.000643,0.000379,STILL,0,-0.002206,1.700000,0.249968,1
13.343609,0.038410,0.051399,-0.020504,1.016216,1.017721,0.000210,-0.000885,0.001295,STILL,0,-0.002156,1.700000,0.249968,1
13.379358,0.035749,0.056005,-0.024605,1.012317,1.014163,0.001737,0.000032,0.000073,STILL,0,-0.002153,1.700000,0.249968,1
13.409645,0.030287,0.057460,-0.026776,1.011342,1.013327,0.000210,-0.001190,-0.001149,STILL,0,-0.002188,1.700000,0.249968,1
13.443750,0.034106,0.052368,-0.020504,1.014266,1.015824,-0.001623,0.001559,-0.001454,STILL,0,-0.002238,1.700000,0.249968,1
13.477535,0.033784,0.050429,-0.015921,1.014510,1.015887,-0.001317,0.001558,-0.000538,STILL,0,-0.002256,1.700000,0.249968,1
13.511682,0.034148,0.052126,-0.019781,1.016216,1.017744,0.000210,0.000948,0.000989,STILL,0,-0.002222,1.700000,0.249968,1
13.551548,0.039866,0.055035,-0.022916,1.013535,1.015287,0.001126,0.000031,0.000073,STILL,0,-0.002219,1.700000,0.249968,1
13.582154,0.030606,0.057702,-0.024605,1.015728,1.017664,0.000210,0.002169,0.075509,STILL,0,0.000092,1.700000,0.249968,1
13.613765,0.031611,0.054550,-0.021952,1.013535,1.015240,0.001432,0.002474,-0.000239,STILL,0,0.000084,1.700000,0.249968,1
13.646531,0.032767,0.051399,-0.019298,1.015241,1.016724,-0.001317,-0.001191,0.001288,STILL,0,0.000127,1.700000,0.249968,1
13.681878,0.035347,0.051641,-0.021228,1.014754,1.016289,0.000821,-0.001191,0.000067,STILL,0,0.000129,1.700000,0.249968,1
13.715899,0.034020,0.052853,-0.022193,1.015728,1.017345,0.003264,-0.001496,0.001288,STILL,0,0.000173,1.700000,0.249968,1
13.758128,0.042230,0.056247,-0.023881,1.013535,1.015376,-0.000401,0.000031,-0.000544,STILL,0,0.000150,1.700000,0.249968,1
13.803619,0.045491,0.054308,-0.022675,1.014023,1.015729,0.000820,0.001558,-0.000850,STILL,0,0.000111,1.700000,0.249968,1
13.842754,0.039135,0.052611,-0.019539,1.015728,1.017278,0.000209,0.001253,-0.001155,STILL,0,0.000066,1.700000,0.249968,1
13.877687,0.034933,0.053096,-0.019781,1.014754,1.016334,0.002347,0.000947,0.002510,STILL,0,0.000154,1.700000,0.249968,1
13.913685,0.035999,0.053338,-0.022193,1.014023,1.015667,-0.002234,-0.000580,0.000677,STILL,0,0.000178,1.700000,0.249968,1
13.949947,0.036262,0.056005,-0.022916,1.012804,1.014610,-0.000707,0.000336,-0.000545,STILL,0,0.000158,1.700000,0.249968,1
13.985651,0.035704,0.055278,-0.023399,1.013779,1.015554,-0.001623,0.001253,-0.001461,STILL,0,0.000106,1.700000,0.249968,1
14.019213,0.033563,0.053581,-0.021952,1.014510,1.016161,-0.000096,-0.000885,0.000677,STILL,0,0.000129,1.700000,0.249968,1
14.057665,0.038452,0.053581,-0.020022,1.016460,1.018068,-0.001318,-0.000580,-0.000545,STILL,0,0.000108,1.700000,0.249968,1
14.095468,0.037803,0.052853,-0.019781,1.014997,1.016565,0.000209,0.000947,0.000677,STILL,0,0.000133,1.700000,0.249968,1
14.133635,0.038167,0.054793,-0.019781,1.014266,1.015938,0.000515,0.001252,0.000677,STILL,0,0.000159,1.700000,0.249968,1
14.173078,0.039443,0.053096,-0.020022,1.014754,1.016339,0.000209,-0.000580,0.000066,STILL,0,0.000162,1.700000,0.249968,1
14.198886,0.025808,0.052368,-0.021710,1.013779,1.015363,-0.001929,0.000641,-0.000850,STILL,0,0.000140,1.700000,0.249968,1
14.233123,0.034237,0.054065,-0.020987,1.018165,1.019816,-0.002234,-0.000275,-0.000545,STILL,0,0.000121,1.700000,0.249968,1
14.269957,0.036833,0.053096,-0.023640,1.015972,1.017633,0.001431,-0.003329,-0.000545,STILL,0,0.000101,1.700000,0.249968,1
14.310821,0.040864,0.052853,-0.020745,1.016703,1.018287,-0.000096,0.000030,0.000677,STILL,0,0.000129,1.700000,0.249968,1
14.347510,0.036690,0.053096,-0.022675,1.015241,1.016881,0.002347,-0.003329,-0.000239,STILL,0,0.000120,1.700000,0.249968,1
14.381670,0.034160,0.053581,-0.021710,1.014997,1.016643,-0.000707,0.001252,-0.000850,STILL,0,0.000091,1.700000,0.249968,1
14.417434,0.035764,0.053338,-0.022434,1.017191,1.018835,-0.001012,0.001557,-0.001461,STILL,0,0.000039,1.700000,0.249968,1
14.463753,0.046319,0.052853,-0.020987,1.015241,1.016832,-0.001317,0.000030,0.000066,STILL,0,0.000042,1.700000,0.249968,1
14.498385,0.034632,0.053823,-0.020745,1.015972,1.017608,0.000210,0.000641,-0.000544,STILL,0,0.000023,1.700000,0.249968,1
14.541658,0.043273,0.053096,-0.020745,1.015728,1.017327,0.000820,0.000030,0.000983,STILL,0,0.000066,1.700000,0.249968,1
14.574285,0.032627,0.052853,-0.020504,1.016703,1.018283,0.001431,0.000641,0.001899,STILL,0,0.000128,1.700000,0.249968,1
14.615083,0.040797,0.054308,-0.023158,1.017434,1.019146,-0.000096,0.001557,-0.000545,STILL,0,0.000105,1.700000,0.249968,1
14.649662,0.034580,0.054065,-0.020504,1.015485,1.017130,-0.001012,-0.001497,0.001288,STILL,0,0.000150,1.700000,0.249968,1
14.680014,0.030352,0.054065,-0.022193,1.016216,1.017895,-0.000401,-0.000276,0.000066,STILL,0,0.000152,1.700000,0.249968,1
14.717659,0.037645,0.055035,-0.020263,1.015972,1.017663,0.002348,0.000030,-0.000850,STILL,0,0.000120,1.700000,0.249968,1
14.759416,0.041757,0.052126,-0.017851,1.015485,1.016978,-0.003150,0.000030,0.002204,STILL,0,0.000212,1.700000,0.249968,1
14.794630,0.035214,0.054065,-0.020504,1.014754,1.016400,-0.002233,0.001862,0.000982,STILL,0,0.000246,1.700000,0.249968,1
14.826330,0.031700,0.055520,-0.023158,1.016460,1.018238,-0.000706,-0.001803,0.000982,STILL,0,0.000278,1.700000,0.249968,1
14.861977,0.035647,0.058187,-0.027259,1.017191,1.019218,0.001126,0.000030,-0.001462,STILL,0,0.000225,1.700000,0.249968,1
14.895488,0.033511,0.055278,-0.021469,1.016703,1.018431,0.001737,-0.002108,-0.000240,STILL,0,0.000217,1.700000,0.249968,1
14.934030,0.038542,0.049701,-0.015197,1.016216,1.017544,-0.001623,-0.001497,0.000371,STILL,0,0.000232,1.700000,0.249968,1
14.971220,0.037190,0.053338,-0.021710,1.015972,1.017603,-0.000707,-0.000886,0.000371,STILL,0,0.000246,1.700000,0.249968,1
15.007456,0.036236,0.053581,-0.021228,1.017678,1.019309,0.001737,-0.000581,0.002509,STILL,0,0.000336,1.700000,0.249968,1
15.039352,0.031896,0.055035,-0.025329,1.014997,1.016804,0.001431,-0.000275,-0.001767,STILL,0,0.000280,1.700000,0.249968,1
15.087419,0.048067,0.056975,-0.024605,1.015728,1.017623,0.001431,-0.000581,-0.002072,STILL,0,0.000180,1.700000,0.249968,1
15.126256,0.038837,0.054065,-0.023640,1.026939,1.028632,0.017923,0.042176,0.001898,STILL,0,0.000254,1.700000,0.249968,1
15.176569,0.050313,0.070794,0.039575,1.039123,1.042284,-0.010177,-0.017994,0.000677,STILL,0,0.000288,1.700000,0.249968,1
15.218066,0.041497,0.049701,0.012382,1.058375,1.059614,-0.005595,-0.015245,0.008312,MOVE,0,0.000633,1.700000,0.249968,1
15.253704,0.035638,0.045095,-0.032324,1.035712,1.037197,0.002957,-0.008526,0.008311,MOVE,0,0.000929,1.700000,0.249968,1
15.287954,0.034250,0.080492,-0.049693,1.016460,1.020852,-0.001930,0.000637,-0.003906,MOVE,0,0.000796,1.700000,0.249968,1
15.334345,0.046391,0.060854,-0.030153,1.008905,1.011188,0.000818,0.002469,-0.012456,MOVE,0,0.000218,1.700000,0.249968,1
15.377641,0.043297,0.043883,-0.000482,1.027182,1.028119,0.002651,0.000331,-0.002071,MOVE,0,0.000128,1.700000,0.249968,1
15.424484,0.046843,0.032003,-0.000482,1.014023,1.014528,-0.000709,-0.001196,0.007092,MOVE,0,0.000460,1.700000,0.249968,1
15.469162,0.044678,0.055763,-0.031118,1.024014,1.026003,-0.001320,-0.003028,0.003426,MOVE,0,0.000613,1.700000,0.249968,1
15.504450,0.035288,0.064248,-0.033772,1.015972,1.018562,0.002040,-0.004250,0.000066,MOVE,0,0.000616,1.700000,0.249968,1
15.539481,0.035031,0.055763,-0.027500,1.020846,1.022738,0.001734,-0.004250,-0.002683,MOVE,0,0.000522,1.700000,0.249968,1
15.580023,0.040543,0.049701,-0.020263,1.017191,1.018606,0.003566,-0.004860,-0.001461,MOVE,0,0.000462,1.700000,0.249968,1
15.611438,0.031415,0.055520,-0.023158,1.019384,1.021157,-0.001626,-0.002722,-0.001461,MOVE,0,0.000416,1.700000,0.249968,1
15.638190,0.026752,0.051641,-0.021710,1.008174,1.009729,0.001429,0.000637,-0.002682,MOVE,0,0.000345,1.700000,0.249968,1
15.666713,0.028524,0.052126,-0.016403,1.015972,1.017441,0.000512,0.002470,0.001587,MOVE,0,0.000390,1.700000,0.249968,1
15.698992,0.032278,0.046065,-0.011338,1.016703,1.017809,0.000818,-0.001501,0.003420,MOVE,0,0.000500,1.700000,0.249968,1
15.727560,0.028568,0.053096,-0.022675,1.016460,1.018098,-0.000404,0.000942,0.002197,MOVE,0,0.000563,1.700000,0.249968,1
15.760353,0.032793,0.065460,-0.038355,1.011829,1.014670,0.002345,-0.001807,-0.001162,MOVE,0,0.000525,1.700000,0.249968,1
15.793943,0.033590,0.056975,-0.028706,1.018653,1.020649,0.002039,0.000637,-0.005743,MOVE,0,0.000332,1.700000,0.249968,1
15.832517,0.038574,0.046550,-0.012785,1.018409,1.019553,-0.000710,-0.003028,-0.003604,MOVE,0,0.000193,1.700000,0.249968,1
15.864680,0.032163,0.043398,-0.008443,1.017922,1.018881,0.001428,-0.000279,0.002504,MOVE,0,0.000274,1.700000,0.249968,1
15.900402,0.035722,0.050671,-0.021952,1.015485,1.016985,0.001733,0.003080,0.004947,MOVE,0,0.000450,1.700000,0.249968,1
15.934962,0.034560,0.056975,-0.027982,1.011829,1.013818,0.000817,-0.000280,0.002198,STILL,0,0.000526,1.700000,0.249968,1
15.959422,0.024460,0.059642,-0.026052,1.018409,1.020487,-0.002238,0.002164,-0.001773,STILL,0,0.000483,1.700000,0.249968,1
15.995944,0.036522,0.056490,-0.022434,1.014754,1.016572,0.000816,-0.001807,-0.000245,STILL,0,0.000474,1.700000,0.249968,1
16.034198,0.038254,0.054550,-0.026535,1.018897,1.020701,0.001427,-0.000891,-0.001161,STILL,0,0.000430,1.700000,0.249968,1
16.062989,0.028792,0.053581,-0.023158,1.014266,1.015944,0.000816,0.000331,-0.000856,STILL,0,0.000405,1.700000,0.249968,1
16.102029,0.039040,0.049944,-0.016886,1.016216,1.017583,0.001427,0.001247,-0.000856,STILL,0,0.000371,1.700000,0.249968,1
16.137367,0.035337,0.049459,-0.015921,1.018165,1.019490,0.002037,0.002163,0.000366,STILL,0,0.000384,1.700000,0.249968,1
16.170896,0.033530,0.053096,-0.023158,1.015728,1.017379,-0.002238,-0.000891,0.000671,STILL,0,0.000407,1.700000,0.249968,1
16.199955,0.029059,0.057702,-0.027982,1.016460,1.018481,-0.000406,-0.001197,0.000366,STILL,0,0.000418,1.700000,0.249968,1
16.231468,0.031513,0.057460,-0.024605,1.017922,1.019839,-0.000101,0.002774,-0.002689,STILL,0,0.000333,1.700000,0.249968,1
16.260439,0.028971,0.052611,-0.020987,1.016460,1.018037,0.001121,0.001246,-0.001772,STILL,0,0.000281,1.700000,0.249968,1
16.306102,0.045663,0.052126,-0.019539,1.017191,1.018713,-0.001933,0.000941,0.000366,STILL,0,0.000298,1.700000,0.249968,1
16.337731,0.031629,0.053338,-0.021710,1.013535,1.015170,-0.001017,0.003689,-0.001161,STILL,0,0.000261,1.700000,0.249968,1
16.378668,0.040937,0.054550,-0.021228,1.014997,1.016684,0.001426,0.002468,-0.000245,STILL,0,0.000251,1.700000,0.249968,1
16.414379,0.035711,0.053581,-0.022434,1.016216,1.017875,0.000204,0.002162,0.001283,STILL,0,0.000297,1.700000,0.249968,1
16.449994,0.035615,0.053823,-0.023640,1.017678,1.019375,0.006313,-0.006696,0.001588,STILL,0,0.000354,1.700000,0.249968,1
16.477046,0.027052,0.055520,-0.021469,1.009880,1.011633,-0.001629,0.012851,0.001588,STILL,0,0.000397,1.700000,0.249968,1
16.513489,0.036443,0.053581,-0.017609,1.019140,1.020700,-0.001018,0.001855,0.001588,STILL,0,0.000455,1.700000,0.249968,1
16.544643,0.031154,0.051156,-0.021710,1.017922,1.019438,0.000509,0.000023,-0.000856,STILL,0,0.000428,1.700000,0.249968,1
16.581672,0.037030,0.053823,-0.021469,1.014510,1.016164,0.001120,0.000939,0.001282,STILL,0,0.000475,1.700000,0.249968,1
16.613271,0.031598,0.055278,-0.028947,1.006955,1.008887,-0.003461,0.001855,0.000366,STILL,0,0.000487,1.700000,0.249968,1
16.646007,0.032736,0.054065,-0.025087,1.011586,1.013340,-0.000101,-0.000589,0.000061,STILL,0,0.000489,1.700000,0.249968,1
16.682048,0.036041,0.054793,-0.021228,1.016460,1.018157,0.000510,0.002466,-0.001772,STILL,0,0.000425,1.700000,0.249968,1
16.712742,0.030694,0.056247,-0.016403,1.014997,1.016687,-0.002545,0.002466,0.000977,STILL,0,0.000455,1.700000,0.249968,1
16.742610,0.029869,0.050914,-0.018574,1.017678,1.019120,-0.000101,-0.003642,-0.000245,STILL,0,0.000448,1.700000,0.249968,1
16.776896,0.034285,0.053823,-0.019298,1.010367,1.011984,0.001426,-0.006085,0.000061,STILL,0,0.000450,1.700000,0.249968,1
16.805162,0.028267,0.051641,-0.021228,1.015241,1.016775,0.001731,-0.002114,0.000366,STILL,0,0.000460,1.700000,0.249968,1
16.837638,0.032475,0.054550,-0.023399,1.016947,1.018678,0.000510,-0.000587,0.000977,STILL,0,0.000492,1.700000,0.249968,1
16.869371,0.031734,0.055763,-0.025570,1.016460,1.018309,0.001731,0.001856,-0.003299,STILL,0,0.000387,1.700000,0.249968,1
16.904727,0.035355,0.055763,-0.024123,1.016216,1.018031,-0.000712,-0.000893,-0.001771,STILL,0,0.000325,1.700000,0.249968,1
16.939288,0.034561,0.052611,-0.020022,1.016460,1.018017,-0.001323,0.000024,-0.000244,STILL,0,0.000316,1.700000,0.249968,1
16.970824,0.031536,0.052368,-0.020263,1.014997,1.016550,-0.001934,0.000940,0.001894,STILL,0,0.000376,1.700000,0.249968,1
17.008958,0.038134,0.050429,-0.020022,1.014023,1.015473,0.001120,-0.000282,0.000367,STILL,0,0.000390,1.700000,0.249968,1
17.053082,0.044124,0.051883,-0.020987,1.015728,1.017269,0.003258,-0.003031,0.001588,STILL,0,0.000460,1.700000,0.249968,1
17.083770,0.030689,0.054065,-0.022916,1.014754,1.016451,0.001425,-0.001198,0.000977,STILL,0,0.000490,1.700000,0.249968,1
17.117240,0.033470,0.054308,-0.023881,1.013048,1.014783,-0.000407,-0.000587,-0.000550,STILL,0,0.000472,1.700000,0.249968,1
17.155657,0.038417,0.054308,-0.020745,1.010123,1.011795,0.003258,-0.002419,0.000672,STILL,0,0.000497,1.700000,0.249968,1
17.188204,0.032547,0.053823,-0.020987,1.015972,1.017613,0.001730,0.000024,-0.000245,STILL,0,0.000489,1.700000,0.249968,1
17.222055,0.033851,0.050914,-0.022675,1.013779,1.015310,0.001119,-0.001503,-0.001466,STILL,0,0.000440,1.700000,0.249968,1
17.254843,0.032788,0.054793,-0.020504,1.015728,1.017412,0.001119,0.002773,-0.000855,STILL,0,0.000412,1.700000,0.249968,1
17.291449,0.036606,0.054793,-0.022434,1.016703,1.018426,0.002035,-0.001198,0.000061,STILL,0,0.000414,1.700000,0.249968,1
17.325974,0.034525,0.052126,-0.022193,1.015728,1.017307,0.000814,0.001551,-0.000855,STILL,0,0.000384,1.700000,0.249968,1
17.363497,0.037523,0.054065,-0.021469,1.015728,1.017393,0.003562,0.000024,0.001283,STILL,0,0.000433,1.700000,0.249968,1
17.393998,0.030501,0.053338,-0.021710,1.012317,1.013953,-0.000103,0.000024,0.000977,STILL,0,0.000462,1.700000,0.249968,1
17.430579,0.036581,0.053823,-0.023881,1.016460,1.018164,0.002340,0.001551,-0.000244,STILL,0,0.000453,1.700000,0.249968,1
17.464898,0.034319,0.053823,-0.030636,0.991602,0.993535,-0.032782,0.075459,0.027853,STILL,0,0.001409,1.700000,0.249968,1
17.497439,0.032541,0.031518,-0.030636,1.010367,1.011323,0.007843,-0.017089,0.002807,STILL,0,0.001501,1.700000,0.249968,1
17.533000,0.035561,0.053581,-0.021228,1.015728,1.017362,0.005399,0.068121,-0.001469,STILL,0,0.001448,1.700000,0.249968,1
17.561579,0.028579,0.060369,-0.038596,1.059838,1.062257,-0.010483,-0.003351,-0.001775,MOVE,0,0.001398,1.700000,0.249968,1
17.590272,0.028693,0.046307,-0.022193,1.030838,1.032116,0.003567,-0.006711,-0.000248,MOVE,0,0.001391,1.700000,0.249968,1
17.625632,0.035360,0.047277,-0.022675,1.024989,1.026329,0.000207,-0.001519,-0.000858,MOVE,0,0.001360,1.700000,0.249968,1
17.652054,0.026422,0.048732,-0.023158,1.014754,1.016187,0.000818,-0.001214,0.002196,MOVE,0,0.001418,1.700000,0.249968,1
17.696472,0.044418,0.053581,-0.019781,1.015485,1.017090,0.002039,-0.004267,-0.001164,MOVE,0,0.001367,1.700000,0.249968,1
17.742477,0.046005,0.052126,-0.023158,1.010611,1.012219,-0.001321,-0.003961,0.000363,MOVE,0,0.001383,1.700000,0.249968,1
17.778056,0.035579,0.055520,-0.025087,1.015728,1.017554,-0.006513,0.000314,-0.001470,MOVE,0,0.001331,1.700000,0.249968,1
17.813962,0.035906,0.050671,-0.006996,1.028401,1.029672,-0.023310,0.025969,0.003111,MOVE,0,0.001443,1.700000,0.249968,1
17.840050,0.026088,0.055763,-0.014474,1.018653,1.020281,-0.020557,0.017720,0.003721,MOVE,0,0.001540,1.700000,0.249968,1
17.873070,0.033020,0.057217,-0.026294,1.014754,1.016706,0.007235,0.006113,0.002499,MOVE,0,0.001622,1.700000,0.249968,1
17.909258,0.036188,0.052126,-0.021469,1.016460,1.018022,0.002653,-0.083677,0.002499,MOVE,0,0.001713,1.700000,0.249968,1
17.945033,0.035775,0.050186,-0.027982,1.011098,1.012730,0.012732,-0.005790,0.003720,MOVE,0,0.001846,1.700000,0.249968,1
17.985511,0.040478,0.023032,-0.017127,1.016703,1.017108,-0.070952,0.051017,0.075183,MOVE,0,0.004889,1.700000,0.249968,1
18.029347,0.043836,-0.063930,0.008498,1.015972,1.018017,0.007849,-0.040308,0.207130,MOVE,0,0.013969,1.700000,0.249968,1
18.068042,0.038696,0.136255,-0.045833,1.016703,1.026816,0.021593,-0.037251,-0.003010,MOVE,0,0.013852,1.700000,0.249968,1
18.100251,0.032209,0.053338,-0.020022,1.048384,1.049931,-0.033080,-0.023812,0.002487,MOVE,0,0.013932,1.700000,0.249968,1
18.134293,0.034042,0.085341,0.014810,1.050821,1.054385,-0.043159,0.044300,0.028755,MOVE,0,0.014911,1.700000,0.249968,1
18.163877,0.029583,0.076370,0.001457,1.135627,1.138193,0.012124,0.028417,-0.001178,MOVE,0,0.014876,1.700000,0.249968,1
18.198698,0.034821,0.044125,-0.029912,1.056426,1.057770,0.010903,-0.043057,-0.004232,MOVE,0,0.014729,1.700000,0.249968,1
18.236447,0.037750,0.048247,-0.023640,1.012560,1.013985,0.002657,0.067503,-0.000873,MOVE,0,0.014696,1.700000,0.249968,1
18.274365,0.037918,0.049459,-0.022434,1.018897,1.020343,-0.004063,0.005194,0.000349,MOVE,0,0.014709,1.700000,0.249968,1
18.304461,0.030096,0.054793,-0.021469,1.018409,1.020108,-0.000092,-0.002136,-0.001178,MOVE,0,0.014674,1.700000,0.249968,1
18.342821,0.038360,0.052368,-0.023640,1.011342,1.012973,0.002046,-0.002746,0.000044,MOVE,0,0.014676,1.700000,0.249968,1
18.373782,0.030961,0.052126,-0.020504,1.013779,1.015325,0.000519,0.000613,0.000655,MOVE,0,0.014696,1.700000,0.249968,1
18.408116,0.034334,0.052853,-0.019057,1.012804,1.014361,0.000824,-0.000303,0.001876,MOVE,0,0.014760,1.700000,0.249968,1
18.440584,0.032468,0.053096,-0.024123,1.017678,1.019348,-0.002841,0.000613,0.000960,MOVE,0,0.014791,1.700000,0.249968,1
18.475029,0.034445,0.051399,-0.023158,1.011586,1.013155,-0.002841,0.001224,-0.001789,MOVE,0,0.014730,1.700000,0.249968,1
18.508296,0.033267,0.052368,-0.024605,1.020602,1.022241,0.001436,-0.000609,-0.001178,MOVE,0,0.014691,1.700000,0.249968,1
18.545270,0.036975,0.053096,-0.021228,1.008174,1.009794,-0.000703,0.004583,0.000654,MOVE,0,0.014715,1.700000,0.249968,1
18.578056,0.032786,0.054065,-0.022434,1.016947,1.018630,0.002657,0.000613,-0.001483,MOVE,0,0.014666,1.700000,0.249968,1
18.615262,0.037206,0.053096,-0.021710,1.014266,1.015887,-0.000092,-0.002136,-0.000567,MOVE,0,0.014645,1.700000,0.249968,1
18.652286,0.037023,0.049701,-0.024364,1.009880,1.011395,-0.002230,0.000002,0.000349,MOVE,0,0.014658,1.700000,0.249968,1
18.684947,0.032661,0.056005,-0.020263,1.013535,1.015284,-0.000703,0.006416,-0.001483,MOVE,0,0.014610,1.700000,0.249968,1
18.718659,0.033712,0.051883,-0.022434,1.015728,1.017300,-0.001924,-0.001220,-0.002094,MOVE,0,0.014539,1.700000,0.249968,1
18.751187,0.032528,0.054308,-0.022916,1.014754,1.016464,-0.002840,0.003362,0.000961,MOVE,0,0.014570,1.700000,0.249968,1
18.787711,0.036525,0.051641,-0.022916,1.016216,1.017785,0.001436,-0.004579,-0.001483,MOVE,0,0.014516,1.700000,0.249968,1
18.818539,0.030828,0.050429,-0.023158,1.016460,1.017973,0.001741,-0.004579,0.000655,MOVE,0,0.014536,1.700000,0.249968,1
18.853158,0.034619,0.055035,-0.021710,1.015485,1.017207,-0.000397,0.003973,0.000960,MOVE,0,0.014569,1.700000,0.249968,1
18.888222,0.035063,0.052368,-0.020263,1.015241,1.016793,0.001741,0.000918,-0.001178,STILL,0,0.014528,1.700000,0.249968,1
18.930236,0.042014,0.054065,-0.022916,1.016947,1.018641,0.003267,-0.001220,0.000649,STILL,0,0.014555,1.700000,0.249968,1
18.968716,0.038480,0.053096,-0.022434,1.016216,1.017849,-0.000093,-0.001220,0.000954,STILL,0,0.014592,1.700000,0.249968,1
19.003002,0.034286,0.053581,-0.020745,1.014266,1.015892,0.001434,-0.003663,0.000343,STILL,0,0.014604,1.700000,0.249968,1
19.039659,0.036657,0.053096,-0.022916,1.016703,1.018347,0.002045,-0.001830,-0.001489,STILL,0,0.014549,1.700000,0.249968,1
19.070729,0.031070,0.053338,-0.022434,1.015241,1.016889,0.002656,-0.000608,-0.001184,STILL,0,0.014512,1.700000,0.249968,1
19.096685,0.025957,0.052368,-0.022193,1.016703,1.018293,-0.000704,-0.000608,0.003092,STILL,0,0.014593,1.700000,0.249968,1
19.129495,0.032809,0.044125,0.031077,1.096392,1.097720,-0.054155,0.050094,-0.073571,MOVE,0,0.012179,1.700000,0.249968,1
19.162748,0.033253,0.054065,-0.007237,1.003544,1.005025,-0.002536,0.000003,-0.001184,MOVE,0,0.012140,1.700000,0.249968,1
19.199843,0.037096,0.053823,-0.022916,0.994039,0.995759,-0.001314,0.001225,0.001259,MOVE,0,0.012186,1.700000,0.249968,1
19.239533,0.039690,0.055278,-0.022193,1.012560,1.014311,-0.001009,0.003058,0.000649,MOVE,0,0.012212,1.700000,0.249968,1
19.275955,0.036422,0.066430,-0.030153,0.990871,0.993553,0.008764,-0.002746,0.002481,MOVE,0,0.012302,1.700000,0.249968,1
19.310043,0.034088,0.058914,-0.022675,1.015972,1.017931,-0.004981,-0.073294,-0.005155,MOVE,0,0.012127,1.700000,0.249968,1
19.353643,0.043600,0.053581,-0.021469,1.027670,1.029289,-0.002232,0.000926,-0.000573,MOVE,0,0.012102,1.700000,0.249968,1
19.390517,0.036874,0.048247,-0.025570,1.005250,1.006731,-0.001316,-0.002434,0.000343,MOVE,0,0.012114,1.700000,0.249968,1
19.420364,0.029846,0.059399,-0.029430,1.016216,1.018376,-0.002537,0.003980,0.001259,MOVE,0,0.012152,1.700000,0.249968,1
19.453713,0.033350,0.053338,-0.021228,1.013535,1.015160,0.000517,-0.078175,-0.001489,MOVE,0,0.012102,1.700000,0.249968,1
19.489578,0.035865,0.044852,-0.024364,1.012560,1.013846,0.006931,-0.014035,-0.000878,MOVE,0,0.012071,1.700000,0.249968,1
19.525628,0.036049,0.052611,-0.020022,1.021577,1.023127,0.004182,-0.003649,-0.003321,MOVE,0,0.011951,1.700000,0.249968,1
19.561215,0.035588,0.054308,-0.019057,1.008174,1.009815,0.003570,0.000932,0.002482,MOVE,0,0.012039,1.700000,0.249968,1
19.597650,0.036434,0.051883,-0.024605,1.021090,1.022703,-0.005593,0.008872,-0.000572,MOVE,0,0.012019,1.700000,0.249968,1
19.630823,0.033173,0.055763,-0.022916,1.016947,1.018732,-0.009562,0.000320,0.002176,MOVE,0,0.012091,1.700000,0.249968,1
19.667714,0.036891,0.048974,-0.023640,1.018653,1.020103,-0.002538,-0.020752,-0.005154,MOVE,0,0.011901,1.700000,0.249968,1
19.701761,0.034047,0.044610,-0.022916,1.016216,1.017453,-0.006507,-0.046400,0.070894,MOVE,0,0.014314,1.700000,0.249968,1
19.746590,0.044829,-0.020241,-0.084429,1.082258,1.085735,0.062521,-0.115122,0.070894,MOVE,0,0.017492,1.700000,0.249968,1
19.780567,0.033977,0.040488,-0.018092,1.043266,1.044208,0.001128,0.017128,-0.000883,MOVE,0,0.017462,1.700000,0.249968,1
19.826551,0.045984,0.056005,-0.019057,1.008905,1.010638,-0.000704,0.003995,0.000950,MOVE,0,0.017506,1.700000,0.249968,1
19.859376,0.032825,0.054793,-0.023158,1.014023,1.015766,0.002960,-0.001808,0.004004,MOVE,0,0.017637,1.700000,0.249968,1
19.896905,0.037529,0.052853,-0.020745,1.020846,1.022424,-0.005897,-0.000281,0.044011,MOVE,0,0.019289,1.700000,0.249968,1
19.930747,0.033842,-0.007652,-0.056688,1.030350,1.031937,0.012734,-0.039071,0.147247,MOVE,0,0.024272,1.700000,0.249968,1
19.960695,0.029948,0.057702,-0.024605,1.030350,1.032258,-0.002231,-0.006389,-0.003636,MOVE,0,0.024163,1.700000,0.249968,1
19.995933,0.035238,0.049701,-0.030153,1.024258,1.025906,-0.001314,0.001551,-0.025014,MOVE,0,0.023282,1.700000,0.249968,1
20.032213,0.036280,-0.037519,-0.068508,1.006224,1.009251,-0.023305,0.101122,-0.450787,MOVE,0,0.006927,1.700000,0.249968,1
20.065445,0.033232,-0.024684,-0.033772,1.001838,1.002711,-0.037661,0.095013,-0.171010,MOVE,0,0.001244,1.700000,0.249968,1
20.096065,0.030620,-0.097994,-0.021952,1.038392,1.043237,0.021292,-0.068096,0.440759,MOVE,0,0.014740,1.700000,0.249968,1
20.124132,0.028067,0.201230,-0.093596,0.940670,0.966495,0.089708,0.331410,0.247726,MOVE,0,0.021693,1.700000,0.249968,1
20.151618,0.027486,0.202442,0.098088,1.023770,1.048194,0.381091,0.654863,0.274604,MOVE,0,0.029241,1.700000,0.249968,1
20.181952,0.030335,0.085341,-0.047763,1.068367,1.072834,0.177368,0.270018,0.112724,MOVE,0,0.032661,1.700000,0.249968,1
20.208671,0.026719,0.075886,0.110471,1.028644,1.037339,-0.067895,-0.042745,0.353405,MOVE,0,0.042103,1.700000,0.249968,1
20.269519,0.060848,0.116616,0.027193,1.019628,1.026635,-0.032465,0.212597,0.125858,MOVE,0,0.049761,1.700000,0.249968,1
20.301650,0.032131,0.032730,-0.010855,1.034493,1.035068,0.040839,0.379363,0.032090,MOVE,0,0.050792,1.700000,0.249968,1
20.329543,0.027894,-0.014563,-0.011096,1.009636,1.009802,0.036563,0.138071,0.034839,MOVE,0,0.051764,1.700000,0.249968,1
20.357901,0.028358,-0.033570,-0.024123,0.985754,0.986620,0.057944,-0.322521,-0.031134,MOVE,0,0.050881,1.700000,0.249968,1
20.390008,0.032107,0.016486,-0.001689,1.062031,1.062160,-0.020553,-0.419954,-0.061678,MOVE,0,0.048901,1.700000,0.249968,1
20.419122,0.029114,0.015517,0.003642,1.055695,1.055815,-0.155554,-0.432782,-0.006394,MOVE,0,0.048715,1.700000,0.249968,1
20.456227,0.037105,0.022305,-0.022193,1.040342,1.040818,-0.116764,-0.213787,-0.286781,MOVE,0,0.038074,1.700000,0.249968,1
20.486171,0.029944,-0.029867,0.063369,0.985997,0.988483,-0.171742,-0.388495,-0.270593,MOVE,0,0.029971,1.700000,0.249968,1
20.520662,0.034491,0.121708,-0.000724,1.107846,1.114511,0.009991,0.011622,0.112724,MOVE,0,0.033859,1.700000,0.249968,1
20.553842,0.033181,0.116616,0.070410,1.068854,1.077500,-0.066062,0.029643,0.028120,MOVE,0,0.034792,1.700000,0.249968,1
20.587899,0.034057,0.020608,0.019909,0.954561,0.954990,0.206689,-0.344512,0.423349,MOVE,0,0.049210,1.700000,0.249968,1
20.626288,0.038389,0.022305,-0.120130,0.826132,0.835119,0.188669,-0.258380,0.540941,MOVE,0,0.069976,1.700000,0.249968,1
20.657017,0.030729,-0.010861,-0.067061,1.197039,1.198965,0.050002,-0.115438,0.512230,MOVE,0,0.085716,1.700000,0.249968,1
20.690168,0.033151,0.112737,-0.073574,1.175594,1.183276,0.239981,-1.293186,-0.174993,MOVE,0,0.079915,1.700000,0.249968,1
20.715655,0.025487,0.194684,-0.053070,1.024258,1.043946,0.360322,-1.890307,-0.277924,MOVE,0,0.072832,1.700000,0.249968,1
20.744472,0.028817,0.326090,0.172626,1.012560,1.077689,0.200886,-1.946506,-0.872601,MOVE,0,0.047686,1.700000,0.249968,1
20.778985,0.034513,0.320271,0.033020,1.023039,1.072508,0.220739,-1.977050,-1.079990,MOVE,0,0.010412,1.700000,0.249968,1
20.813799,0.034814,0.198321,0.152474,0.578293,0.630081,0.482189,-0.786473,0.139603,MOVE,0,0.015272,1.700000,0.249968,1
20.846849,0.033050,0.593265,0.029135,0.958216,1.127382,0.222877,-0.210427,-0.219586,MOVE,0,0.008015,1.700000,0.249968,1
20.881423,0.034573,0.074188,-0.033289,0.907527,0.911163,-0.829644,0.598969,-0.174077,MOVE,0,0.001997,1.700000,0.249968,1
20.917462,0.036039,0.308634,-0.061995,1.230425,1.270057,-0.050791,-0.324659,0.004601,MOVE,0,0.002163,1.700000,0.249968,1
20.946404,0.028943,0.378701,0.062155,1.108333,1.172894,0.725619,-1.187812,-0.206147,MOVE,0,-0.003804,1.700000,0.249968,1
20.973723,0.027318,0.622116,-0.052346,0.982829,1.164355,0.802588,-1.743088,-0.548537,MOVE,0,-0.018789,1.700000,0.249968,1
21.000589,0.026866,0.328514,0.089833,0.792502,0.862584,-0.450296,-1.820057,-0.499362,MOVE,1,-0.032205,2.399637,0.227429,1
21.027085,0.026496,-0.025671,-0.087324,1.176081,1.179598,-0.733738,-1.404669,0.340577,MOVE,0,-0.023181,2.399637,0.227429,1
21.061026,0.033941,0.606842,-0.034978,0.876334,1.066509,-0.706249,-0.240054,0.657922,MOVE,0,-0.000851,2.399637,0.227429,1
21.087670,0.026644,0.480528,0.030835,1.028157,1.135326,0.726230,1.574521,0.745275,MOVE,0,0.019007,2.399637,0.227429,1
21.117849,0.030180,0.527562,-0.003377,0.929947,1.069175,1.565253,1.501828,0.233065,MOVE,0,0.026040,2.399637,0.227429,1
21.144660,0.026811,0.455556,0.043217,0.835393,0.952512,1.698422,1.298104,0.322557,MOVE,0,0.034689,2.399637,0.227429,1
21.171344,0.026684,0.267175,0.036176,0.956266,0.993548,1.743015,0.857976,0.405634,MOVE,0,0.045512,2.399637,0.227429,1
21.198042,0.026698,0.395429,0.135721,0.935796,1.024938,1.702393,0.637148,0.282240,MOVE,0,0.053048,2.399637,0.227429,1
21.224770,0.026728,0.391065,0.119211,0.961384,1.044702,1.325183,-0.174081,0.273382,MOVE,0,0.060355,2.399637,0.227429,1
21.256161,0.031391,0.431554,0.152231,0.941157,1.046513,1.335568,-0.475237,0.545828,MOVE,0,0.077489,2.399637,0.227429,1
21.281451,0.025290,0.442949,0.284553,0.943594,1.080529,0.510289,0.087369,0.696712,MOVE,0,0.095109,2.399637,0.227429,1
21.308091,0.026640,0.533866,0.344037,1.086157,1.258217,0.077186,0.256579,0.635931,MOVE,0,0.112050,2.399637,0.227429,1
21.335546,0.027454,0.496772,0.428529,1.159753,1.332459,-0.236494,1.007943,0.196718,MOVE,0,0.117451,2.399637,0.227429,1
21.362244,0.026698,0.376276,0.408620,0.974544,1.121735,-0.809485,2.234255,-0.134676,MOVE,1,0.113855,3.095105,0.306956,1
21.395865,0.033621,0.398096,0.225554,0.902409,1.011780,-1.170812,0.885465,-0.251657,MOVE,0,0.105394,3.095105,0.306956,1
21.422580,0.026715,0.285844,0.181852,0.998913,1.054801,-0.876680,0.783756,-0.240356,MOVE,0,0.098973,3.095105,0.306956,1
21.453281,0.030701,0.336030,0.051472,1.082745,1.134858,-0.836974,0.311557,-0.026858,MOVE,0,0.098149,3.095105,0.306956,1
21.481488,0.028207,0.292632,0.016995,1.123930,1.161525,-0.550784,0.488097,0.237036,MOVE,0,0.104834,3.095105,0.306956,1
21.508773,0.027285,0.251174,0.058999,1.204106,1.231438,-0.343090,0.450834,0.330803,MOVE,0,0.113860,3.095105,0.306956,1
21.539472,0.030699,0.217716,0.155387,1.227014,1.255830,-0.385239,0.806663,0.098064,MOVE,0,0.116871,3.095105,0.306956,1
21.566981,0.027509,0.075886,0.098574,1.206787,1.213182,-0.266731,1.078804,-0.108103,MOVE,0,0.113897,3.095105,0.306956,1
21.595827,0.028846,0.070794,0.102944,1.090056,1.097192,-0.813456,0.422734,-0.043657,MOVE,0,0.112638,3.095105,0.306956,1
21.625904,0.030077,0.074431,0.008498,1.254795,1.257029,-0.746566,0.157008,0.036366,MOVE,0,0.113731,3.095105,0.306956,1
21.651263,0.025359,0.169227,0.008255,1.176325,1.188464,-0.575218,1.086440,-0.088556,MOVE,0,0.111486,3.095105,0.306956,1
21.679970,0.028706,0.099645,0.051229,0.861956,0.869207,-0.837890,1.309711,-0.214699,MOVE,0,0.105322,3.095105,0.306956,1
21.712905,0.032935,-0.130823,-0.081293,0.995989,1.007828,-0.953344,0.431287,-0.019528,MOVE,0,0.104679,3.095105,0.306956,1
21.742037,0.029132,-0.182905,-0.058618,0.857813,0.879053,-0.882484,0.653642,0.137465,MOVE,0,0.108684,3.095105,0.306956,1
21.767275,0.025238,-0.137981,0.024036,0.796158,0.808383,-0.555365,0.408990,-0.136509,MOVE,0,0.105239,3.095105,0.306956,1
21.801161,0.033885,-0.064177,-0.006996,0.709158,0.712090,-0.137228,0.106612,-0.302969,MOVE,0,0.094973,3.095105,0.306956,1
21.832832,0.031671,-0.017772,-0.155349,0.985754,0.998078,-0.031243,-1.032957,-0.069008,MOVE,0,0.092787,3.095105,0.306956,1
21.861833,0.029001,0.014547,-0.171029,0.935796,0.951408,0.925983,-0.374139,0.418157,MOVE,0,0.104914,3.095105,0.306956,1
21.893336,0.031503,0.045822,0.045402,0.818578,0.821115,1.474845,-0.014645,0.379367,MOVE,0,0.116865,3.095105,0.306956,1
21.920627,0.027292,0.052853,0.067011,0.813460,0.817925,0.412551,-0.439196,0.420295,MOVE,0,0.128336,3.095105,0.306956,1
21.951303,0.030676,0.054793,-0.017127,0.918250,0.920042,0.219212,-0.323437,0.576677,MOVE,0,0.146026,3.095105,0.306956,1
21.978104,0.026801,0.141346,0.010440,0.942619,0.953215,0.162401,-0.157893,0.383643,MOVE,0,0.156307,3.095105,0.306956,1
22.004790,0.026686,0.078068,0.023551,0.937989,0.941527,0.123612,-0.051297,0.389446,MOVE,0,0.166700,3.095105,0.306956,1
22.031429,0.026639,-0.004196,-0.001689,0.979418,0.979428,0.215852,-0.218369,0.499097,MOVE,0,0.179996,3.095105,0.306956,1
22.058148,0.026719,0.064491,0.056571,1.058619,1.062089,0.130636,-0.024724,0.193359,MOVE,0,0.185162,3.095105,0.306956,1
22.091878,0.033731,0.061824,0.041760,1.007686,1.010445,0.355740,0.294453,0.022927,MOVE,0,0.185936,3.095105,0.306956,1
22.125657,0.033779,-0.066646,0.004127,1.030350,1.032512,0.330084,0.219011,0.161899,MOVE,0,0.191404,3.095105,0.306956,1
22.152359,0.026702,-0.096266,-0.046557,0.928729,0.934864,0.446454,0.617601,0.476189,MOVE,0,0.204119,3.095105,0.306956,1
22.186860,0.034501,0.084129,0.043217,0.832956,0.838308,0.159042,0.519862,0.407467,MOVE,0,0.218178,3.095105,0.306956,1
22.220775,0.033915,-0.009133,-0.042938,0.913132,0.914187,-0.134174,0.120356,0.659449,MOVE,0,0.240543,3.095105,0.306956,1
22.255552,0.034777,-0.033076,-0.042697,0.876821,0.878483,-0.585298,-0.226310,1.099272,MOVE,0,0.278772,3.095105,0.306956,1
22.289297,0.033746,0.056975,-0.079363,1.189484,1.193490,-0.554449,-0.354897,1.196094,MOVE,0,0.319135,3.095105,0.306956,1
22.322031,0.032734,0.023032,0.008498,1.216047,1.216295,-0.101798,-0.038163,1.050708,MOVE,0,0.353529,3.095105,0.306956,1
22.349622,0.027591,-0.043937,0.086920,0.936283,0.941335,0.163318,-0.211038,0.815220,MOVE,1,0.376021,3.746198,0.564011,1
22.381107,0.031485,-0.096760,0.005827,0.822233,0.827927,-0.072476,-0.719583,0.761463,MOVE,0,0.399996,3.746198,0.564011,1
22.407722,0.026614,-0.027399,0.052686,0.976981,0.978784,-0.135701,-0.620318,0.616688,MOVE,0,0.416409,3.746198,0.564011,1
22.434312,0.026591,0.056732,-0.088289,0.990871,0.996413,-0.140282,-0.328019,0.759936,MOVE,0,0.436616,3.746198,0.564011,1
22.462374,0.028061,0.064248,0.009469,0.984535,0.986675,-0.040100,-0.286175,0.761463,MOVE,0,0.457984,3.746198,0.564011,1
22.493960,0.031586,0.084129,-0.020022,1.131728,1.135027,0.052140,0.253525,0.899213,MOVE,0,0.486386,3.746198,0.564011,1
22.528582,0.034622,-0.018513,-0.013509,1.044728,1.044980,0.425684,0.641424,0.836294,MOVE,0,0.515340,3.746198,0.564011,1
22.555468,0.026886,0.220141,0.119211,0.933603,0.966585,0.646512,0.878135,0.807278,MOVE,0,0.537045,3.746198,0.564011,1
22.582490,0.027022,0.088008,0.185979,0.892905,0.916304,0.734477,1.001835,0.932200,MOVE,0,0.562235,3.746198,0.564011,1
22.613096,0.030606,0.027154,0.028164,0.948956,0.949762,1.466599,1.677452,0.578204,MOVE,0,0.579931,3.746198,0.564011,1
22.639705,0.026609,0.238082,0.132808,0.923367,0.962771,1.546927,1.163409,0.504595,MOVE,0,0.593358,3.746198,0.564011,1
22.674584,0.034880,0.102070,0.134264,1.002081,1.016175,1.797077,1.399508,0.533916,MOVE,0,0.611981,3.746198,0.564011,1
22.701827,0.027243,-0.210551,0.251776,0.940426,0.996054,1.592742,0.635010,0.452671,MOVE,0,0.624313,3.746198,0.564011,1
22.736778,0.034951,-0.051095,0.236237,0.941888,0.972405,1.086335,0.226036,0.340577,MOVE,0,0.636216,3.746198,0.564011,1
22.771491,0.034713,0.015032,0.316359,0.923611,0.976405,0.870700,0.660056,0.459391,MOVE,0,0.652163,3.746198,0.564011,1
22.803032,0.031541,-0.187101,0.471503,0.918981,1.049689,0.581150,0.577283,1.066591,MOVE,0,0.685805,3.746198,0.564011,1
22.829905,0.026873,-0.306570,0.578817,0.945787,1.150447,0.296181,0.569037,1.566889,MOVE,0,0.727912,3.746198,0.564011,1
22.856899,0.026994,-0.166120,0.395752,0.954804,1.046837,-0.190679,0.326829,1.611788,MOVE,0,0.771420,3.746198,0.564011,1
22.890631,0.033732,0.132860,0.391382,0.862687,0.956588,-0.684563,0.508867,1.549174,MOVE,0,0.823676,3.746198,0.564011,1
22.917218,0.026587,-0.090836,0.427558,0.944813,1.041022,-1.699821,-0.162780,1.588880,MOVE,0,0.865920,3.746198,0.564011,1
22.950926,0.033708,-0.164886,0.353020,0.919956,0.999064,-2.616119,-0.470656,1.696393,MOVE,0,0.923102,3.746198,0.564011,1
22.984792,0.033866,-0.073063,0.282368,0.966014,1.009085,-3.195525,-0.883906,1.579717,MOVE,0,0.976601,3.746198,0.564011,1
23.011342,0.026550,0.206321,0.077936,1.339358,1.357395,-2.121318,-0.492647,1.143560,MOVE,0,1.006962,3.746198,0.564011,1
23.045001,0.033659,-0.103671,0.149317,1.141720,1.156100,-1.011071,-0.224172,1.128899,MOVE,0,1.044960,3.746198,0.564011,1
23.071777,0.026777,-0.022215,0.167770,0.991602,1.005940,-0.665626,-0.226310,1.054984,MOVE,1,1.073209,4.080313,1.179127,0
23.105414,0.033637,0.106919,0.022580,0.998913,1.004873,-1.026342,-0.059238,1.057428,MOVE,0,1.108777,4.080313,1.179127,0
23.132197,0.026783,0.137224,0.013596,1.039367,1.048475,-1.067576,0.194882,1.152722,MOVE,0,1.139650,4.080313,1.179127,0
23.162454,0.030257,0.107404,-0.012061,1.005981,1.011770,-0.960369,0.095922,1.367442,MOVE,0,1.181025,4.080313,1.179127,0
23.189294,0.026840,0.088978,-0.076227,1.031081,1.037717,-0.612481,0.151205,1.789244,MOVE,0,1.229048,4.080313,1.179127,0
23.215898,0.026605,0.119768,-0.061030,1.084695,1.092992,-0.442966,0.168920,2.120639,MOVE,0,1.285467,4.080313,1.179127,0
23.242500,0.026601,0.027881,0.050015,1.009636,1.011259,-0.711747,0.197325,2.030231,MOVE,0,1.339473,4.080313,1.179127,0
23.276993,0.034494,-0.166614,0.030835,1.037661,1.051405,-0.807958,0.060186,1.745262,MOVE,0,1.399674,4.080313,1.179127,0
23.305619,0.028626,-0.232026,0.017238,1.016460,1.042748,-0.808874,-0.292894,1.549785,MOVE,0,1.444038,4.080313,1.179127,0
23.330030,0.024411,-0.188336,-0.050416,0.979661,0.998874,-0.516881,-0.445916,1.235495,MOVE,0,1.474197,4.080313,1.179127,0
23.360206,0.030177,-0.245601,-0.076710,1.007199,1.039545,-0.105463,-0.030833,1.039102,MOVE,0,1.505554,4.080313,1.179127,0
23.386896,0.026690,-0.212279,-0.071644,0.991359,1.016360,0.018237,-0.216231,0.812471,MOVE,0,1.527238,4.080313,1.179127,0
23.413394,0.026498,-0.201418,-0.145218,0.992090,1.022692,0.192945,-0.147203,0.887607,MOVE,0,1.550758,4.080313,1.179127,0
23.439816,0.026421,-0.223880,-0.100350,0.916788,0.949048,0.287018,0.214735,0.960300,MOVE,0,1.576131,4.080313,1.179127,0
23.466541,0.026725,-0.232766,-0.041491,0.828082,0.861174,-0.079807,0.240086,0.982291,MOVE,0,1.602383,4.080313,1.179127,0
23.500210,0.033669,-0.192532,-0.057653,0.815166,0.839576,-0.580411,-0.313358,1.015583,MOVE,0,1.636576,4.080313,1.179127,0
23.526799,0.026590,-0.021475,-0.147389,0.880477,0.892986,-0.522073,-0.399796,1.039712,MOVE,0,1.664222,4.080313,1.179127,0
23.560396,0.033597,-0.006911,-0.088530,0.994283,0.998241,-0.376993,-0.251050,0.952970,MOVE,0,1.696239,4.080313,1.179127,0
23.587368,0.026972,-0.056032,-0.098179,1.049602,1.055672,-0.155248,-0.162474,0.904406,MOVE,0,1.720632,4.080313,1.179127,0
23.617676,0.030308,-0.119715,-0.100832,1.002813,1.014954,-0.066062,-0.087033,0.956024,MOVE,0,1.749607,4.080313,1.179127,0
23.644964,0.027289,-0.099722,-0.033772,1.047896,1.053172,-0.222444,-0.146592,0.921510,MOVE,0,1.774754,4.080313,1.179127,0
23.671850,0.026886,-0.122184,-0.038837,0.979905,0.988257,-0.313463,-0.091003,0.854010,MOVE,0,1.797714,4.080313,1.179127,0
23.698703,0.026853,-0.076025,-0.136051,0.890712,0.904244,-0.339730,-0.091309,0.881498,MOVE,0,1.821385,4.080313,1.179127,0
23.730035,0.031332,-0.067880,-0.146183,1.008174,1.020976,-0.202285,-0.324354,0.974655,MOVE,0,1.851923,4.080313,1.179127,0
23.756749,0.026714,-0.064918,-0.105416,1.138308,1.145021,0.205162,-0.342680,1.155166,MOVE,0,1.882782,4.080313,1.179127,0
23.790746,0.033997,-0.049120,-0.024605,1.120031,1.121377,0.298319,-0.289534,1.094079,MOVE,0,1.919977,4.080313,1.179127,0
23.817493,0.026747,-0.096266,-0.074298,0.998913,1.006288,0.320310,-0.336571,1.337509,MOVE,0,1.955752,4.080313,1.179127,0
23.844246,0.026753,-0.049861,0.006798,0.874141,0.875588,0.098261,-0.278844,1.312158,MOVE,0,1.990856,4.080313,1.179127,0
23.870891,0.026646,-0.084418,-0.048728,0.952855,0.957827,-0.122567,-0.485317,1.530237,MOVE,0,2.031630,4.080313,1.179127,0
23.901065,0.030173,-0.015551,-0.037872,0.984048,0.984899,-0.134784,-0.476459,1.745567,MOVE,0,2.084299,4.080313,1.179127,0
23.927767,0.026703,-0.022215,-0.020263,1.015972,1.016417,0.011823,-0.457217,1.936768,MOVE,0,2.136016,4.080313,1.179127,0
23.954695,0.026927,-0.014810,-0.007237,1.006955,1.007090,0.008769,-0.419649,1.931881,MOVE,0,2.188036,4.080313,1.179127,0
23.982692,0.027997,0.016971,-0.034254,0.985023,0.985764,0.124222,-0.383302,1.931881,MOVE,0,2.242124,4.080313,1.179127,0
24.014009,0.031317,0.059157,-0.165963,1.103947,1.117918,0.469667,-0.328935,2.296263,MOVE,0,2.314036,4.080313,1.179127,0
24.041164,0.027155,-0.055538,-0.067061,1.201182,1.204334,0.707904,0.047969,2.745248,MOVE,0,2.388583,4.080313,1.179127,0
24.067920,0.026757,-0.085899,0.145918,0.968695,0.983382,0.177673,0.006124,2.321919,MOVE,1,2.450709,3.540835,1.625179,0
24.098724,0.030804,-0.149089,0.121882,0.985023,1.003669,-0.079807,-0.479208,1.843917,MOVE,0,2.507509,3.540835,1.625179,0
24.126801,0.028077,-0.028139,-0.080328,1.048140,1.051590,0.005104,-0.580001,1.851247,MOVE,0,2.559487,3.540835,1.625179,0
24.153700,0.026899,-0.027399,-0.112652,1.048140,1.054533,-0.011390,-0.161253,1.905003,MOVE,0,2.610729,3.540835,1.625179,0
24.188601,0.034901,-0.051342,-0.129297,0.985510,0.995281,-0.111877,-0.156060,1.911112,MOVE,0,2.677429,3.540835,1.625179,0
24.222283,0.033682,-0.082196,-0.185985,1.009149,1.029431,0.135829,-0.223256,1.974642,MOVE,0,2.743938,3.540835,1.625179,0
24.249220,0.026937,-0.095032,-0.167170,1.061056,1.078340,0.104369,-0.225699,2.087347,MOVE,0,2.800165,3.540835,1.625179,0
24.280999,0.031779,-0.085158,-0.096490,1.100535,1.108034,0.041145,-0.056489,1.956621,MOVE,0,2.862345,3.540835,1.625179,0
24.308536,0.027537,-0.099228,-0.084429,1.012560,1.020908,0.002966,0.103863,1.727241,MOVE,0,2.909908,3.540835,1.625179,0
24.339045,0.030509,-0.120703,-0.120130,0.990384,1.004918,-0.182127,-0.001817,1.628892,MOVE,0,2.959603,3.540835,1.625179,0
24.366306,0.027261,-0.086639,-0.124714,0.959191,0.971137,-0.263982,-0.142316,1.476481,MOVE,0,2.999854,3.540835,1.625179,0
24.393147,0.026841,-0.044924,-0.185503,0.892174,0.912362,-0.218778,-0.044272,1.364693,MOVE,0,3.036484,3.540835,1.625179,0
24.419878,0.026731,-0.026905,-0.182849,0.883401,0.902527,-0.186097,-0.125822,1.292305,MOVE,0,3.071028,3.540835,1.625179,0
24.446574,0.026696,-0.048133,-0.172718,0.922149,0.939418,-0.205950,-0.025335,1.126455,MOVE,0,3.101100,3.540835,1.625179,0
24.477488,0.030914,-0.064424,-0.194911,0.948712,0.970667,-0.173574,0.046747,0.974045,MOVE,0,3.131212,3.540835,1.625179,0
24.504696,0.027208,-0.052082,-0.246533,0.928972,0.962539,-0.093246,0.119440,0.924870,MOVE,0,-3.126810,3.540835,1.625179,0
24.531419,0.026724,-0.038260,-0.192257,1.042535,1.060804,-0.156776,0.062935,0.843625,MOVE,0,-3.104265,3.540835,1.625179,0
24.558440,0.027021,-0.053070,-0.144012,1.002813,1.014490,-0.417004,0.143264,0.607525,MOVE,0,-3.087849,3.540835,1.625179,0
24.589353,0.030913,-0.076519,-0.236401,0.959191,0.990852,-0.416393,0.188773,0.308507,MOVE,0,-3.078313,3.540835,1.625179,0
24.615996,0.026643,-0.098241,-0.223858,0.914351,0.946467,-0.325069,0.122494,0.106921,MOVE,0,-3.075464,3.540835,1.625179,0
24.642628,0.026632,-0.056525,-0.210349,0.975031,0.999063,-0.459154,-0.168583,-0.021666,MOVE,0,-3.076041,3.540835,1.625179,0
24.670477,0.027849,-0.022462,-0.185261,0.962115,0.980047,-0.522379,-0.061682,-0.428197,MOVE,0,-3.087966,3.540835,1.625179,0
24.702083,0.031605,0.016001,-0.298638,0.938964,0.985441,-0.353780,0.002765,-0.533265,MOVE,0,-3.104820,3.540835,1.625179,0
24.729665,0.027582,0.004122,-0.290918,0.907771,0.953257,-0.398984,-0.138956,-0.501195,MOVE,0,-3.118644,3.540835,1.625179,0
24.763487,0.033822,-0.005924,-0.236160,0.969182,0.997558,-0.448158,-0.273957,-0.591298,MOVE,0,-3.138643,3.540835,1.625179,0
24.797364,0.033877,-0.042703,-0.150766,0.952855,0.965653,-0.410896,-0.310915,-0.885429,MOVE,0,3.114547,3.540835,1.625179,0
24.832155,0.034791,-0.075285,-0.189845,1.069342,1.088669,-0.460681,-0.390327,-0.838393,MOVE,0,3.085378,3.540835,1.625179,0
24.858723,0.026568,-0.055785,-0.216862,1.182173,1.203194,-0.125316,-0.288313,-0.610234,MOVE,0,3.069165,3.540835,1.625179,0
24.889750,0.031027,-0.109348,-0.061271,1.230182,1.236551,-0.142726,-0.422398,-0.705530,MOVE,0,3.047275,3.540835,1.625179,0
24.917243,0.027493,-0.114779,0.026707,1.215073,1.220774,-0.444493,-0.736077,-0.908948,MOVE,0,3.022286,3.540835,1.625179,0
24.946107,0.028864,0.005091,-0.131951,1.243829,1.250818,-0.464346,-0.535713,-0.888789,MOVE,0,2.996631,3.540835,1.625179,0
24.969716,0.023609,0.053581,-0.267278,1.218972,1.249080,0.217379,0.656390,-0.576331,MOVE,0,2.983025,3.540835,1.625179,0
25.000675,0.030959,-0.147114,-0.126161,1.069829,1.087241,0.244257,0.914176,-0.406816,MOVE,1,2.970430,2.851064,1.744409,0
25.027741,0.027066,-0.308791,0.073081,0.971376,1.021892,-0.061175,0.329578,-0.712554,MOVE,0,2.951144,2.851064,1.744409,0
25.054496,0.026754,-0.231779,0.098088,0.999401,1.030604,-0.282308,-0.080618,-1.061664,MOVE,0,2.922740,2.851064,1.744409,0
25.081248,0.026752,-0.130082,0.062155,1.040098,1.050042,-0.136617,-0.064736,-1.295015,MOVE,0,2.888095,2.851064,1.744409,0
25.115690,0.034442,-0.044184,-0.011338,0.953098,0.954189,0.073521,0.459692,-1.272107,MOVE,0,2.844281,2.851064,1.744409,0
25.142370,0.026680,-0.042209,-0.047280,0.916544,0.918733,0.188363,0.362870,-1.140771,MOVE,0,2.813846,2.851064,1.744409,0
25.172710,0.030340,-0.092317,-0.024846,0.925804,0.930727,0.085432,0.161895,-1.001494,MOVE,0,2.783460,2.851064,1.744409,0
25.201468,0.028759,0.032003,0.000728,0.956023,0.956559,0.184087,0.501231,-0.970645,MOVE,0,2.755546,2.851064,1.744409,0
25.228221,0.026753,-0.011108,-0.071403,0.896317,0.899225,0.499904,0.508867,-0.765394,MOVE,0,2.735069,2.851064,1.744409,0
25.259370,0.031149,-0.082937,-0.086841,0.972838,0.980221,0.545108,0.073320,-0.413230,MOVE,0,2.722198,2.851064,1.744409,0
25.286099,0.026729,-0.047639,-0.024123,1.081039,1.082357,0.469972,0.043693,-0.171022,MOVE,0,2.717626,2.851064,1.744409,0
25.314128,0.028028,-0.060228,0.035933,1.070560,1.072855,0.056416,0.405019,-0.061983,MOVE,0,2.715889,2.851064,1.744409,0
25.344453,0.030325,-0.049367,0.050744,0.960653,0.963258,-0.039795,0.535439,-0.083974,MOVE,0,2.713343,2.851064,1.744409,0
25.371350,0.026897,-0.065658,-0.024123,0.836368,0.839288,0.008463,0.553765,0.014986,MOVE,0,2.713746,2.851064,1.744409,0
25.398350,0.026999,-0.112557,-0.089977,0.820771,0.833325,0.083294,0.191217,0.221764,MOVE,0,2.719733,2.851064,1.744409,0
25.425224,0.026874,-0.141437,-0.048004,0.995258,1.006403,0.236927,0.109666,0.125553,MOVE,0,2.723107,2.851064,1.744409,0
25.459287,0.034063,-0.113791,0.081336,1.067148,1.076276,0.178284,0.129214,-0.583356,MOVE,0,2.703236,2.851064,1.744409,0
25.493608,0.034321,-0.110336,-0.110481,1.055695,1.067179,0.159042,0.241002,-0.881153,MOVE,0,2.672994,2.851064,1.744409,0
25.527505,0.033897,-0.182658,-0.207454,1.032544,1.068900,0.338942,0.200685,-0.817318,MOVE,0,2.645289,2.851064,1.744409,0
25.554021,0.026516,-0.097994,-0.083464,1.196064,1.202971,0.416521,-0.342680,-1.041811,MOVE,0,2.617665,2.851064,1.744409,0
25.587946,0.033925,0.004849,-0.072850,1.188753,1.190993,0.338331,0.059881,-1.319144,MOVE,0,2.572913,2.851064,1.744409,0
25.622539,0.034593,-0.044430,-0.087565,1.033275,1.037930,-0.077058,0.389442,-1.544248,MOVE,1,2.519493,2.282204,2.152329,0
25.657264,0.034724,-0.122924,-0.053311,0.919225,0.928938,-0.420669,0.003986,-1.888165,MOVE,0,2.453927,2.282204,2.152329,0
25.688722,0.031458,-0.074298,-0.258353,1.001594,1.037042,-0.265510,-0.003344,-1.919930,MOVE,0,2.393530,2.282204,2.152329,0
25.716084,0.027362,-0.065411,-0.246050,1.052527,1.082881,-0.077974,0.260855,-1.752247,MOVE,0,2.345585,2.282204,2.152329,0
25.743472,0.027389,-0.109842,-0.159209,1.021333,1.039488,-0.106074,0.437701,-1.662755,MOVE,0,2.300045,2.282204,2.152329,0
25.774610,0.031138,-0.134772,-0.086600,1.008417,1.021063,-0.051401,0.605383,-1.872893,MOVE,0,2.241727,2.282204,2.152329,0
25.802114,0.027505,-0.200677,-0.120130,0.894367,0.924444,0.186225,0.760543,-1.992928,MOVE,0,2.186912,2.282204,2.152329,0
25.837346,0.035232,-0.240912,-0.047280,0.893393,0.926512,0.136440,0.410823,-2.154196,MOVE,0,2.111017,2.282204,2.152329,0
25.871902,0.034556,-0.162418,-0.033530,0.956998,0.971261,0.082989,0.368673,-2.278202,MOVE,0,2.032291,2.282204,2.152329,0
25.905946,0.034044,-0.085899,-0.051864,1.018409,1.023340,0.052140,0.311557,-2.148088,MOVE,0,1.959161,2.282204,2.152329,0
25.939982,0.034036,-0.021475,-0.023158,1.048871,1.049347,0.083905,0.825295,-2.087612,MOVE,0,1.888107,2.282204,2.152329,0
25.966920,0.026938,-0.062449,-0.013750,0.990140,0.992203,0.203635,0.946857,-2.038743,MOVE,0,1.833187,2.282204,2.152329,0
25.997361,0.030441,-0.099968,0.004856,0.876578,0.882273,0.241814,0.838123,-2.034467,MOVE,0,1.771257,2.282204,2.152329,0
26.024282,0.026922,-0.109101,-0.021710,0.873897,0.880948,0.261667,0.464884,-1.938561,MOVE,0,1.719068,2.282204,2.152329,0
26.058503,0.034221,-0.105892,-0.015438,0.927754,0.933905,0.288545,0.222371,-1.750720,MOVE,0,1.659157,2.282204,2.152329,0
26.085470,0.026967,-0.050354,-0.005066,1.046922,1.048144,0.391781,0.144180,-1.646873,MOVE,0,1.614745,2.282204,2.152329,0
26.112307,0.026836,-0.037272,0.046131,1.074947,1.076582,0.387200,0.226341,-1.535695,MOVE,0,1.573533,2.282204,2.152329,0
26.146291,0.033984,-0.029867,0.055599,1.044485,1.046390,0.268997,0.143264,-1.498127,MOVE,0,1.522620,2.282204,2.152329,0
26.173310,0.027019,0.029336,0.045402,1.028644,1.030064,0.186225,-0.013423,-1.504541,MOVE,0,1.481969,2.282204,2.152329,0
26.206558,0.033248,0.103282,-0.045109,1.029132,1.035285,0.321532,-0.005177,-1.310592,MOVE,0,1.438394,2.282204,2.152329,0
26.241631,0.035072,0.078310,-0.048728,1.073728,1.077682,0.240898,-0.172554,-1.085182,MOVE,0,1.400334,2.282204,2.152329,0
26.273762,0.032131,0.061824,0.072352,1.128316,1.132323,-0.019942,-0.386967,-1.067162,MOVE,0,1.366045,2.282204,2.152329,0
26.299084,0.025322,0.083159,0.060455,1.091762,1.096592,-0.178156,-0.328019,-1.138633,MOVE,0,1.337212,2.282204,2.152329,0
26.327457,0.028373,0.076613,-0.105898,1.011098,1.019511,-0.054456,-0.149035,-0.805406,MOVE,0,1.314360,2.282204,2.152329,0
26.360862,0.033404,0.076370,-0.046798,1.019140,1.023069,0.027706,-0.170110,-0.647192,MOVE,0,1.292741,2.282204,2.152329,0
26.393748,0.032886,0.067885,-0.014232,1.040829,1.043138,0.047559,-0.043050,-0.570223,MOVE,0,1.273989,2.282204,2.152329,0
26.419064,0.025316,0.086553,-0.016403,1.013535,1.017357,0.119030,0.118829,-0.479204,MOVE,0,1.261857,2.282204,2.152329,0
26.446940,0.027876,0.114919,-0.026052,0.990140,0.997127,0.168510,0.246805,-0.362223,MOVE,0,1.251760,2.282204,2.152329,0
26.480574,0.033634,0.046792,-0.003136,0.915325,0.916526,0.157515,0.314000,-0.418117,MOVE,0,1.237697,2.282204,2.152329,0
26.509864,0.029290,-0.015797,0.023065,0.875115,0.875562,0.174619,0.108444,-0.649024,MOVE,0,1.218687,2.282204,2.152329,0
26.535556,0.025692,0.004364,-0.047522,0.902653,0.903914,0.225321,-0.086116,-0.650246,MOVE,0,1.201981,2.282204,2.152329,0
26.561204,0.025649,0.033215,-0.073333,0.963821,0.967177,0.268387,-0.014645,-0.514329,MOVE,0,1.188789,2.282204,2.152329,0
26.590568,0.029364,0.016244,-0.057894,1.012073,1.013858,0.322448,0.141431,-0.430640,MOVE,0,1.176144,2.282204,2.152329,0
26.618256,0.027688,0.012122,-0.051622,1.040829,1.042179,0.376815,0.177167,-0.426059,MOVE,0,1.164347,2.282204,2.152329,0
26.645925,0.027669,0.023275,-0.103486,1.033275,1.038705,0.235400,0.326523,-0.264790,MOVE,0,1.157021,2.282204,2.152329,0
26.676859,0.030934,0.028851,-0.132433,1.055695,1.064360,0.172786,0.393413,0.075462,MOVE,0,1.159355,2.282204,2.152329,0
26.705308,0.028449,0.000727,-0.061513,1.034737,1.036564,0.161791,0.334770,0.142657,MOVE,0,1.163414,2.282204,2.152329,0
26.737011,0.031703,0.000242,-0.135569,1.023039,1.031983,0.155376,0.308808,0.598973,MOVE,0,1.182403,2.282204,2.152329,0
26.763975,0.026963,-0.016785,-0.062478,1.062031,1.063999,0.113838,0.191217,0.789258,MOVE,0,1.203684,2.282204,2.152329,0
26.791048,0.027073,-0.038013,0.041518,1.118812,1.120227,-0.039795,0.237337,0.680218,MOVE,0,1.222100,2.282204,2.152329,0
26.825528,0.034481,-0.026905,-0.030636,0.943594,0.944475,-0.034908,0.245889,0.724811,MOVE,0,1.247091,2.282204,2.152329,0
26.859868,0.034340,-0.058500,-0.093837,1.052527,1.058319,-0.123483,-0.144454,0.975877,MOVE,0,1.280603,2.282204,2.152329,0
26.890753,0.030885,-0.030854,-0.013750,1.064224,1.064760,-0.212975,-0.075732,0.891578,MOVE,0,1.308139,2.282204,2.152329,0
26.917363,0.026610,-0.063684,-0.023881,1.010367,1.012654,-0.208088,0.044303,0.717787,MOVE,0,1.327240,2.282204,2.152329,0
26.943826,0.026463,-0.116013,-0.109758,0.920687,0.934435,-0.262761,-0.196377,0.761463,MOVE,0,1.347390,2.282204,2.152329,0
26.977409,0.033583,-0.076766,-0.102280,0.972594,0.980966,-0.358361,-0.337793,0.799643,MOVE,0,1.374244,2.282204,2.152329,0
27.004631,0.027222,-0.108361,-0.133398,0.893393,0.909773,-0.358361,-0.034193,0.814609,MOVE,0,1.396420,2.282204,2.152329,0
27.045671,0.041040,-0.162171,-0.265831,0.829300,0.885836,-0.260317,-0.320994,0.993898,MOVE,0,1.437209,2.282204,2.152329,0
27.085959,0.040288,-0.145386,-0.245809,0.885594,0.930503,-0.111877,-0.520441,0.905322,MOVE,0,1.473683,2.282204,2.152329,0
27.116961,0.031002,-0.163405,-0.297673,1.040829,1.094822,0.022513,-0.548847,0.861645,MOVE,0,1.500395,2.282204,2.152329,0
27.153929,0.036969,-0.154766,-0.247739,1.120762,1.158203,-0.139366,-0.459660,0.838432,MOVE,0,1.531391,2.282204,2.152329,0
27.182003,0.028074,-0.107867,-0.258112,1.029375,1.066710,-0.329956,-0.180190,0.759020,MOVE,0,1.552700,2.282204,2.152329,0
27.213635,0.031632,-0.139956,-0.322037,0.968939,1.030600,0.087876,-0.002122,0.785898,MOVE,0,1.577559,2.282204,2.152329,0
27.252345,0.038710,-0.176241,-0.191533,0.999644,1.032974,0.016405,-0.078480,0.922732,MOVE,0,1.613278,2.282204,2.152329,0
27.285676,0.033331,-0.157481,-0.088289,0.987460,1.003829,-0.360805,0.087064,0.724506,MOVE,0,1.637427,2.282204,2.152329,0
27.320645,0.034970,-0.084418,-0.108069,0.988922,0.998385,-0.273145,0.478323,0.399831,MOVE,0,1.651408,2.282204,2.152329,0
27.368270,0.047625,-0.091823,-0.116512,1.121249,1.131020,-0.271007,0.077290,0.204965,MOVE,0,1.661170,2.282204,2.152329,0
27.414181,0.045910,0.029578,-0.217827,1.304997,1.323382,0.125444,0.505201,0.671666,MOVE,0,1.692006,2.282204,2.152329,0
27.443387,0.029206,-0.092810,0.013111,1.215560,1.219168,-0.153721,0.573313,0.514368,MOVE,0,1.707029,2.282204,2.152329,0
27.477553,0.034166,-0.153285,0.082792,1.087863,1.101724,-0.232217,-0.094057,0.036061,MOVE,1,1.708261,2.186281,2.845726,0
27.513735,0.036182,-0.088614,-0.140152,0.970401,0.984466,0.247923,-0.047021,0.137159,MOVE,0,1.713224,2.186281,2.845726,0
27.547472,0.033737,-0.043443,-0.111688,1.026451,1.033423,0.354824,-0.522274,0.353405,MOVE,0,1.725146,2.186281,2.845726,0
27.582229,0.034757,0.020123,0.012140,1.082014,1.082269,0.096733,-0.641393,0.277353,MOVE,0,1.734787,2.186281,2.845726,0
27.615851,0.033622,0.076370,-0.010855,1.093711,1.096428,0.115365,-0.538767,0.303314,MOVE,0,1.744984,2.186281,2.845726,0
27.649553,0.033703,0.155165,-0.055482,1.041560,1.054515,0.322143,-0.083062,0.586756,MOVE,0,1.764760,2.186281,2.845726,0
27.682801,0.033247,0.068855,0.083278,0.916056,0.922407,0.032898,0.016509,0.342104,MOVE,0,1.776134,2.186281,2.845726,0
27.717997,0.035197,0.097463,0.034962,0.862199,0.868395,0.115365,-0.156366,0.021706,MOVE,0,1.776898,2.186281,2.845726,0
27.752415,0.034418,0.065945,-0.074056,0.851477,0.857232,0.339247,-0.145065,0.091650,MOVE,0,1.780052,2.186281,2.845726,0
27.785192,0.032778,0.049701,-0.070920,0.880477,0.884725,0.240287,-0.273041,0.108754,MOVE,0,1.783617,2.186281,2.845726,0
27.811054,0.025862,0.043640,-0.076710,0.934090,0.938250,0.146824,-0.372001,0.152125,MOVE,0,1.787551,2.186281,2.845726,0
27.846102,0.035047,0.079280,-0.056447,1.013779,1.018439,0.033814,-0.430339,-0.052820,MOVE,0,1.785700,2.186281,2.845726,0
27.885357,0.039256,0.125345,-0.067543,1.100779,1.109949,-0.018108,-0.048239,-0.178032,MOVE,0,1.778711,2.186281,2.845726,0
27.915346,0.029989,0.092129,-0.104210,0.983561,0.993347,-0.205338,0.147238,-0.318531,MOVE,0,1.769159,2.186281,2.845726,0
27.953903,0.038558,0.056005,-0.145459,0.945300,0.958064,-0.342783,0.033923,-0.327694,MOVE,0,1.756524,2.186281,2.845726,0
27.986546,0.032643,0.088493,-0.188397,0.970157,0.992235,-0.300022,0.194580,-0.388170,MOVE,0,1.743853,2.186281,2.845726,0
28.020654,0.034108,0.073946,-0.199011,0.923124,0.947223,-0.231911,0.417241,-0.431542,MOVE,0,1.729134,2.186281,2.845726,0
28.054551,0.033897,0.050914,-0.215897,0.940913,0.966707,-0.348586,0.205881,-0.346937,MOVE,0,1.717374,2.186281,2.845726,0
28.088137,0.033586,0.046792,-0.251116,0.948468,0.982263,-0.404785,0.397999,-0.377785,MOVE,0,1.704685,2.186281,2.845726,0
28.123732,0.035594,0.004122,-0.218792,0.936771,0.961991,-0.347669,0.280102,-0.492628,MOVE,0,1.687150,2.186281,2.845726,0
28.157327,0.033595,0.036852,-0.209384,1.017191,1.039171,-0.256040,-0.043657,-0.460863,MOVE,0,1.671668,2.186281,2.845726,0
28.193061,0.035734,0.101827,-0.165963,1.053745,1.071584,-0.207476,0.001852,-0.665197,MOVE,0,1.647898,2.186281,2.845726,0
28.224846,0.031786,0.097706,-0.140152,1.041804,1.055720,-0.274977,-0.103827,-0.733920,MOVE,0,1.624569,2.186281,2.845726,0
28.264487,0.039641,0.076855,-0.232783,1.147812,1.173698,0.255865,-0.520743,-0.250420,MOVE,0,1.614643,2.186281,2.845726,0
28.297129,0.032642,0.036609,-0.054517,1.572332,1.573703,0.286103,-0.604126,0.199177,MOVE,0,1.621144,2.186281,2.845726,0
28.327366,0.030237,0.009213,0.125038,1.246509,1.252799,0.554884,0.534221,-0.211325,MOVE,0,1.614754,2.186281,2.845726,0
28.369667,0.042301,-0.144893,0.013839,1.018653,1.028999,0.468141,-0.317936,-0.006379,MOVE,1,1.614484,2.155709,3.545058,0
28.399020,0.029354,-0.097994,0.080122,1.085669,1.093023,0.289158,-0.343897,-0.107783,MOVE,0,1.611320,2.155709,3.545058,0
28.437952,0.038932,-0.078000,0.079879,0.978687,0.985034,0.289158,0.343021,-0.388781,MOVE,0,1.596185,2.155709,3.545058,0
28.473637,0.035685,-0.277196,0.129166,0.898023,0.948666,0.248840,-0.016779,-0.723230,MOVE,0,1.570376,2.155709,3.545058,0
28.501495,0.027858,-0.195247,0.046131,0.838317,0.861989,0.113839,-0.284949,-0.794701,MOVE,0,1.548237,2.155709,3.545058,0
28.537696,0.036200,-0.077013,0.051229,0.887788,0.892593,0.133692,-0.083974,-0.747664,MOVE,0,1.521172,2.155709,3.545058,0
28.573663,0.035967,-0.090342,0.106829,1.001350,1.011077,0.155378,0.149376,-0.418102,MOVE,0,1.506134,2.155709,3.545058,0
28.603508,0.029845,-0.107620,0.052686,0.972350,0.979706,0.225322,0.196413,-0.219266,MOVE,0,1.499590,2.155709,3.545058,0
28.639023,0.035515,-0.140449,0.109985,1.069829,1.084600,0.257087,0.279185,-0.185057,MOVE,0,1.493017,2.155709,3.545058,0
28.676111,0.037089,-0.131810,0.155144,1.004031,1.024462,0.168206,0.181141,-0.340828,MOVE,0,1.480376,2.155709,3.545058,0
28.706606,0.030495,-0.005184,0.153202,1.029619,1.040968,0.139190,0.095620,-0.440094,MOVE,0,1.466956,2.155709,3.545058,0
28.744661,0.038054,0.076613,0.056571,1.038149,1.042508,0.464170,0.703737,-0.379007,MOVE,0,1.452533,2.155709,3.545058,0
28.776046,0.031385,0.112010,-0.033530,1.066661,1.073050,0.557633,1.260235,-0.276382,MOVE,0,1.443859,2.155709,3.545058,0
28.813663,0.037617,0.062066,0.065797,0.858300,0.863053,0.484024,0.614245,-0.530196,MOVE,0,1.423914,2.155709,3.545058,0
28.845838,0.032175,-0.174760,-0.054758,1.042535,1.058498,0.138274,0.160372,-0.012793,MOVE,0,1.423503,2.155709,3.545058,0
28.887725,0.041888,-0.229310,-0.182608,1.090543,1.129254,-0.320486,-0.477677,0.822870,MOVE,0,1.457971,2.155709,3.545058,0
28.924867,0.037142,-0.120949,0.010926,0.966989,0.974585,-0.452433,-0.730270,1.481383,MOVE,0,1.512992,2.155709,3.545058,0
28.959243,0.034375,0.059157,0.229682,0.995014,1.022891,-0.976250,-0.613900,1.197025,MOVE,0,1.554140,2.155709,3.545058,0
28.991691,0.032448,0.078552,0.244249,1.017434,1.049286,0.048782,-0.153918,0.198566,MOVE,0,1.560583,2.155709,3.545058,0
29.025927,0.034236,-0.057019,0.011168,0.847090,0.849081,0.144688,-0.384825,0.371441,MOVE,0,1.573300,2.155709,3.545058,0
29.056646,0.030719,-0.091576,-0.087565,0.903140,0.911985,0.038703,-0.710416,1.059581,MOVE,0,1.605850,2.155709,3.545058,0
29.083109,0.026463,-0.100462,-0.027982,1.029619,1.034887,0.067413,-0.711333,1.434346,MOVE,0,1.643807,2.155709,3.545058,0
29.109867,0.026758,-0.097747,0.057056,1.088107,1.093977,0.082990,-0.402235,1.448702,MOVE,0,1.682571,2.155709,3.545058,0
29.144484,0.034617,-0.128108,0.140820,1.042291,1.059534,-0.053232,0.120055,1.252614,MOVE,0,1.725933,2.155709,3.545058,0
29.170980,0.026496,-0.155013,0.014568,0.982586,0.994845,-0.133867,0.196108,1.252309,MOVE,0,1.759114,2.155709,3.545058,0
29.204606,0.033625,-0.161431,0.037876,0.938720,0.953252,-0.178765,0.142351,1.220544,MOVE,0,1.800155,2.155709,3.545058,0
29.231160,0.026554,-0.119715,0.111927,0.974300,0.987988,-0.133256,0.133494,0.884873,MOVE,0,1.823652,2.155709,3.545058,0
29.265616,0.034456,-0.139709,0.065797,0.924586,0.937394,0.020071,0.141741,0.546759,MOVE,0,1.842491,2.155709,3.545058,0
29.298737,0.033122,-0.118728,0.003399,0.899485,0.907293,0.166374,0.083097,0.386407,MOVE,0,1.855290,2.155709,3.545058,0
29.334009,0.035272,-0.063684,-0.072609,1.040586,1.045058,0.272359,-0.096191,0.504610,MOVE,0,1.873088,2.155709,3.545058,0
29.375155,0.041147,-0.030361,0.011654,1.095905,1.096387,0.230820,0.102034,0.311271,MOVE,0,1.885896,2.155709,3.545058,0
29.426946,0.051790,-0.046652,0.048073,1.054720,1.056845,0.109869,-0.039076,0.081891,MOVE,0,1.890137,2.155709,3.545058,0
29.457356,0.030411,0.001697,-0.013026,1.020115,1.020200,0.086341,0.102341,0.048286,MOVE,0,1.891606,2.155709,3.545058,0
29.487087,0.029731,0.055278,-0.037872,1.036199,1.038363,0.015478,0.097753,0.128298,MOVE,0,1.895420,2.155709,3.545058,0
29.522900,0.035813,0.038549,-0.032807,0.977712,0.979021,0.037774,0.097753,0.316139,MOVE,0,1.906742,2.155709,3.545058,0
29.557711,0.034811,0.002424,0.005584,1.001838,1.001856,0.072594,-0.013119,0.445642,MOVE,0,1.922255,2.155709,3.545058,0
29.593936,0.036225,0.006546,0.081093,1.025720,1.028942,0.076870,-0.081231,0.424262,MOVE,0,1.937624,2.155709,3.545058,0
29.618214,0.024278,0.026184,0.055599,1.044972,1.046778,0.034109,-0.009760,0.429454,MOVE,0,1.948050,2.155709,3.545058,0
29.651636,0.033422,0.054793,0.038604,1.063980,1.066089,0.122074,0.018035,0.367146,MOVE,0,1.960321,2.155709,3.545058,0
29.687034,0.035398,0.020850,0.004856,1.063737,1.063952,0.078397,0.006428,0.416626,MOVE,0,1.975069,2.155709,3.545058,0
29.719541,0.032506,0.055763,0.045159,1.088594,1.090956,-0.097532,-0.023504,0.446864,MOVE,0,1.989595,2.155709,3.545058,0
29.752106,0.032565,0.080977,0.020637,1.036199,1.039563,-0.140904,0.132267,0.414793,MOVE,0,2.003102,2.155709,3.545058,0
29.779346,0.027240,0.064248,0.017481,0.972107,0.974384,-0.215124,0.284372,0.354929,MOVE,0,2.012771,2.155709,3.545058,0
29.810719,0.031374,0.066430,-0.042938,0.932872,0.936219,-0.191605,0.161894,0.445642,MOVE,0,2.026752,2.155709,3.545058,0
29.839074,0.028354,0.041701,-0.121337,0.909233,0.918241,-0.157092,0.103250,0.584919,MOVE,0,2.043337,2.155709,3.545058,0
29.878749,0.039675,0.017456,-0.066096,0.919712,0.922249,-0.125937,0.148760,0.777953,MOVE,0,2.074202,2.155709,3.545058,0
29.907483,0.028734,0.023032,-0.081776,0.974300,0.977997,-0.095089,0.038499,0.754740,MOVE,0,2.095889,2.155709,3.545058,0
29.941247,0.033764,0.040973,-0.055482,0.992090,0.994484,-0.059048,0.063850,0.630429,MOVE,0,2.117175,2.155709,3.545058,0
29.967887,0.026640,0.041701,-0.018092,1.051064,1.052047,-0.146707,0.154869,0.642035,MOVE,0,2.134279,2.155709,3.545058,0
29.994351,0.026464,0.052368,-0.020263,1.090056,1.091501,-0.199547,0.205265,0.609354,MOVE,0,2.150405,2.155709,3.545058,0
30.020940,0.026589,0.029094,0.021123,1.093224,1.093815,-0.144569,0.287426,0.409601,MOVE,0,2.161296,2.155709,3.545058,0
30.054363,0.033423,0.001455,0.025008,1.089081,1.089369,-0.125327,0.155479,0.369589,MOVE,0,2.173648,2.155709,3.545058,0
30.080804,0.026441,0.013577,0.023794,1.091031,1.091375,-0.120440,0.069958,0.365924,MOVE,0,2.183324,2.155709,3.545058,0
30.107297,0.026494,0.017699,0.025250,1.012560,1.013030,-0.110971,0.135015,0.353096,MOVE,0,2.192678,2.155709,3.545058,0
30.140718,0.033420,-0.056772,0.006070,0.947006,0.948726,-0.011400,0.141735,0.334465,MOVE,0,2.203856,2.155709,3.545058,0
30.167120,0.026402,-0.082937,-0.067543,1.064955,1.070313,0.377110,-0.332602,0.799638,MOVE,0,2.224968,2.155709,3.545058,0
30.200702,0.033583,-0.084171,-0.002895,1.281358,1.284123,0.448276,-0.609324,1.211667,MOVE,0,2.265659,2.155709,3.545058,0
30.227195,0.026493,-0.067880,0.118483,1.262837,1.270198,0.284259,-0.129184,1.072390,MOVE,0,2.294070,2.155709,3.545058,0
30.261101,0.033906,-0.047146,0.151745,1.052039,1.063972,0.138567,-0.024115,0.820102,MOVE,1,2.321877,1.678009,4.056724,0
30.287537,0.026435,-0.041468,0.120182,0.961384,0.969754,-0.193438,-0.296866,0.686323,MOVE,0,2.340020,1.678009,4.056724,0
30.321129,0.033592,0.008243,0.062398,0.937989,0.940098,-0.339129,-0.255633,0.637759,MOVE,0,2.361443,1.678009,4.056724,0
30.347515,0.026386,-0.007158,0.041032,0.950905,0.951817,-0.477185,-0.034194,0.684796,MOVE,0,2.379513,1.678009,4.056724,0
30.381066,0.033551,-0.055291,0.034234,0.952855,0.955071,-0.554765,-0.029002,0.771539,MOVE,0,2.405399,1.678009,4.056724,0
30.407759,0.026693,-0.067880,0.030835,0.923367,0.926372,-0.505285,-0.002735,0.899820,MOVE,0,2.429418,1.678009,4.056724,0
30.441155,0.033396,-0.079728,0.035933,0.953342,0.957345,-0.501009,0.035139,0.965794,MOVE,0,2.461671,1.678009,4.056724,0
30.467482,0.026326,-0.083677,-0.050899,0.966989,0.971936,-0.359593,-0.073900,0.966710,MOVE,0,2.487121,1.678009,4.056724,0
30.494002,0.026520,-0.075532,-0.001206,0.966258,0.969206,-0.229479,-0.055880,1.001835,MOVE,0,2.513690,1.678009,4.056724,0
30.527443,0.033441,-0.044184,0.007527,0.923611,0.924698,-0.149761,-0.134376,0.899820,MOVE,0,2.543781,1.678009,4.056724,0
30.553807,0.026364,-0.019253,0.009712,0.961872,0.962113,-0.192827,-0.219286,0.828960,MOVE,0,2.565636,1.678009,4.056724,0
30.587171,0.033364,0.037579,-0.106381,0.938720,0.945476,-0.063935,-0.166752,0.957853,MOVE,0,2.597593,1.678009,4.056724,0
30.613867,0.026697,0.007031,-0.087324,0.938233,0.942314,0.067707,0.065988,1.054675,MOVE,0,2.625750,1.678009,4.056724,0
30.647294,0.033426,-0.006418,-0.042215,0.925561,0.926545,0.154144,0.208319,0.883938,MOVE,0,2.655296,1.678009,4.056724,0
30.673796,0.026503,-0.052823,-0.041491,0.903140,0.905635,0.104053,0.046440,0.620655,MOVE,0,2.671745,1.678009,4.056724,0
30.708179,0.034382,-0.049861,-0.070920,0.973813,0.977664,0.015172,-0.195463,0.470688,MOVE,0,2.687929,1.678009,4.056724,0
30.742313,0.034135,-0.006911,-0.083947,1.026451,1.029901,0.081757,-0.145372,0.329272,MOVE,0,2.699168,1.678009,4.056724,0
30.768700,0.026386,-0.022462,-0.087324,1.040342,1.044242,0.074426,-0.145372,0.252914,MOVE,0,2.705842,1.678009,4.056724,0
30.802192,0.033493,0.007031,-0.076469,1.086644,1.089354,0.015172,-0.315192,0.276738,MOVE,0,2.715110,1.678009,4.056724,0
30.828649,0.026456,0.047035,-0.088047,1.142207,1.146561,0.032277,-0.353371,0.482905,MOVE,0,2.727886,1.678009,4.056724,0
30.862055,0.033406,0.025699,-0.138222,1.294274,1.301887,0.303806,-0.103222,0.855838,MOVE,0,2.756477,1.678009,4.056724,0
30.888863,0.026808,-0.001481,0.032049,1.211417,1.211842,0.494396,-0.011898,0.999086,MOVE,0,2.783260,1.678009,4.056724,0
30.922550,0.033688,-0.041222,0.091776,1.177543,1.181833,0.302279,-0.275791,1.133171,MOVE,0,2.821434,1.678009,4.056724,0
30.948973,0.026423,0.000970,0.273142,1.074459,1.108634,0.007231,-0.208596,0.529636,MOVE,1,2.835429,1.010562,4.267706,0
30.982519,0.033545,0.066430,0.271928,1.013535,1.051481,-0.195882,-0.138347,0.023229,MOVE,0,2.836208,1.010562,4.267706,0
31.009053,0.026534,0.095281,0.043703,0.963334,0.969020,-0.380363,-0.107803,0.182054,MOVE,0,2.841038,1.010562,4.267706,0
31.042494,0.033441,0.086553,-0.082017,0.951392,0.958836,-0.265520,0.135015,0.605383,MOVE,0,2.861283,1.010562,4.267706,0
31.068896,0.026402,-0.008886,-0.023640,0.939451,0.939791,-0.205350,0.184190,0.893406,MOVE,0,2.884871,1.010562,4.267706,0
31.095284,0.026388,-0.038260,0.093718,0.965527,0.970819,-0.096310,-0.029613,0.766346,MOVE,0,2.905093,1.010562,4.267706,0
31.128745,0.033461,0.007516,0.068468,1.016703,1.019034,-0.010789,-0.012814,0.729083,MOVE,0,2.929489,1.010562,4.267706,0
31.155165,0.026421,0.010668,0.066768,0.938720,0.941152,0.017921,0.168613,0.646006,MOVE,0,2.946557,1.010562,4.267706,0
31.188598,0.033433,0.005334,0.083521,0.927510,0.931278,0.055490,0.190299,0.402576,MOVE,0,2.960016,1.010562,4.267706,0
31.215109,0.026510,-0.007652,0.057542,0.888031,0.889927,0.049686,0.064461,0.160063,MOVE,0,2.964260,1.010562,4.267706,0
31.248844,0.033736,0.030548,-0.011338,0.934334,0.934902,0.062815,-0.021670,0.095914,MOVE,0,2.967495,1.010562,4.267706,0
31.275740,0.026895,0.049217,-0.029430,0.895099,0.896933,0.075937,0.049802,0.032686,MOVE,0,2.968375,1.010562,4.267706,0
31.309298,0.033559,0.056732,-0.024605,0.892174,0.894315,0.113486,0.012527,-0.041531,MOVE,0,2.966981,1.010562,4.267706,0
31.335749,0.026451,0.049701,-0.060548,0.988922,0.992019,0.132107,0.020772,-0.038474,MOVE,0,2.965963,1.010562,4.267706,0
31.369152,0.033402,0.047762,-0.024846,0.971863,0.973353,0.081082,0.020158,-0.080003,MOVE,0,2.963291,1.010562,4.267706,0
31.395906,0.026755,0.040731,-0.009408,0.984535,0.985422,-0.058501,-0.002138,-0.232108,MOVE,0,2.957081,1.010562,4.267706,0
31.429409,0.033503,0.043883,-0.066096,0.999644,1.002788,-0.049949,-0.044594,-0.225083,MOVE,0,2.949540,1.010562,4.267706,0
31.455796,0.026387,0.047035,-0.059100,1.118812,1.121359,-0.016656,0.007330,-0.238217,MOVE,0,2.943254,1.010562,4.267706,0
31.489286,0.033490,0.035640,0.011654,1.150005,1.150617,-0.050254,0.042455,-0.352754,MOVE,0,2.931440,1.010562,4.267706,0
31.515875,0.026588,0.044610,-0.002653,1.128804,1.129688,-0.128445,0.232434,-0.416895,MOVE,0,2.920356,1.010562,4.267706,0
31.549292,0.033417,-0.034310,-0.075504,1.119056,1.122125,-0.061555,0.401338,-0.226305,MOVE,0,2.912793,1.010562,4.267706,0
31.575752,0.026461,-0.112310,-0.055241,1.267955,1.274117,0.039849,-0.075137,0.098675,MOVE,0,2.915404,1.010562,4.267706,0
31.609228,0.033475,-0.090589,0.148832,1.315719,1.327205,0.118345,-0.029933,-0.045183,MOVE,0,2.913892,1.010562,4.267706,0
31.635666,0.026438,-0.131563,0.227982,1.155367,1.184971,0.055120,0.142026,-0.304190,MOVE,0,2.905850,1.010562,4.267706,0
31.662090,0.026424,-0.194260,0.243764,0.962359,1.011579,-0.256116,0.138971,-0.601376,MOVE,1,2.889959,0.332607,4.441997,0
31.692670,0.030579,-0.186608,0.227011,0.858788,0.907674,-0.378900,0.036041,-1.030204,MOVE,0,2.858456,0.332607,4.441997,0
31.719757,0.027087,-0.139709,0.088862,0.861712,0.877475,-0.257643,-0.309098,-1.013710,MOVE,0,2.830997,0.332607,4.441997,0
31.753780,0.034024,-0.111817,0.046131,0.949199,0.956875,-0.065831,-0.430966,-0.673764,MOVE,0,2.808073,0.332607,4.441997,0
31.780154,0.026374,-0.070842,0.071138,1.079333,1.083992,0.115596,-0.300241,-0.403456,MOVE,0,2.797433,0.332607,4.441997,0
31.813688,0.033533,-0.066152,0.134021,1.057644,1.068152,0.061534,0.051923,-0.272425,MOVE,0,2.788297,0.332607,4.441997,0
31.840115,0.026428,-0.073557,0.148346,0.989897,1.003650,-0.055136,0.113916,-0.155737,MOVE,0,2.784182,0.332607,4.441997,0
31.873502,0.033386,-0.080222,0.122125,0.968939,0.979894,-0.088115,0.178353,-0.158479,MOVE,0,2.778890,0.332607,4.441997,0
31.900579,0.027077,-0.075532,0.113870,0.970157,0.979733,-0.028250,0.322212,-0.108082,MOVE,0,2.775964,0.332607,4.441997,0
31.934266,0.033687,-0.106139,0.012140,0.966502,0.972388,-0.115900,0.060145,0.062039,MOVE,0,2.778054,0.332607,4.441997,0
31.960756,0.026490,-0.084418,0.063369,0.978443,0.984120,-0.358108,-0.128307,0.117627,MOVE,0,2.781170,0.332607,4.441997,0
31.994428,0.033673,-0.038013,0.053900,1.025476,1.027595,-0.321456,0.002724,0.164664,MOVE,0,2.786714,0.332607,4.441997,0
32.020994,0.026566,-0.022462,0.020395,0.977955,0.978426,-0.150108,0.224774,0.218115,MOVE,0,2.792509,0.332607,4.441997,0
32.047399,0.026404,-0.110089,-0.037390,1.053989,1.060382,-0.003195,-0.080659,0.593186,MOVE,0,2.808172,0.332607,4.441997,0
32.073814,0.026416,-0.049614,0.063854,1.132215,1.135099,0.122338,-0.309123,0.743764,MOVE,0,2.827819,0.332607,4.441997,0
32.100268,0.026454,-0.016044,0.168741,1.119056,1.131820,0.212135,0.326483,0.445051,MOVE,0,2.839592,0.332607,4.441997,0
32.133728,0.033459,-0.093057,0.197876,0.915813,0.941556,-0.001973,0.304186,0.035466,MOVE,0,2.840779,0.332607,4.441997,0
32.160106,0.026378,-0.076519,0.138149,0.855132,0.869593,-0.258231,-0.118533,-0.523781,MOVE,0,2.826962,0.332607,4.441997,0
32.193552,0.033447,-0.026658,-0.076710,0.849040,0.852915,-0.133309,-0.074550,-0.573261,MOVE,0,2.807788,0.332607,4.441997,0
32.220277,0.026725,-0.041715,-0.162104,0.986241,1.000345,0.164487,-0.107232,-0.323417,MOVE,0,2.799145,0.332607,4.441997,0
32.251322,0.031045,-0.058994,-0.071644,1.048384,1.052484,0.335530,-0.233070,-0.003935,MOVE,0,2.799023,0.332607,4.441997,0
32.278183,0.026860,-0.069608,0.026707,1.139283,1.141720,0.173039,0.069919,-0.152375,MOVE,0,2.794930,0.332607,4.441997,0
32.311890,0.033707,-0.092317,0.053900,1.076653,1.081947,0.088740,0.266007,-0.469720,MOVE,0,2.779097,0.332607,4.441997,0
32.338356,0.026467,-0.119222,0.074780,1.015241,1.024949,0.006273,0.315487,-0.608386,MOVE,0,2.762995,0.332607,4.441997,0
32.371773,0.033417,-0.129342,0.051472,0.996720,1.006394,0.072858,0.224468,-0.955663,MOVE,0,2.731060,0.332607,4.441997,0
32.398544,0.026770,-0.114038,0.007284,0.985023,0.991629,0.261004,0.225995,-1.209172,MOVE,0,2.698690,0.332607,4.441997,0
32.432073,0.033529,-0.129836,-0.036908,1.005250,1.014271,0.199001,-0.044618,-1.170993,MOVE,0,2.659428,0.332607,4.441997,0
32.458479,0.026407,-0.071089,0.000486,1.031081,1.033529,0.066138,-0.076688,-1.244297,MOVE,0,2.626570,0.332607,4.441997,0
32.491968,0.033489,-0.047146,-0.015680,1.004031,1.005260,0.096070,0.093438,-1.339286,MOVE,0,2.581719,0.332607,4.441997,0
32.518463,0.026495,-0.065905,-0.004825,0.967476,0.969731,0.180675,0.085496,-1.384796,MOVE,0,2.545029,0.332607,4.441997,0
32.544867,0.026404,-0.093057,0.042731,0.999644,1.004875,0.206637,-0.126474,-1.451380,MOVE,0,2.506707,0.332607,4.441997,0
32.578266,0.033399,-0.066646,0.112899,1.016947,1.025363,0.243289,-0.092265,-1.804766,MOVE,0,2.446429,0.332607,4.441997,0
32.604734,0.026467,-0.059487,0.075023,0.976250,0.980933,0.219465,0.061367,-1.935185,MOVE,0,2.395210,0.332607,4.441997,0
32.638185,0.033452,-0.093304,0.005341,0.936771,0.941421,0.127225,0.069614,-1.972448,MOVE,0,2.329228,0.332607,4.441997,0
32.664698,0.026513,-0.103424,0.086920,0.973569,0.982898,0.128446,-0.099290,-2.190222,MOVE,0,2.271160,0.332607,4.441997,0
32.698386,0.033689,-0.111076,0.071624,1.007199,1.015834,0.250925,-0.044313,-2.365540,MOVE,0,2.191468,0.332607,4.441997,0
32.725441,0.027055,-0.114532,0.110713,1.004275,1.016830,0.306514,0.062589,-2.604694,MOVE,0,2.120998,0.332607,4.441997,0
32.752443,0.027001,-0.106633,0.123581,1.012560,1.025632,0.218549,0.234242,-2.781539,MOVE,0,2.045893,0.332607,4.441997,0
32.778774,0.026331,-0.149336,0.109742,0.985754,1.003023,0.134250,0.397038,-2.913792,MOVE,0,1.969168,0.332607,4.441997,0
32.812291,0.033517,-0.185620,0.121153,0.973569,0.998484,0.111953,0.272727,-3.063759,MOVE,0,1.866481,0.332607,4.441997,0
32.838734,0.026443,-0.132798,0.083763,0.998670,1.010937,0.051783,0.048234,-3.076587,MOVE,0,1.785128,0.332607,4.441997,0
32.872179,0.033445,-0.175747,0.062883,1.066174,1.082390,0.034679,-0.067831,-2.988928,MOVE,0,1.685163,0.332607,4.441997,0
32.899393,0.027214,-0.223880,0.060213,1.115157,1.139001,0.025821,-0.040647,-2.889968,MOVE,0,1.606514,0.332607,4.441997,0
32.929392,0.029999,-0.215241,0.030106,1.154392,1.174673,0.130890,0.046706,-2.776958,MOVE,0,1.523209,0.332607,4.441997,0
32.955898,0.026506,-0.242393,0.123096,1.182173,1.213030,0.113786,0.130089,-2.632183,MOVE,0,1.453439,0.332607,4.441997,0
32.982461,0.026563,-0.240665,0.175539,1.155123,1.192913,0.124781,0.356110,-2.696324,MOVE,0,1.381816,0.332607,4.441997,0
33.009061,0.026600,-0.221658,0.075023,1.086157,1.111079,0.054532,0.433079,-2.731143,MOVE,1,1.309168,0.513664,5.118176,0
33.035505,0.026443,-0.201665,0.051715,1.031325,1.052129,0.094238,0.555863,-2.637986,MOVE,0,1.239411,0.513664,5.118176,0
33.061905,0.026400,-0.192038,0.057299,0.985997,1.006157,0.098819,0.713466,-2.534750,MOVE,0,1.172493,0.513664,5.118176,0
33.095300,0.033395,-0.161184,0.088376,0.949443,0.967074,0.152270,0.694834,-2.518867,MOVE,0,1.088375,0.513664,5.118176,0
33.121814,0.026513,-0.127861,0.087405,0.946031,0.958626,0.124170,0.572967,-2.445563,MOVE,0,1.023535,0.513664,5.118176,0
33.148224,0.026411,-0.111076,0.089833,0.952855,0.963504,0.131501,0.553419,-2.276964,MOVE,0,0.963398,0.513664,5.118176,0
33.181694,0.033470,-0.115272,0.120182,0.950174,0.964657,0.108593,0.615727,-2.203966,MOVE,0,0.889632,0.513664,5.118176,0
33.208215,0.026521,-0.128601,0.173597,0.912401,0.937630,-0.003501,0.332591,-2.263525,MOVE,0,0.829600,0.513664,5.118176,0
