t,dt,acc_x_g,acc_y_g,acc_z_g,acc_mag_g,gyro_x_rads,gyro_y_rads,gyro_z_rads,gyro_mag_rads,yaw_deg,yaw_rad,hp,state,step,step_count,heading_rad,pos_x_m,pos_y_m,walkable
0.001752,0.001752,-0.104411,-0.037390,1.008905,1.014982,0.001614,0.000969,-0.002834,0.003403,94.982,1.657751,0.013484,MOVE,0,0,1.657751,1.000000,0.250000,1
0.150537,0.148784,-0.106139,-0.037872,1.008905,1.015179,0.000338,0.000405,-0.004211,0.004243,94.977,1.657656,0.025797,MOVE,0,0,1.657656,1.000000,0.250000,1
0.194357,0.043821,-0.104658,-0.037872,1.010367,1.016479,-0.000304,-0.000797,-0.001634,0.001843,94.940,1.657008,0.038048,MOVE,0,0,1.657008,1.000000,0.250000,1
0.237863,0.043506,-0.105399,-0.038114,1.008661,1.014869,0.005026,-0.001083,-0.001528,0.005364,94.843,1.655324,0.047626,MOVE,0,0,1.655324,1.000000,0.250000,1
0.281784,0.043921,-0.104905,-0.037390,1.009392,1.015518,0.002170,0.000113,-0.002304,0.003167,94.787,1.654351,0.056829,MOVE,0,0,1.654351,1.000000,0.250000,1
0.330387,0.048603,-0.105152,-0.038596,1.009392,1.015588,-0.000966,0.001013,-0.002505,0.002869,94.771,1.654061,0.065176,MOVE,0,0,1.654061,1.000000,0.250000,1
0.374148,0.043761,-0.104905,-0.037872,1.010855,1.016989,0.003256,0.000087,-0.001159,0.003458,94.756,1.653806,0.073948,MOVE,0,0,1.653806,1.000000,0.250000,1
0.418194,0.044046,-0.104658,-0.037390,1.008905,1.015008,-0.001385,0.000073,-0.001072,0.001753,94.726,1.653285,0.080060,MOVE,0,0,1.653285,1.000000,0.250000,1
0.455246,0.037052,-0.105152,-0.037631,1.009149,1.015310,-0.000471,0.000990,-0.001279,0.001685,94.711,1.653012,0.085833,MOVE,0,0,1.653012,1.000000,0.250000,1
0.504349,0.049103,-0.105399,-0.037631,1.007930,1.014124,0.000104,0.000361,-0.001511,0.001557,94.699,1.652802,0.089962,MOVE,0,0,1.652802,1.000000,0.250000,1
0.554097,0.049747,-0.104165,-0.039079,1.009149,1.015263,-0.000202,0.000318,-0.001461,0.001509,94.684,1.652555,0.094702,MOVE,0,0,1.652555,1.000000,0.250000,1
0.593197,0.039101,-0.105152,-0.037390,1.009392,1.015543,0.001590,0.001183,-0.001088,0.002261,94.671,1.652324,0.099221,MOVE,0,0,1.652324,1.000000,0.250000,1
0.638530,0.045333,-0.104658,-0.038596,1.008417,1.014568,0.001220,-0.000338,-0.001605,0.002045,94.661,1.652147,0.102410,MOVE,0,0,1.652147,1.000000,0.250000,1
0.683844,0.045313,-0.105152,-0.038355,1.008905,1.015095,-0.001493,-0.000021,0.075035,0.075050,94.736,1.653463,0.105754,MOVE,0,0,1.653463,1.000000,0.250000,1
0.740082,0.056238,-0.104658,-0.039320,1.008905,1.015081,-0.001179,0.002393,-0.001472,0.003047,94.723,1.653234,0.108751,MOVE,0,0,1.653234,1.000000,0.250000,1
0.787877,0.047795,-0.105892,-0.037872,1.008417,1.014669,0.001792,-0.000018,-0.000703,0.001925,94.635,1.651692,0.111078,MOVE,0,0,1.651692,1.000000,0.250000,1
0.838631,0.050754,-0.104411,-0.036908,1.008417,1.014480,0.004431,0.000268,-0.000668,0.004489,94.631,1.651618,0.113003,MOVE,0,0,1.651618,1.000000,0.250000,1
0.883307,0.044676,-0.105646,-0.039802,1.011342,1.017624,0.001669,-0.000676,-0.001577,0.002393,94.702,1.652857,0.117564,MOVE,0,0,1.652857,1.000000,0.250000,1
0.933228,0.049921,-0.105399,-0.037872,1.008417,1.014618,0.002157,0.000243,-0.002720,0.003480,94.703,1.652887,0.118963,MOVE,0,0,1.652887,1.000000,0.250000,1
0.975872,0.042645,-0.104411,-0.037631,1.007930,1.014022,0.000023,-0.000690,-0.077670,0.077673,94.597,1.651024,0.119687,MOVE,0,0,1.651024,1.000000,0.250000,1
1.026178,0.050306,-0.104165,-0.035701,1.009149,1.015138,0.001773,-0.001252,-0.076332,0.076363,94.501,1.649346,0.121343,MOVE,0,0,1.649346,1.000000,0.250000,1
1.072082,0.045904,-0.105892,-0.037390,1.010123,1.016347,0.001436,0.000236,0.000315,0.001489,94.514,1.649585,0.123920,MOVE,0,0,1.649585,1.000000,0.250000,1
1.116314,0.044231,-0.104411,-0.037872,1.008905,1.015000,-0.000442,0.001741,-0.001537,0.002364,94.528,1.649829,0.125028,MOVE,0,0,1.649829,1.000000,0.250000,1
1.158614,0.042300,-0.104658,-0.038355,1.009880,1.016013,-0.000765,0.001745,-0.000335,0.001934,94.542,1.650070,0.126937,MOVE,0,0,1.650070,1.000000,0.250000,1
1.202166,0.043552,-0.105399,-0.038355,1.011829,1.018027,-0.001617,-0.001309,-0.000943,0.002285,94.555,1.650289,0.130467,MOVE,0,0,1.650289,1.000000,0.250000,1
1.252264,0.050098,-0.105399,-0.036908,1.010123,1.016278,0.002573,0.000192,0.001807,0.003150,94.508,1.649480,0.132071,MOVE,0,0,1.649480,1.000000,0.250000,1
1.302647,0.050383,-0.105399,-0.038114,1.009880,1.016080,0.001894,0.001368,0.000831,0.002480,94.517,1.649632,0.133336,MOVE,0,0,1.649632,1.000000,0.250000,1
1.353436,0.050788,-0.104905,-0.037149,1.014266,1.020353,-0.000207,0.000395,0.003132,0.003164,94.531,1.649876,0.138320,MOVE,0,0,1.649876,1.000000,0.250000,1
1.396065,0.042629,-0.106386,-0.036425,1.010367,1.016605,-0.000907,-0.000866,0.001161,0.001709,94.559,1.650369,0.139433,MOVE,0,0,1.650369,1.000000,0.250000,1
1.438697,0.042632,-0.105892,-0.037390,1.008174,1.014409,0.003552,0.002045,0.004967,0.006440,94.606,1.651187,0.138458,MOVE,0,0,1.651187,1.000000,0.250000,1
1.485032,0.046335,-0.105892,-0.039320,1.010611,1.016904,-0.002194,-0.000944,0.002413,0.003395,94.629,1.651592,0.139826,MOVE,0,0,1.651592,1.000000,0.250000,1
1.532612,0.047580,-0.103671,-0.041491,1.008905,1.015066,-0.003677,-0.001793,0.001998,0.004553,94.609,1.651238,0.139402,MOVE,0,0,1.651238,1.000000,0.250000,1
1.576137,0.043525,-0.107374,-0.038355,1.009636,1.016054,0.003512,-0.000859,0.000768,0.003696,94.586,1.650830,0.139910,MOVE,0,0,1.650830,1.000000,0.250000,1
1.618840,0.042702,-0.106633,-0.036184,1.004518,1.010810,0.004339,-0.000060,-0.001077,0.004471,94.574,1.650625,0.135648,MOVE,0,0,1.650625,1.000000,0.250000,1
1.665458,0.046619,-0.106880,-0.040767,1.007930,1.014401,0.013628,0.008791,0.001649,0.016301,94.567,1.650510,0.135044,MOVE,0,0,1.650510,1.000000,0.250000,1
1.716690,0.051232,-0.108608,-0.032324,1.009392,1.015733,-0.015424,-0.007555,-0.002307,0.017329,94.574,1.650629,0.135699,MOVE,0,0,1.650629,1.000000,0.250000,1
1.758838,0.042148,-0.103177,-0.038837,1.007443,1.013457,0.007555,0.004630,0.001861,0.009055,94.591,1.650929,0.134240,MOVE,0,0,1.650929,1.000000,0.250000,1
1.800239,0.041400,-0.102930,-0.038837,1.009392,1.015370,0.000124,0.007458,0.078691,0.079043,94.663,1.652172,0.134649,MOVE,0,0,1.652172,1.000000,0.250000,1
1.853006,0.052768,-0.105892,-0.035943,1.008905,1.015083,-0.010346,-0.009943,-0.004535,0.015049,94.655,1.652045,0.134759,MOVE,0,0,1.652045,1.000000,0.250000,1
1.894419,0.041412,-0.105152,-0.039802,1.008417,1.014666,0.008273,0.010844,-0.075016,0.076246,94.577,1.650674,0.134483,MOVE,0,0,1.650674,1.000000,0.250000,1
1.935996,0.041578,-0.106633,-0.035701,1.009636,1.015879,-0.008097,-0.007051,0.000414,0.010744,94.552,1.650247,0.135326,MOVE,0,0,1.650247,1.000000,0.250000,1
1.986885,0.050888,-0.107127,-0.037390,1.005250,1.011633,-0.003854,-0.005505,0.000944,0.006786,94.569,1.650537,0.132262,MOVE,0,0,1.650537,1.000000,0.250000,1
2.034716,0.047832,-0.104165,-0.035701,1.010855,1.016834,0.001327,0.001720,0.000347,0.002200,94.584,1.650807,0.134187,MOVE,0,0,1.650807,1.000000,0.250000,1
2.077057,0.042341,-0.106386,-0.034978,1.003544,1.009773,-0.005445,-0.004661,0.000300,0.007174,94.582,1.650769,0.129564,MOVE,0,0,1.650769,1.000000,0.250000,1
2.126956,0.049899,-0.106139,-0.038114,1.008905,1.015188,0.002462,-0.000686,-0.000931,0.002720,94.548,1.650180,0.130277,MOVE,0,0,1.650180,1.000000,0.250000,1
2.169488,0.042532,-0.104905,-0.037872,1.005981,1.012144,-0.002395,-0.002189,-0.000009,0.003244,94.513,1.649568,0.128179,MOVE,0,0,1.649568,1.000000,0.250000,1
2.213014,0.043526,-0.105399,-0.039320,1.009149,1.015399,-0.001565,0.002069,0.000297,0.002611,94.485,1.649071,0.129221,MOVE,0,0,1.649071,1.000000,0.250000,1
2.255129,0.042115,-0.102930,-0.037631,1.011586,1.017505,0.000800,-0.000631,0.000898,0.001358,94.467,1.648760,0.132053,MOVE,0,0,1.648760,1.000000,0.250000,1
2.298850,0.043721,-0.105892,-0.035219,1.005981,1.012151,0.001110,-0.002461,0.001474,0.003076,94.477,1.648937,0.129784,MOVE,0,0,1.648937,1.000000,0.250000,1
2.341591,0.042741,-0.106139,-0.035943,1.007686,1.013898,-0.000391,-0.000292,-0.073674,0.073675,94.423,1.647984,0.129314,MOVE,0,0,1.647984,1.000000,0.250000,1
2.394789,0.053198,-0.103424,-0.037872,1.012073,1.018048,-0.000087,0.000974,0.001360,0.001675,94.404,1.647656,0.132626,MOVE,0,0,1.647656,1.000000,0.250000,1
2.444999,0.050210,-0.105399,-0.037631,1.008417,1.014609,-0.000337,-0.000236,0.002774,0.002805,94.381,1.647264,0.132512,MOVE,0,0,1.647264,1.000000,0.250000,1
2.487000,0.042001,-0.104165,-0.039079,1.005250,1.011387,0.002297,0.000912,0.001761,0.003035,94.357,1.646838,0.129509,MOVE,0,0,1.646838,1.000000,0.250000,1
2.532261,0.045261,-0.103918,-0.037872,1.011098,1.017130,-0.000399,-0.000300,0.000493,0.000701,94.266,1.645247,0.131975,MOVE,0,0,1.645247,1.000000,0.250000,1
2.575992,0.043731,-0.106633,-0.037390,1.009636,1.015940,-0.000354,-0.000906,0.000979,0.001380,94.242,1.644831,0.133123,MOVE,0,0,1.644831,1.000000,0.250000,1
2.618441,0.042449,-0.106633,-0.035701,1.007199,1.013457,0.002021,-0.001181,0.003603,0.004297,94.246,1.644900,0.131922,MOVE,0,0,1.644900,1.000000,0.250000,1
2.661120,0.042679,-0.105646,-0.038837,1.009880,1.016133,-0.000957,0.000944,0.004055,0.004272,94.287,1.645627,0.133250,MOVE,0,0,1.645627,1.000000,0.250000,1
2.711478,0.050358,-0.106139,-0.038114,1.011098,1.017368,-0.000079,0.001228,0.002403,0.002700,94.322,1.646237,0.135556,MOVE,0,0,1.646237,1.000000,0.250000,1
2.753275,0.041797,-0.105152,-0.037390,1.009636,1.015785,0.000191,0.000256,0.002604,0.002624,94.343,1.646590,0.136207,MOVE,0,0,1.646590,1.000000,0.250000,1
2.795281,0.042006,-0.107127,-0.038114,1.009636,1.016019,-0.000695,0.001735,0.000654,0.001980,94.340,1.646542,0.137003,MOVE,0,0,1.646542,1.000000,0.250000,1
2.841304,0.046023,-0.104905,-0.038837,1.009392,1.015572,0.000150,0.000799,0.002153,0.002301,94.330,1.646360,0.137317,MOVE,0,0,1.646360,1.000000,0.250000,1
2.890680,0.049376,-0.107620,-0.038114,1.009149,1.015586,-0.001379,-0.001318,0.000575,0.001992,94.318,1.646167,0.137614,MOVE,0,0,1.646167,1.000000,0.250000,1
2.932533,0.041853,-0.106633,-0.039079,1.008174,1.014550,0.001397,-0.000127,0.002883,0.003207,94.323,1.646246,0.136948,MOVE,0,0,1.646246,1.000000,0.250000,1
2.971559,0.039025,-0.103671,-0.036666,1.009880,1.015849,0.000437,0.000184,0.001869,0.001929,94.346,1.646651,0.137517,MOVE,0,0,1.646651,1.000000,0.250000,1
3.013681,0.042122,-0.105399,-0.037149,1.008905,1.015075,0.000120,-0.000405,0.000325,0.000533,94.359,1.646868,0.137333,MOVE,0,0,1.646868,1.000000,0.250000,1
3.056060,0.042380,-0.105892,-0.037631,1.010611,1.016840,0.001030,0.000826,0.002976,0.003256,94.371,1.647079,0.138756,MOVE,0,0,1.647079,1.000000,0.250000,1
3.097904,0.041844,-0.105152,-0.038114,1.008905,1.015086,0.001284,0.000560,0.001688,0.002194,94.387,1.647358,0.138457,MOVE,0,0,1.647358,1.000000,0.250000,1
3.140648,0.042744,-0.105152,-0.037149,1.008417,1.014565,-0.001502,-0.000980,0.000744,0.001942,94.419,1.647916,0.137720,MOVE,0,0,1.647916,1.000000,0.250000,1
3.182783,0.042135,-0.103671,-0.037872,1.008174,1.014198,-0.002079,0.002367,0.003109,0.004426,94.453,1.648521,0.136726,MOVE,0,0,1.648521,1.000000,0.250000,1
3.219316,0.036533,-0.104905,-0.036666,1.007686,1.013796,0.000692,-0.000698,-0.000298,0.001027,94.478,1.648958,0.135470,MOVE,0,0,1.648958,1.000000,0.250000,1
3.268538,0.049222,-0.104905,-0.037631,1.009880,1.016011,0.001313,-0.001284,-0.000003,0.001837,94.495,1.649249,0.136332,MOVE,0,0,1.649249,1.000000,0.250000,1
3.314161,0.045624,-0.104658,-0.037872,1.009880,1.015994,-0.000459,-0.001586,0.002665,0.003135,94.512,1.649544,0.137094,MOVE,0,0,1.649544,1.000000,0.250000,1
3.363296,0.049135,-0.104411,-0.037390,1.010367,1.016436,-0.001372,-0.001883,0.001682,0.002874,94.509,1.649495,0.138177,MOVE,0,0,1.649495,1.000000,0.250000,1
3.405213,0.041917,-0.104658,-0.037149,1.008905,1.014999,-0.002556,-0.001269,0.002250,0.003633,94.516,1.649611,0.137858,MOVE,0,0,1.649611,1.000000,0.250000,1
3.448704,0.043491,-0.106386,-0.036666,1.009149,1.015403,0.001049,-0.000920,0.000962,0.001695,94.539,1.650015,0.137935,MOVE,0,0,1.650015,1.000000,0.250000,1
3.494067,0.045363,-0.105152,-0.038114,1.009392,1.015570,-0.001044,-0.000009,0.002096,0.002342,94.466,1.648750,0.138155,MOVE,0,0,1.648750,1.000000,0.250000,1
3.535784,0.041718,-0.106386,-0.037872,1.009149,1.015447,-0.001923,0.000272,0.003267,0.003801,94.453,1.648516,0.138242,MOVE,0,0,1.648516,1.000000,0.250000,1
3.577563,0.041779,-0.104411,-0.037631,1.009149,1.015233,0.002896,-0.000338,0.001359,0.003217,94.463,1.648689,0.138128,MOVE,0,0,1.648689,1.000000,0.250000,1
3.623012,0.045449,-0.106880,-0.036425,1.008905,1.015204,-0.000205,0.000535,0.002142,0.002217,94.484,1.649056,0.137999,MOVE,0,0,1.649056,1.000000,0.250000,1
3.672327,0.049315,-0.105152,-0.037390,1.008905,1.015059,-0.001662,0.000504,0.001135,0.002074,94.540,1.650032,0.137752,MOVE,0,0,1.650032,1.000000,0.250000,1
3.714153,0.041826,-0.104411,-0.037872,1.009392,1.015485,0.001078,0.000523,0.001984,0.002318,94.586,1.650844,0.137913,MOVE,0,0,1.650844,1.000000,0.250000,1
3.752065,0.037912,-0.105399,-0.037149,1.008905,1.015075,0.000704,-0.000058,0.001581,0.001731,94.632,1.651639,0.137689,MOVE,0,0,1.651639,1.000000,0.250000,1
3.800411,0.048345,-0.104905,-0.037390,1.009149,1.015275,-0.001098,-0.000060,0.001808,0.002116,94.699,1.652803,0.137668,MOVE,0,0,1.652803,1.000000,0.250000,1
3.838373,0.037962,-0.105399,-0.038114,1.010611,1.016807,-0.000438,-0.001854,0.001398,0.002363,94.780,1.654226,0.139027,MOVE,0,0,1.654226,1.000000,0.250000,1
3.886740,0.048367,-0.105399,-0.037390,1.008905,1.015084,-0.000116,0.000300,0.001588,0.001621,94.855,1.655534,0.138701,MOVE,0,0,1.655534,1.000000,0.250000,1
3.931736,0.044996,-0.104905,-0.038596,1.010855,1.017016,-0.000696,0.000005,0.003326,0.003399,94.922,1.656702,0.140145,MOVE,0,0,1.656702,1.000000,0.250000,1
3.973534,0.041798,-0.105152,-0.041491,1.010611,1.016913,-0.000101,0.000335,0.000814,0.000886,94.973,1.657585,0.141352,MOVE,0,0,1.657585,1.000000,0.250000,1
4.019054,0.045520,-0.106386,-0.035701,1.009636,1.015853,0.000454,0.000633,0.000493,0.000923,95.025,1.658497,0.141485,MOVE,0,0,1.658497,1.000000,0.250000,1
4.060411,0.041357,-0.109842,-0.029188,1.011098,1.017466,-0.000805,-0.001785,0.002281,0.003006,95.073,1.659340,0.143056,MOVE,0,0,1.659340,1.000000,0.250000,1
4.101789,0.041378,-0.107374,-0.035460,1.008417,1.014738,-0.002896,-0.001151,0.003609,0.004769,95.110,1.659977,0.142014,MOVE,0,0,1.659977,1.000000,0.250000,1
4.146825,0.045036,-0.098241,-0.048969,1.007443,1.013405,0.001390,0.002184,-0.001600,0.003044,95.130,1.660340,0.139877,MOVE,0,0,1.660340,1.000000,0.250000,1
4.188214,0.041389,-0.104658,-0.038114,1.009880,1.016003,0.001031,0.000049,-0.000639,0.001215,95.146,1.660603,0.140293,MOVE,0,0,1.660603,1.000000,0.250000,1
4.233391,0.045177,-0.109348,-0.031118,1.008905,1.015290,-0.004740,-0.001711,0.000494,0.005064,95.149,1.660666,0.140025,MOVE,0,0,1.660666,1.000000,0.250000,1
4.281777,0.048386,-0.105152,-0.038355,1.009636,1.015821,0.000515,-0.000805,0.001670,0.001924,95.160,1.660853,0.140261,MOVE,0,0,1.660853,1.000000,0.250000,1
4.326704,0.044928,-0.107867,-0.033772,1.010123,1.016428,0.000189,0.002458,0.001908,0.003117,95.161,1.660877,0.141020,MOVE,0,0,1.660877,1.000000,0.250000,1
4.368044,0.041340,-0.108608,-0.034254,1.007930,1.014343,-0.001922,-0.001217,0.002704,0.003534,95.185,1.661288,0.139827,MOVE,0,0,1.661288,1.000000,0.250000,1
4.412984,0.044940,-0.100709,-0.047522,1.009636,1.015759,0.000240,0.000344,-0.000643,0.000768,95.207,1.661681,0.140027,MOVE,0,0,1.661681,1.000000,0.250000,1
4.454452,0.041468,-0.105399,-0.038837,1.009636,1.015865,0.000479,0.000633,-0.000576,0.000981,95.242,1.662284,0.140303,MOVE,0,0,1.662284,1.000000,0.250000,1
4.499748,0.045296,-0.107867,-0.031601,1.010367,1.016600,-0.001076,0.000321,0.000348,0.001176,95.277,1.662903,0.141213,MOVE,0,0,1.662903,1.000000,0.250000,1
4.548211,0.048463,-0.104658,-0.037149,1.011098,1.017179,-0.000722,0.002142,0.001793,0.002885,95.303,1.663359,0.142553,MOVE,0,0,1.663359,1.000000,0.250000,1
4.593247,0.045036,-0.105399,-0.037872,1.008174,1.014376,-0.003384,0.000289,0.002029,0.003956,95.350,1.664168,0.141235,MOVE,0,0,1.664168,1.000000,0.250000,1
4.634803,0.041555,-0.103424,-0.041732,1.010611,1.016746,0.001524,0.000315,0.000157,0.001564,95.387,1.664817,0.142183,MOVE,0,0,1.664817,1.000000,0.250000,1
4.679724,0.044921,-0.102684,-0.040285,1.010367,1.016370,0.000868,0.001791,-0.000121,0.001994,95.413,1.665274,0.142698,MOVE,0,0,1.665274,1.000000,0.250000,1
4.728414,0.048691,-0.102684,-0.039079,1.007686,1.013658,0.001145,0.005126,0.000525,0.005278,95.418,1.665358,0.140721,MOVE,0,0,1.665358,1.000000,0.250000,1
4.773447,0.045033,-0.109842,-0.032083,1.009149,1.015616,-0.002826,-0.003697,0.000775,0.004718,95.455,1.666012,0.140703,MOVE,0,0,1.666012,1.000000,0.250000,1
4.814930,0.041484,-0.106880,-0.036666,1.012317,1.018603,-0.003787,-0.001878,0.000081,0.004228,95.499,1.666770,0.143376,MOVE,0,0,1.666770,1.000000,0.250000,1
4.859833,0.044903,-0.102684,-0.040043,1.008417,1.014423,0.001971,0.001435,-0.001184,0.002711,95.503,1.666849,0.142019,MOVE,0,0,1.666849,1.000000,0.250000,1
4.901206,0.041373,-0.106633,-0.036666,1.010855,1.017124,-0.000474,0.001133,0.000621,0.001376,95.508,1.666931,0.143229,MOVE,0,0,1.666931,1.000000,0.250000,1
4.946506,0.045301,-0.105399,-0.036425,1.009392,1.015534,-0.000435,0.000812,-0.000035,0.000922,95.550,1.667655,0.142886,MOVE,0,0,1.667655,1.000000,0.250000,1
4.988372,0.041865,-0.103918,-0.039320,1.009880,1.015973,0.000488,0.001387,0.001193,0.001893,95.589,1.668335,0.142974,MOVE,0,0,1.668335,1.000000,0.250000,1
5.030218,0.041847,-0.107127,-0.035460,1.010855,1.017134,-0.001118,-0.000458,0.000548,0.001327,95.608,1.668672,0.144096,MOVE,0,0,1.668672,1.000000,0.250000,1
5.075156,0.044938,-0.104411,-0.040767,1.011829,1.018019,0.000435,0.002578,0.001432,0.002980,95.611,1.668727,0.145904,MOVE,0,0,1.668727,1.000000,0.250000,1
5.123613,0.048457,-0.104411,-0.037390,1.009636,1.015709,0.001634,0.000122,-0.000391,0.001685,95.600,1.668539,0.145451,MOVE,0,0,1.668539,1.000000,0.250000,1
5.168506,0.044893,-0.106386,-0.038114,1.008905,1.015214,0.000067,-0.000169,-0.001558,0.001568,95.610,1.668716,0.144599,MOVE,0,0,1.668716,1.000000,0.250000,1
5.210158,0.041652,-0.105646,-0.037390,1.010367,1.016563,-0.001739,0.000705,0.001482,0.002391,95.634,1.669135,0.145046,MOVE,0,0,1.669135,1.000000,0.250000,1
5.255207,0.045048,-0.105646,-0.035460,1.008905,1.015041,0.000139,-0.000836,0.000248,0.000883,95.651,1.669432,0.144078,MOVE,0,0,1.669432,1.000000,0.250000,1
5.303594,0.048388,-0.104658,-0.037390,1.010123,1.016219,0.000448,-0.000225,0.002568,0.002616,95.666,1.669684,0.144267,MOVE,0,0,1.669684,1.000000,0.250000,1
5.341613,0.038019,-0.103177,-0.041250,1.009636,1.015732,0.002523,-0.000199,-0.001118,0.002767,95.687,1.670047,0.143999,MOVE,0,0,1.670047,1.000000,0.250000,1
5.390046,0.048433,-0.107127,-0.035219,1.009880,1.016156,-0.001090,0.000052,0.002506,0.002733,95.733,1.670865,0.144140,MOVE,0,0,1.670865,1.000000,0.250000,1
5.435747,0.045701,-0.104411,-0.040285,1.008661,1.014851,0.000200,0.001280,-0.001472,0.001961,95.790,1.671846,0.143092,MOVE,0,0,1.671846,1.000000,0.250000,1
5.484918,0.049171,-0.106880,-0.035460,1.009149,1.015412,0.001962,-0.000260,0.000643,0.002081,95.828,1.672521,0.142654,MOVE,0,0,1.672521,1.000000,0.250000,1
5.529974,0.045056,-0.104658,-0.039079,1.009880,1.016040,0.000729,-0.001418,0.000686,0.001736,95.864,1.673144,0.142824,MOVE,0,0,1.673144,1.000000,0.250000,1
5.578342,0.048367,-0.105892,-0.037149,1.010123,1.016338,0.000092,0.000704,0.000071,0.000714,95.913,1.674006,0.143246,MOVE,0,0,1.674006,1.000000,0.250000,1
5.616515,0.038174,-0.105152,-0.037872,1.009636,1.015803,0.001659,-0.001417,-0.001453,0.002622,95.957,1.674766,0.143144,MOVE,0,0,1.674766,1.000000,0.250000,1
5.664941,0.048426,-0.103918,-0.039079,1.008661,1.014753,0.002798,0.001346,0.001271,0.003355,96.002,1.675553,0.142108,MOVE,0,0,1.675553,1.000000,0.250000,1
5.709986,0.045045,-0.104905,-0.038837,1.010855,1.017025,-0.000890,-0.001955,-0.000259,0.002163,96.030,1.676044,0.143220,MOVE,0,0,1.676044,1.000000,0.250000,1
5.751514,0.041528,-0.105399,-0.036425,1.009880,1.016018,0.000931,0.000770,-0.000561,0.001332,96.037,1.676154,0.143314,MOVE,0,0,1.676154,1.000000,0.250000,1
5.796402,0.044888,-0.104905,-0.039561,1.010611,1.016811,-0.001758,0.000477,0.000603,0.001919,96.036,1.676141,0.144112,MOVE,0,0,1.676141,1.000000,0.250000,1
5.844893,0.048491,-0.106633,-0.037149,1.009392,1.015689,0.001011,-0.000708,-0.002135,0.002466,96.049,1.676364,0.143821,MOVE,0,0,1.676364,1.000000,0.250000,1
5.882833,0.037941,-0.105646,-0.036908,1.011098,1.017272,-0.003299,-0.000389,-0.001850,0.003802,96.032,1.676083,0.144984,MOVE,0,0,1.676083,1.000000,0.250000,1
5.933593,0.050760,-0.110829,-0.044868,1.040098,1.046948,0.011528,-0.005476,0.001646,0.012869,96.046,1.676318,0.172739,MOVE,0,0,1.676318,1.000000,0.250000,1
5.986441,0.052848,-0.102684,-0.012544,1.016216,1.021468,-0.011634,-0.003479,0.001895,0.012290,96.085,1.677000,0.174786,MOVE,0,0,1.677000,1.000000,0.250000,1
6.037423,0.050982,-0.099722,-0.054758,1.008174,1.014573,-0.008719,-0.010979,0.000826,0.014045,96.056,1.676486,0.170422,MOVE,0,0,1.676486,1.000000,0.250000,1
6.080145,0.042722,-0.101696,-0.054035,1.022065,1.028532,0.013025,0.005081,0.000841,0.014006,96.116,1.677533,0.179059,MOVE,0,0,1.677533,1.000000,0.250000,1
6.124066,0.043921,-0.108114,-0.029430,1.018653,1.024797,0.007662,0.008026,0.000364,0.011101,96.169,1.678473,0.183470,MOVE,0,0,1.678473,1.000000,0.250000,1
6.174543,0.050477,-0.110829,-0.029188,1.000132,1.006677,-0.008129,-0.007407,0.001171,0.011060,96.173,1.678532,0.171133,MOVE,0,0,1.678532,1.000000,0.250000,1
6.217090,0.042546,-0.101449,-0.049934,1.013779,1.020065,-0.000700,-0.000015,0.001393,0.001559,96.187,1.678773,0.172078,MOVE,0,0,1.678773,1.000000,0.250000,1
6.266424,0.049334,-0.107374,-0.034737,1.010855,1.017135,0.002769,0.001439,0.001660,0.003535,96.201,1.679027,0.170291,MOVE,0,0,1.679027,1.000000,0.250000,1
6.309216,0.042792,-0.105399,-0.033772,1.003544,1.009628,-0.002893,-0.000365,0.000661,0.002990,96.204,1.679080,0.161928,MOVE,0,0,1.679080,1.000000,0.250000,1
6.352663,0.043446,-0.104411,-0.039802,1.008174,1.014347,0.001954,0.000579,0.000308,0.002061,96.211,1.679204,0.158647,MOVE,0,0,1.679204,1.000000,0.250000,1
6.403241,0.050579,-0.107867,-0.033772,1.016460,1.022725,0.001698,0.000906,0.000018,0.001924,96.205,1.679092,0.163235,MOVE,0,0,1.679092,1.000000,0.250000,1
6.446648,0.043407,-0.106880,-0.035219,1.007443,1.013708,0.000358,-0.000961,0.002354,0.002568,96.155,1.678224,0.159249,MOVE,0,0,1.678224,1.000000,0.250000,1
6.492502,0.045854,-0.100709,-0.046074,1.008174,1.014239,-0.000236,0.002690,-0.000425,0.002734,96.127,1.677738,0.156139,MOVE,0,0,1.677738,1.000000,0.250000,1
6.541836,0.049334,-0.107620,-0.036425,1.007930,1.014314,-0.001521,-0.000681,0.000792,0.001845,96.147,1.678077,0.153407,MOVE,0,0,1.678077,1.000000,0.250000,1
6.593252,0.051416,-0.106139,-0.037149,1.009880,1.016121,-0.001445,-0.001243,-0.000403,0.001948,96.181,1.678673,0.152576,MOVE,0,0,1.678673,1.000000,0.250000,1
6.639330,0.046077,-0.106386,-0.035460,1.007686,1.013907,-0.005417,-0.003058,-0.000693,0.006259,96.218,1.679327,0.149834,MOVE,0,0,1.679327,1.000000,0.250000,1
6.682280,0.042951,-0.106633,-0.035943,1.010611,1.016856,0.001603,0.001247,0.001354,0.002440,96.241,1.679723,0.150022,MOVE,0,0,1.679723,1.000000,0.250000,1
6.724981,0.042701,-0.106139,-0.036908,1.009149,1.015386,-0.002420,-0.001287,0.002839,0.003946,96.237,1.679657,0.148867,MOVE,0,0,1.679657,1.000000,0.250000,1
6.767441,0.042460,-0.103918,-0.041250,1.006468,1.012659,-0.004463,-0.000098,-0.000285,0.004474,96.273,1.680289,0.145373,MOVE,0,0,1.680289,1.000000,0.250000,1
6.810501,0.043060,-0.105646,-0.035701,1.009149,1.015291,-0.000418,-0.000078,0.001786,0.001836,96.312,1.680956,0.144598,MOVE,0,0,1.680956,1.000000,0.250000,1
6.853305,0.042804,-0.104411,-0.036908,1.009636,1.015691,0.000799,-0.000665,0.002369,0.002587,96.294,1.680649,0.144261,MOVE,0,0,1.680649,1.000000,0.250000,1
6.895583,0.042279,-0.104165,-0.037390,1.010123,1.016168,0.000764,0.000880,0.003778,0.003954,96.276,1.680330,0.144386,MOVE,0,0,1.680330,1.000000,0.250000,1
6.946575,0.050992,-0.105399,-0.037390,1.009636,1.015811,-0.002822,-0.002106,0.003586,0.005026,96.306,1.680864,0.144177,MOVE,0,0,1.680864,1.000000,0.250000,1
6.990503,0.043928,-0.106386,-0.037872,1.009636,1.015932,-0.003443,-0.003328,0.003984,0.006229,96.316,1.681027,0.144098,MOVE,0,0,1.681027,1.000000,0.250000,1
7.033353,0.042851,-0.105152,-0.038837,1.009636,1.015840,0.001773,-0.002037,0.002590,0.003742,96.326,1.681208,0.143944,MOVE,0,0,1.681208,1.000000,0.250000,1
7.083825,0.050472,-0.104905,-0.037872,1.007686,1.013840,-0.002449,-0.000775,0.002181,0.003370,96.332,1.681314,0.142005,MOVE,0,0,1.681314,1.000000,0.250000,1
7.133629,0.049804,-0.104905,-0.037631,1.008174,1.014315,0.000951,0.000209,0.004446,0.004551,96.346,1.681562,0.140689,MOVE,0,0,1.681562,1.000000,0.250000,1
7.179158,0.045530,-0.105152,-0.041491,1.011098,1.017398,0.010338,0.013036,-0.000865,0.016660,96.354,1.681694,0.142278,MOVE,0,0,1.681694,1.000000,0.250000,1
7.227886,0.048728,-0.101696,-0.030153,1.002813,1.008407,0.004069,0.002280,-0.000452,0.004686,96.339,1.681436,0.135616,MOVE,0,0,1.681436,1.000000,0.250000,1
7.274576,0.046689,-0.105152,-0.038355,1.007686,1.013884,0.000463,0.000510,0.003069,0.003145,96.298,1.680718,0.134550,MOVE,0,0,1.680718,1.000000,0.250000,1
7.316648,0.042072,-0.105646,-0.037872,1.008661,1.014886,-0.000251,-0.000116,0.003227,0.003239,96.267,1.680182,0.134492,MOVE,0,0,1.680182,1.000000,0.250000,1
7.365179,0.048531,-0.105892,-0.038114,1.010855,1.017100,0.002569,0.003554,0.001906,0.004781,96.228,1.679498,0.136433,MOVE,0,0,1.679498,1.000000,0.250000,1
7.403144,0.037965,-0.105646,-0.037631,1.011829,1.018025,-0.004394,-0.003694,0.002978,0.006467,96.191,1.678844,0.139013,MOVE,0,0,1.678844,1.000000,0.250000,1
7.451665,0.048521,-0.106880,-0.035460,1.008905,1.015170,0.001890,-0.000948,0.002870,0.003565,96.159,1.678293,0.138764,MOVE,0,0,1.678293,1.000000,0.250000,1
7.493467,0.041802,-0.104165,-0.037149,1.010123,1.016159,0.001111,-0.002077,0.003349,0.004094,96.124,1.677674,0.139431,MOVE,0,0,1.677674,1.000000,0.250000,1
7.531626,0.038158,-0.107867,-0.035701,1.011098,1.017462,-0.003739,-0.000232,0.002607,0.004564,96.087,1.677043,0.141204,MOVE,0,0,1.677043,1.000000,0.250000,1
7.580067,0.048441,-0.104658,-0.038837,1.007443,1.013609,0.002147,-0.000515,0.000696,0.002315,96.019,1.675840,0.139331,MOVE,0,0,1.675840,1.000000,0.250000,1
7.625287,0.045220,-0.106880,-0.037149,1.009636,1.015957,0.000359,-0.001395,0.001538,0.002107,95.881,1.673433,0.139759,MOVE,0,0,1.673433,1.000000,0.250000,1
7.666762,0.041476,-0.105399,-0.062719,1.021577,1.028913,0.138338,0.042167,0.007146,0.144798,95.830,1.672544,0.151805,MOVE,0,0,1.672544,1.000000,0.250000,1
7.711900,0.045138,-0.103177,-0.029912,1.054476,1.059934,-0.017000,-0.007546,0.000597,0.018610,95.771,1.671512,0.190566,MOVE,0,0,1.671512,1.000000,0.250000,1
7.760966,0.049066,-0.109101,-0.030394,1.011342,1.017664,0.008754,0.002845,0.005196,0.010570,95.726,1.670730,0.187406,MOVE,0,0,1.670730,1.000000,0.250000,1
7.798325,0.037359,-0.102190,-0.034495,1.053989,1.059493,-0.021495,-0.043524,-0.009621,0.049487,95.661,1.669596,0.222209,MOVE,0,0,1.669596,1.000000,0.250000,1
7.846846,0.048521,-0.029127,-0.003136,0.996476,0.996907,0.027374,0.028864,-0.020922,0.044946,95.588,1.668330,0.197205,MOVE,0,0,1.668330,1.000000,0.250000,1
7.891793,0.044947,-0.100462,0.023308,0.910451,0.916274,-0.095346,0.002009,-0.046686,0.106181,95.463,1.666140,0.102131,MOVE,0,0,1.666140,1.000000,0.250000,1
7.933325,0.041532,-0.057513,-0.086841,1.031081,1.036329,-0.234012,-0.089927,-0.037523,0.253489,95.247,1.662373,0.124614,MOVE,0,0,1.662373,1.000000,0.250000,1
7.978734,0.045409,-0.064177,-0.060548,1.025964,1.029751,0.024767,0.042959,-0.153790,0.161587,94.893,1.656193,0.138928,MOVE,0,0,1.656193,1.000000,0.250000,1
8.020616,0.041882,-0.105152,-0.055000,0.962602,0.969889,0.000627,0.074669,-0.006762,0.074978,94.743,1.653574,0.097936,MOVE,0,0,1.653574,1.000000,0.250000,1
8.062059,0.041443,-0.071829,-0.049210,1.000376,1.004157,0.099862,-0.007320,-0.000790,0.100133,94.646,1.651877,0.091884,MOVE,0,0,1.651877,1.000000,0.250000,1
8.106999,0.044940,-0.094785,-0.050416,0.990140,0.995944,-0.002417,0.094605,0.012136,0.095411,94.588,1.650865,0.079045,MOVE,0,0,1.650865,1.000000,0.250000,1
8.155509,0.048510,-0.103424,-0.042456,1.019871,1.025981,-0.127377,-0.086303,-0.021130,0.155304,94.475,1.648903,0.094523,MOVE,0,0,1.648903,1.000000,0.250000,1
8.193624,0.038116,-0.080468,-0.057171,1.016460,1.021241,-0.071380,-0.092332,-0.039288,0.123141,94.316,1.646117,0.104188,MOVE,0,0,1.646117,1.000000,0.250000,1
8.235270,0.041646,-0.105399,-0.053070,0.999157,1.006101,-0.104859,-0.094783,-0.038772,0.146569,94.149,1.643206,0.099260,MOVE,0,0,1.643206,1.000000,0.250000,1
8.278355,0.043085,-0.084418,-0.057894,1.016460,1.021601,-0.042809,-0.042544,-0.024675,0.065203,94.022,1.640993,0.108775,MOVE,0,0,1.640993,1.000000,0.250000,1
8.320016,0.041662,-0.077013,-0.068991,1.001107,1.006432,0.019659,-0.029343,0.002094,0.035382,93.932,1.639421,0.103686,MOVE,0,0,1.639421,1.000000,0.250000,1
8.364986,0.044970,-0.057760,-0.071885,1.031812,1.035925,0.079091,0.056286,0.027494,0.100893,93.965,1.639991,0.125650,MOVE,0,0,1.639991,1.000000,0.250000,1
8.413393,0.048406,-0.116013,-0.062478,1.078846,1.086863,0.330387,0.075239,0.108423,0.355770,94.133,1.642928,0.191262,MOVE,0,0,1.642928,1.000000,0.250000,1
8.458389,0.044997,-0.104658,-0.025811,1.054233,1.059729,0.080992,0.084785,0.039334,0.123674,94.184,1.643820,0.225892,MOVE,0,0,1.643820,1.000000,0.250000,1
8.500472,0.042083,-0.106139,-0.047280,0.996233,1.002986,0.086592,0.147917,0.018637,0.172409,94.220,1.644443,0.205990,MOVE,0,0,1.644443,1.000000,0.250000,1
8.542050,0.041578,-0.098487,-0.039320,1.026451,1.031915,-0.015326,-0.006880,0.003740,0.017210,94.279,1.645478,0.214114,MOVE,0,0,1.645478,1.000000,0.250000,1
8.587020,0.044970,-0.102190,-0.034254,1.003056,1.008830,-0.007466,-0.004550,0.007234,0.011348,94.326,1.646298,0.200650,MOVE,0,0,1.646298,1.000000,0.250000,1
8.629071,0.042051,-0.100709,-0.036908,1.010611,1.016287,-0.003262,0.004739,0.006295,0.008528,94.377,1.647181,0.195243,MOVE,0,0,1.647181,1.000000,0.250000,1
8.674065,0.044994,-0.103177,-0.040767,1.009880,1.015955,-0.004172,-0.006007,0.004075,0.008372,94.478,1.648954,0.190078,MOVE,0,0,1.648954,1.000000,0.250000,1
8.723044,0.048980,-0.102930,-0.039079,0.996720,1.002782,0.005021,-0.011554,0.003202,0.012998,94.508,1.649482,0.173574,MOVE,0,0,1.649482,1.000000,0.250000,1
8.765203,0.042159,-0.056279,-0.028706,1.022308,1.024258,0.021209,0.064194,0.009005,0.068204,94.503,1.649394,0.178050,MOVE,0,0,1.649394,1.000000,0.250000,1
8.803088,0.037884,-0.101696,-0.028223,1.047409,1.052713,-0.037705,-0.013462,0.001046,0.040050,94.419,1.647921,0.207686,MOVE,0,0,1.647921,1.000000,0.250000,1
8.851722,0.048634,-0.104411,-0.035460,0.999644,1.005708,-0.004406,-0.002236,0.005033,0.007053,94.416,1.647865,0.192055,MOVE,0,0,1.647865,1.000000,0.250000,1
8.896648,0.044926,-0.068127,-0.003377,1.018165,1.020448,-0.065028,0.017429,0.005781,0.067571,94.408,1.647731,0.191252,MOVE,0,0,1.647731,1.000000,0.250000,1
8.938344,0.041696,-0.104165,-0.042938,1.017922,1.024138,-0.079676,-0.139443,-0.066046,0.173651,94.284,1.645564,0.193851,MOVE,0,0,1.645564,1.000000,0.250000,1
8.983641,0.045298,-0.079234,-0.051381,1.012073,1.016469,-0.104463,-0.144907,-0.018090,0.179549,94.161,1.643415,0.189288,MOVE,0,0,1.643415,1.000000,0.250000,1
9.032318,0.048677,-0.065411,-0.048969,1.020115,1.023382,0.071968,0.126093,0.022747,0.146956,94.169,1.643562,0.191403,MOVE,0,0,1.643562,1.000000,0.250000,1
9.077329,0.045011,-0.109348,-0.041250,0.983561,0.990480,0.075218,0.085999,0.018822,0.115793,94.168,1.643534,0.163695,MOVE,0,0,1.643534,1.000000,0.250000,1
9.118911,0.041582,-0.096513,-0.041250,1.003300,1.008775,-0.012746,-0.006646,0.001143,0.014420,94.128,1.642848,0.155223,MOVE,0,0,1.642848,1.000000,0.250000,1
9.160392,0.041481,-0.095032,-0.047280,1.014997,1.020532,0.015676,0.020903,0.009339,0.027747,94.113,1.642581,0.158180,MOVE,0,0,1.642581,1.000000,0.250000,1
9.199613,0.039221,-0.103671,-0.037390,1.002813,1.008850,-0.007187,-0.009196,0.010632,0.015788,94.183,1.643806,0.150327,MOVE,0,0,1.643806,1.000000,0.250000,1
9.241196,0.041584,-0.126380,0.021366,0.836611,0.846373,-0.194418,-0.182987,-0.053815,0.272358,94.168,1.643534,-0.002970,MOVE,1,1,1.643534,0.960030,0.798546,1
9.282944,0.041748,-0.071582,-0.044144,1.008417,1.011918,0.022363,-0.016549,0.006249,0.028513,94.163,1.643463,0.008053,MOVE,0,1,1.643463,0.960030,0.798546,1
9.324504,0.041559,-0.036779,-0.110723,1.082258,1.088528,-0.003313,0.066973,0.008100,0.067543,94.167,1.643530,0.086923,MOVE,0,1,1.643530,0.960030,0.798546,1
9.369423,0.044919,-0.102930,-0.040526,1.027426,1.033364,0.003669,0.017763,0.007671,0.019693,94.178,1.643713,0.108259,MOVE,0,1,1.643713,0.960030,0.798546,1
9.410820,0.041396,-0.098734,-0.033289,1.009392,1.014756,-0.011533,-0.023892,0.001506,0.026573,94.223,1.644497,0.110713,MOVE,0,1,1.644497,0.960030,0.798546,1
9.455785,0.044965,-0.057760,-0.002895,1.173888,1.175311,-0.214646,-0.238306,-0.001243,0.320724,94.269,1.645309,0.257422,MOVE,0,1,1.645309,0.960030,0.798546,1
9.504814,0.049029,-0.143165,-0.034495,1.082989,1.092955,-0.115380,-0.267627,-0.030870,0.293070,94.239,1.644780,0.315339,MOVE,0,1,1.644780,0.960030,0.798546,1
9.546403,0.041589,-0.073557,-0.042938,1.031812,1.035322,0.008180,-0.157424,-0.010532,0.157988,94.199,1.644088,0.315595,MOVE,0,1,1.644088,0.960030,0.798546,1
9.584656,0.038254,-0.037025,-0.016162,1.056426,1.057198,-0.264877,-0.297312,-0.048711,0.401157,94.046,1.641413,0.335514,MOVE,0,1,1.641413,0.960030,0.798546,1
9.626608,0.041952,-0.020487,-0.066578,1.011342,1.013738,0.046359,-0.034029,0.020317,0.060991,93.922,1.639243,0.314327,MOVE,0,1,1.639243,0.960030,0.798546,1
9.668007,0.041398,0.092857,-0.034737,0.775687,0.781997,-0.069705,1.268030,0.131800,1.276765,93.898,1.638825,0.086691,MOVE,0,1,1.638825,0.960030,0.798546,1
9.713143,0.045136,0.048732,0.040061,0.977468,0.979502,-0.049852,0.150757,-0.000758,0.158788,93.593,1.633502,0.059574,MOVE,0,1,1.633502,0.960030,0.798546,1
9.762104,0.048962,-0.110089,-0.030636,0.997695,1.004218,0.015968,0.023756,-0.073443,0.078824,92.994,1.623047,0.057412,MOVE,0,1,1.623047,0.960030,0.798546,1
9.807659,0.045555,-0.105646,-0.035701,1.017922,1.024012,0.006982,0.007391,0.005743,0.011677,92.300,1.610934,0.073282,MOVE,0,1,1.610934,0.960030,0.798546,1
9.851087,0.043427,-0.103424,-0.044627,0.994771,1.001128,0.001686,-0.017005,0.003697,0.017484,91.516,1.597250,0.066968,MOVE,0,1,1.597250,0.960030,0.798546,1
9.893786,0.042700,-0.085405,-0.020263,1.052039,1.055695,-0.038093,0.009408,0.003619,0.039404,90.684,1.582731,0.110397,MOVE,0,1,1.582731,0.960030,0.798546,1
9.943652,0.049866,-0.104411,-0.031601,0.995745,1.001703,-0.021762,-0.014887,-0.003176,0.026557,89.893,1.568937,0.100890,MOVE,0,1,1.568937,0.960030,0.798546,1
9.985424,0.041772,-0.099968,-0.022675,1.013779,1.018948,-0.053417,0.023489,0.081371,0.100131,89.241,1.557543,0.107854,MOVE,0,1,1.557543,0.960030,0.798546,1
10.027571,0.042147,-0.111570,-0.017851,1.001838,1.008189,-0.021041,-0.016220,-0.000181,0.026568,88.567,1.545783,0.104439,MOVE,0,1,1.545783,0.960030,0.798546,1
10.065503,0.037932,-0.112310,-0.027741,0.999401,1.006074,-0.023788,-0.036680,-0.006290,0.044168,87.915,1.534400,0.099462,MOVE,0,1,1.534400,0.960030,0.798546,1
10.114083,0.048580,-0.067880,-0.054276,1.001594,1.005358,0.002792,0.053741,0.003179,0.053907,87.306,1.523781,0.094337,MOVE,0,1,1.523781,0.960030,0.798546,1
10.159081,0.044998,-0.099228,-0.038114,1.005981,1.011581,-0.005453,0.006704,0.001957,0.008861,86.716,1.513485,0.095326,MOVE,0,1,1.513485,0.960030,0.798546,1
10.200632,0.041551,-0.105152,-0.033530,1.008417,1.014439,-0.005453,-0.002763,0.002262,0.006518,86.126,1.503175,0.098789,MOVE,0,1,1.503175,0.960030,0.798546,1
10.242196,0.041564,-0.105399,-0.037872,1.007199,1.013407,-0.002704,-0.003984,0.002566,0.005456,85.562,1.493340,0.100976,MOVE,0,1,1.493340,0.960030,0.798546,1
10.280412,0.038216,-0.103177,-0.037390,1.010367,1.016310,0.000657,-0.000623,0.002566,0.002721,85.030,1.484058,0.105557,MOVE,0,1,1.484058,0.960030,0.798546,1
10.328918,0.048506,-0.101696,-0.042697,1.008417,1.014431,0.000657,0.004264,-0.074092,0.074217,84.481,1.474471,0.107990,MOVE,0,1,1.474471,0.960030,0.798546,1
10.373809,0.044891,-0.104905,-0.040767,1.013048,1.019281,0.006460,-0.004899,0.000739,0.008141,84.022,1.466465,0.114543,MOVE,0,1,1.466465,0.960030,0.798546,1
10.415204,0.041395,-0.091082,-0.036425,1.026695,1.031370,-0.019499,-0.025356,-0.006285,0.032598,83.581,1.458762,0.131322,MOVE,0,1,1.458762,0.960030,0.798546,1
10.460179,0.044975,-0.100215,-0.042938,1.027670,1.033437,-0.001171,-0.007331,0.007460,0.010524,83.220,1.452460,0.148283,MOVE,0,1,1.452460,0.960030,0.798546,1
10.502074,0.041895,-0.092070,-0.036184,1.018165,1.022960,-0.032322,0.017406,0.002571,0.036800,82.907,1.447001,0.154119,MOVE,0,1,1.447001,0.960030,0.798546,1
10.543598,0.041524,-0.114779,-0.039561,1.008417,1.015699,-0.148065,-0.123090,-0.024611,0.194114,82.547,1.440713,0.152836,MOVE,0,1,1.440713,0.960030,0.798546,1
10.588500,0.044902,-0.070101,-0.049451,1.001350,1.005019,-0.177386,-0.198227,-0.036217,0.268461,82.147,1.433739,0.142069,MOVE,0,1,1.433739,0.960030,0.798546,1
10.630461,0.041962,-0.068373,-0.071162,1.058132,1.062724,0.057186,-0.068723,-0.077145,0.118087,81.646,1.424989,0.184314,MOVE,0,1,1.424989,0.960030,0.798546,1
10.675345,0.044884,-0.100956,-0.051864,1.021821,1.028105,-0.044519,0.051918,-0.058203,0.089806,81.153,1.416385,0.191177,MOVE,0,1,1.416385,0.960030,0.798546,1
10.724181,0.048836,-0.067386,-0.115065,1.057644,1.066017,-0.152337,-0.022607,-0.084776,0.175797,80.328,1.401986,0.231474,MOVE,0,1,1.401986,0.960030,0.798546,1
10.769169,0.044988,-0.093798,-0.180196,1.082258,1.101159,0.278017,0.285880,-0.622643,0.739395,78.760,1.374621,0.299370,MOVE,0,1,1.374621,0.960030,0.798546,1
10.810439,0.041269,-0.154272,-0.025087,0.970888,0.983389,0.153401,0.439512,-0.355084,0.585480,77.735,1.356729,0.254483,MOVE,0,1,1.356729,0.960030,0.798546,1
10.855309,0.044870,-0.104658,-0.065855,1.155367,1.161965,0.185471,0.040312,-0.078667,0.205459,77.195,1.347306,0.374803,MOVE,0,1,1.347306,0.960030,0.798546,1
10.896577,0.041269,-0.087873,-0.076951,1.098098,1.104293,0.245642,-0.487476,-0.163578,0.569851,76.612,1.337137,0.431186,MOVE,0,1,1.337137,0.960030,0.798546,1
10.941468,0.044891,-0.083924,0.016995,1.174619,1.177736,0.204103,-0.269397,-0.047208,0.341264,76.349,1.332543,0.548029,MOVE,0,1,1.332543,0.960030,0.798546,1
10.990487,0.049018,-0.064671,-0.122302,1.173888,1.182012,0.070934,-0.806958,-0.088441,0.814884,75.964,1.325821,0.657037,MOVE,0,1,1.325821,0.960030,0.798546,1
11.035418,0.044931,-0.015797,0.055357,1.075190,1.076730,-0.115380,-0.217168,0.424075,0.490218,76.287,1.331458,0.660391,MOVE,0,1,1.331458,0.960030,0.798546,1
11.076707,0.041289,0.012850,-0.098661,1.182173,1.186353,0.028784,-0.583076,0.071605,0.588161,75.983,1.326156,0.762069,MOVE,0,1,1.326156,0.960030,0.798546,1
11.121544,0.044837,-0.035051,-0.136051,1.060812,1.070075,0.031533,-0.515881,-0.166632,0.543041,74.899,1.307231,0.748930,MOVE,0,1,1.307231,0.960030,0.798546,1
11.162873,0.041329,0.031518,-0.033289,1.110283,1.111229,-0.075368,-0.627364,0.030677,0.632619,74.246,1.295837,0.774143,MOVE,0,1,1.295837,0.960030,0.798546,1
11.208493,0.045619,0.058187,0.010197,1.011586,1.013309,-0.104690,-0.500609,-0.129064,0.527472,73.297,1.279266,0.708707,MOVE,0,1,1.279266,0.960030,0.798546,1
11.250273,0.041780,0.091645,-0.035701,1.065443,1.069973,-0.143174,-0.183570,-0.257346,0.347021,72.000,1.256635,0.700812,MOVE,0,1,1.256635,0.960030,0.798546,1
11.291758,0.041485,0.151286,0.020152,1.014754,1.026167,-0.119350,-0.625837,0.109479,0.646453,71.403,1.246215,0.654281,MOVE,0,1,1.246215,0.960030,0.798546,1
11.336756,0.044998,0.221838,-0.073574,1.010855,1.037522,-0.002981,-0.451435,0.040451,0.453253,70.705,1.234043,0.622623,MOVE,0,1,1.234043,0.960030,0.798546,1
11.385155,0.048399,0.117101,-0.065855,0.986485,0.995591,-0.396072,-0.353085,0.026401,0.531262,69.937,1.220632,0.556392,MOVE,0,1,1.220632,0.960030,0.798546,1
11.423106,0.037951,0.169712,-0.087806,1.074703,1.091558,-0.411344,-0.325597,-0.076835,0.530208,68.987,1.204044,0.583155,MOVE,0,1,1.204044,0.960030,0.798546,1
11.471914,0.048808,0.110313,-0.010131,0.985754,0.991959,-0.500225,-0.582771,-0.208782,0.795887,67.844,1.184107,0.517603,MOVE,0,1,1.184107,0.960030,0.798546,1
11.513495,0.041581,0.131891,-0.102039,1.046922,1.060119,-0.097665,-0.582160,-0.457709,0.746958,66.231,1.155955,0.519949,MOVE,0,1,1.155955,0.960030,0.798546,1
11.551439,0.037944,0.144255,-0.071403,0.969182,0.982457,-0.398516,-0.356140,-0.403037,0.669395,64.451,1.124888,0.452166,MOVE,0,1,1.124888,0.960030,0.798546,1
11.600605,0.049165,0.216989,-0.039079,0.952611,0.977793,0.091093,-0.144170,-0.572247,0.597117,62.377,1.088691,0.386963,MOVE,0,1,1.088691,0.960030,0.798546,1
11.644685,0.044080,0.283662,0.045159,0.992577,1.033302,-0.097359,0.349104,-0.566138,0.672209,59.923,1.045860,0.378238,MOVE,0,1,1.045860,0.960030,0.798546,1
11.687995,0.043310,0.179652,0.008012,0.761796,0.782734,0.492431,0.254115,-0.725574,0.912973,57.725,1.007490,0.144875,MOVE,0,1,1.007490,0.960030,0.798546,1
11.731851,0.043855,0.138679,0.083521,0.924830,0.938892,0.084373,0.624604,0.402694,0.747939,57.994,1.012184,0.075390,MOVE,0,1,1.012184,0.960030,0.798546,1
11.780621,0.048770,0.112495,-0.104451,0.874628,0.887997,0.128050,0.040006,0.138190,0.192597,57.874,1.010100,-0.032951,MOVE,1,2,1.010100,1.252506,1.264333,1
11.824016,0.043395,0.219171,-0.060065,0.944813,0.971759,0.161648,0.055889,0.190724,0.256182,57.728,1.007548,-0.055073,MOVE,0,2,1.007548,1.252506,1.264333,1
11.866880,0.042864,0.216262,-0.003860,0.899485,0.925126,0.034588,-0.547646,0.004105,0.548753,57.351,1.000961,-0.116953,MOVE,0,2,1.000961,1.252506,1.264333,1
11.909834,0.042954,0.193714,0.049287,0.790796,0.815667,0.005266,-0.075447,0.260668,0.271418,57.374,1.001367,-0.271157,MOVE,0,2,1.001367,1.252506,1.264333,1
11.953104,0.043270,0.129951,0.129166,0.852208,0.871682,-0.107439,1.025943,0.610083,1.198459,58.175,1.015352,-0.359528,MOVE,0,2,1.015352,1.252506,1.264333,1
12.003934,0.050830,0.059884,-0.101074,0.931166,0.938548,-0.374998,0.104147,0.420104,0.572675,58.833,1.026821,-0.378882,MOVE,0,2,1.026821,1.252506,1.264333,1
12.046758,0.042824,0.057702,-0.224581,0.980392,1.007440,-0.365224,-1.387891,-0.185874,1.447128,58.339,1.018203,-0.334298,MOVE,0,2,1.018203,1.252506,1.264333,1
12.089288,0.042530,0.219656,-0.281993,1.007930,1.069435,-0.523132,-0.092551,-0.425944,0.680927,57.063,0.995933,-0.238376,MOVE,0,2,0.995933,1.252506,1.264333,1
12.132625,0.043337,0.084856,-0.187915,0.922636,0.945394,0.531221,-0.223887,-0.258873,0.631931,56.204,0.980938,-0.263684,MOVE,0,2,0.980938,1.252506,1.264333,1
12.175699,0.043074,0.223535,-0.148836,0.997207,1.032736,0.796947,0.174091,-0.584769,1.003687,54.563,0.952307,-0.207853,MOVE,0,2,0.952307,1.252506,1.264333,1
12.221189,0.045491,0.186683,-0.067061,0.993796,1.013399,0.512284,0.814278,-0.444576,1.059779,53.070,0.926244,-0.175009,MOVE,0,2,0.926244,1.252506,1.264333,1
12.271399,0.050209,0.203412,-0.123749,0.992577,1.020735,0.406910,0.534196,-0.307742,0.738679,52.212,0.911271,-0.138846,MOVE,0,2,0.911271,1.252506,1.264333,1
12.314371,0.042973,0.157832,-0.114824,0.959435,0.979086,-0.042076,0.653315,-0.189845,0.681639,51.581,0.900252,-0.143784,MOVE,0,2,0.900252,1.252506,1.264333,1
12.357876,0.043505,0.146437,-0.040285,1.070073,1.080797,-0.484648,0.613609,-0.004753,0.781935,51.459,0.898134,-0.056688,MOVE,0,2,0.898134,1.252506,1.264333,1
12.401044,0.043168,0.032003,-0.020263,1.115157,1.115800,-0.436084,0.169204,0.202941,0.509887,51.972,0.907090,0.053201,MOVE,0,2,0.907090,1.252506,1.264333,1
12.444245,0.043201,0.162681,0.009226,1.099073,1.111086,-0.128819,0.136523,0.194389,0.270222,52.585,0.917784,0.147858,MOVE,0,2,0.917784,1.252506,1.264333,1
12.494959,0.050713,0.013819,-0.027741,1.053745,1.054201,-0.218311,0.113005,0.184310,0.307245,53.155,0.927738,0.181853,MOVE,0,2,0.927738,1.252506,1.264333,1
12.538338,0.043379,0.033215,-0.092631,1.105409,1.109780,-0.121488,0.056805,0.184615,0.228187,53.752,0.938157,0.262470,MOVE,0,2,0.938157,1.252506,1.264333,1
12.581493,0.043155,0.028124,-0.044627,1.025476,1.026832,-0.070471,0.089782,0.030663,0.118183,54.074,0.943772,0.260372,MOVE,0,2,0.943772,1.252506,1.264333,1
12.622361,0.040869,0.007273,-0.036666,1.035955,1.036630,-0.059764,-0.050411,0.093263,0.121700,54.582,0.952630,0.267301,MOVE,0,2,0.952630,1.252506,1.264333,1
12.665866,0.043504,0.094796,-0.021952,1.004275,1.008978,0.030339,0.033897,0.032474,0.055893,54.825,0.956877,0.248651,MOVE,0,2,0.956877,1.252506,1.264333,1
12.709474,0.043608,0.046792,-0.038596,1.006468,1.008294,-0.020974,0.370483,-0.210345,0.426548,54.586,0.952707,0.231251,MOVE,0,2,0.952707,1.252506,1.264333,1
12.752566,0.043092,-0.014563,-0.074539,1.044241,1.046999,0.053853,0.086118,-0.047545,0.112147,54.688,0.954478,0.250425,MOVE,0,2,0.954478,1.252506,1.264333,1
12.795331,0.042765,0.042186,-0.045592,1.009636,1.011545,-0.021594,0.021976,-0.080519,0.086212,54.797,0.956388,0.235773,MOVE,0,2,0.956388,1.252506,1.264333,1
12.838697,0.043366,0.035397,-0.052828,1.014997,1.016988,0.029414,0.058619,-0.100357,0.119887,54.794,0.956340,0.227484,MOVE,0,2,0.956340,1.252506,1.264333,1
12.881845,0.043148,0.122920,-0.231577,1.089325,1.120431,0.466793,0.049150,-1.130887,1.224425,53.021,0.925385,0.313124,MOVE,0,2,0.925385,1.252506,1.264333,1
12.925022,0.043177,-0.046652,0.058756,0.849527,0.852834,0.311939,-0.398309,-0.393878,0.641167,52.456,0.915536,0.149362,MOVE,0,2,0.915536,1.252506,1.264333,1
12.968425,0.043402,-0.037519,0.132322,1.053258,1.062200,-0.636735,-0.183590,0.036477,0.663677,53.068,0.926207,0.190405,MOVE,0,2,0.926207,1.252506,1.264333,1
13.013159,0.044734,-0.006171,-0.031118,0.882914,0.883483,-1.008141,-0.289269,0.101839,1.053753,53.718,0.937556,0.066500,MOVE,0,2,0.937556,1.252506,1.264333,1
13.060271,0.047112,0.098675,-0.128091,1.068123,1.080292,-0.014263,-0.274914,0.219736,0.352229,54.584,0.952679,0.132113,MOVE,0,2,0.952679,1.252506,1.264333,1
13.103710,0.043439,0.086068,-0.077675,1.006955,1.013608,-0.018238,-0.111498,0.096945,0.148871,55.088,0.961461,0.131149,MOVE,0,2,0.961461,1.252506,1.264333,1
13.147603,0.043893,0.056490,-0.049451,1.054233,1.056903,0.089258,-0.072081,0.044087,0.122908,55.432,0.967476,0.169246,MOVE,0,2,0.967476,1.252506,1.264333,1
13.191110,0.043507,0.047035,-0.081776,1.034981,1.039271,0.159182,-0.153927,0.079813,0.235377,55.821,0.974261,0.187665,MOVE,0,2,0.974261,1.252506,1.264333,1
13.235422,0.044312,0.062793,0.005827,1.022065,1.024008,-0.023165,-0.191174,0.022391,0.193870,56.002,0.977412,0.190506,MOVE,0,2,0.977412,1.252506,1.264333,1
13.279105,0.043682,0.114677,-0.092872,1.020115,1.030733,0.026628,0.004926,0.022695,0.035332,56.218,0.981196,0.199115,MOVE,0,2,0.981196,1.252506,1.264333,1
13.329750,0.050645,0.095281,-0.095043,1.021090,1.029920,0.028446,-0.132200,0.171122,0.218103,56.663,0.988955,0.206132,MOVE,0,2,0.988955,1.252506,1.264333,1
13.373232,0.043482,0.146437,-0.030153,1.014510,1.025468,-0.208876,0.013185,0.142717,0.253320,57.017,0.995127,0.208440,MOVE,0,2,0.995127,1.252506,1.264333,1
13.416707,0.043475,0.070309,-0.118683,1.022796,1.032056,-0.148400,-0.070809,0.231292,0.283782,57.568,1.004757,0.216446,MOVE,0,2,1.004757,1.252506,1.264333,1
13.463938,0.047231,0.107161,-0.091666,0.978443,0.988553,-0.187790,-0.012468,0.118574,0.222442,57.868,1.009992,0.184499,MOVE,0,2,1.009992,1.252506,1.264333,1
13.507872,0.043934,0.080977,-0.100109,0.994771,1.003069,-0.251015,-0.123951,0.141481,0.313671,58.303,1.017571,0.168811,MOVE,0,2,1.017571,1.252506,1.264333,1
13.551551,0.043679,0.078795,-0.149560,1.006468,1.020566,0.005553,-0.012772,0.179035,0.179576,58.732,1.025061,0.170440,MOVE,0,2,1.025061,1.252506,1.264333,1
13.595095,0.043544,0.078795,-0.110723,0.993065,1.002320,-0.033846,-0.106217,0.142358,0.180813,59.138,1.032161,0.155484,MOVE,0,2,1.032161,1.252506,1.264333,1
13.639248,0.044152,0.103767,-0.114824,1.021090,1.032752,0.059922,-0.098886,0.215357,0.244433,59.610,1.040393,0.169412,MOVE,0,2,1.040393,1.252506,1.264333,1
13.682332,0.043084,0.127284,-0.085635,1.006224,1.017852,-0.001478,0.008638,0.036050,0.037100,59.643,1.040961,0.168537,MOVE,0,2,1.040961,1.252506,1.264333,1
13.725843,0.043512,0.061339,-0.109034,1.031081,1.038643,0.105411,-0.104983,0.122781,0.192894,59.816,1.043987,0.186462,MOVE,0,2,1.043987,1.252506,1.264333,1
13.776672,0.050828,0.131891,-0.058859,1.004275,1.014607,-0.077238,0.127447,-0.112086,0.186472,59.481,1.038139,0.180962,MOVE,0,2,1.038139,1.252506,1.264333,1
13.820226,0.043554,0.039276,-0.101074,1.011342,1.017139,-0.030189,-0.094906,-0.017695,0.101152,59.388,1.036515,0.178291,MOVE,0,2,1.036515,1.252506,1.264333,1
13.871106,0.050880,0.149347,-0.066820,1.092493,1.104676,0.086486,0.182121,-0.156667,0.255328,58.793,1.026124,0.254671,MOVE,0,2,1.026124,1.252506,1.264333,1
13.922318,0.051212,0.085341,-0.026052,1.020846,1.024738,-0.105927,0.098424,-0.116646,0.185780,58.439,1.019945,0.251468,MOVE,0,2,1.019945,1.252506,1.264333,1
13.966035,0.043718,0.110313,-0.016403,1.032787,1.038791,-0.129423,0.005871,0.026599,0.132258,58.382,1.018957,0.261233,MOVE,0,2,1.018957,1.252506,1.264333,1
14.016816,0.050780,0.135770,0.039575,1.046191,1.055706,-0.423249,0.059321,-0.036931,0.428979,58.300,1.017523,0.285245,MOVE,0,2,1.017523,1.252506,1.264333,1
14.060348,0.043532,0.139164,-0.050175,1.024745,1.035368,-0.404007,-0.083010,0.157629,0.441542,58.687,1.024284,0.288552,MOVE,0,2,1.024284,1.252506,1.264333,1
14.107142,0.046794,0.058672,-0.007478,0.993552,0.995311,-0.496858,-0.100114,0.051644,0.509469,58.863,1.027352,0.255477,MOVE,0,2,1.027352,1.252506,1.264333,1
14.154917,0.047775,0.062793,-0.110481,0.976737,0.984969,-0.437910,-0.270546,0.307902,0.599803,59.737,1.042606,0.216401,MOVE,0,2,1.042606,1.252506,1.264333,1
14.207871,0.052955,0.070552,-0.066337,0.994283,0.998988,-0.057341,-0.216179,0.186340,0.291108,60.158,1.049963,0.193850,MOVE,0,2,1.049963,1.252506,1.264333,1
14.248911,0.041040,0.102797,-0.040043,1.024502,1.030424,0.066960,0.037645,0.018035,0.078906,60.110,1.049116,0.201847,MOVE,0,2,1.049116,1.252506,1.264333,1
14.291340,0.042429,0.039276,-0.045833,0.986241,0.988086,0.130466,0.000380,-0.070531,0.148311,59.930,1.045967,0.170940,MOVE,0,2,1.045967,1.252506,1.264333,1
14.340052,0.048712,0.025699,-0.093354,0.938964,0.943943,0.359541,0.064826,-0.027771,0.366392,59.735,1.042575,0.103395,MOVE,0,2,1.042575,1.252506,1.264333,1
14.385011,0.044959,0.110555,-0.102280,0.895586,0.908162,0.533026,0.244726,-0.102602,0.595428,59.289,1.034794,0.010401,MOVE,1,3,1.034794,1.533393,1.737199,1
14.426460,0.041449,0.136982,-0.047522,0.994527,1.005040,0.667722,0.523281,-0.028687,0.848822,58.805,1.026344,0.013897,MOVE,0,3,1.026344,1.533393,1.737199,1
14.471510,0.045050,0.016001,-0.073574,0.991115,0.993971,0.701320,0.388585,-0.069615,0.804794,58.428,1.019761,0.007081,MOVE,0,3,1.019761,1.533393,1.737199,1
14.513240,0.041730,0.052611,-0.083464,1.088107,1.092570,0.607552,0.295733,0.089210,0.681569,58.314,1.017774,0.089687,MOVE,0,3,1.017774,1.533393,1.737199,1
14.554844,0.041604,0.072976,-0.060548,1.062031,1.066256,0.529361,0.193108,0.044617,0.565247,58.079,1.013672,0.140348,MOVE,0,3,1.013672,1.533393,1.737199,1
14.599733,0.044889,0.063278,-0.063925,1.035224,1.039124,0.069990,0.081625,0.012852,0.108289,57.788,1.008589,0.161525,MOVE,0,3,1.008589,1.533393,1.737199,1
14.641452,0.041719,0.077098,-0.178990,1.110770,1.127737,0.064797,0.173551,0.045530,0.190765,57.537,1.004203,0.260336,MOVE,0,3,1.004203,1.533393,1.737199,1
14.682854,0.041402,0.027881,-0.191775,1.192165,1.207813,0.320749,0.335124,-0.043351,0.465905,57.184,0.998045,0.421335,MOVE,0,3,0.998045,1.533393,1.737199,1
14.721091,0.038237,0.071037,-0.032565,1.063980,1.066846,0.564790,0.134761,0.013154,0.580793,56.905,0.993175,0.439363,MOVE,0,3,0.993175,1.533393,1.737199,1
14.769762,0.048671,0.068612,-0.143771,0.921174,0.934847,-0.012478,-0.113556,-0.099551,0.151529,56.509,0.986276,0.336789,MOVE,0,3,0.986276,1.533393,1.737199,1
14.814626,0.044864,0.052853,-0.111446,1.018897,1.026335,0.133824,-0.016429,-0.033883,0.139021,56.245,0.981655,0.326812,MOVE,0,3,0.981655,1.533393,1.737199,1
14.856055,0.041428,0.039761,-0.074539,0.947981,0.951738,-0.411984,-0.162731,-0.156056,0.469644,55.786,0.973648,0.250694,MOVE,0,3,0.973648,1.533393,1.737199,1
14.900898,0.044843,0.099645,-0.207695,0.886325,0.915773,-0.216812,-0.166091,-0.072062,0.282465,55.536,0.969290,0.149820,MOVE,0,3,0.969290,1.533393,1.737199,1
14.942496,0.041598,0.092372,-0.213726,0.920443,0.949435,-0.061336,0.068779,-0.155417,0.180685,55.116,0.961947,0.089330,MOVE,0,3,0.961947,1.533393,1.737199,1
14.988168,0.045672,0.056005,-0.158244,0.963334,0.977849,0.348249,0.103293,-0.125179,0.384209,54.882,0.957865,0.060461,MOVE,0,3,0.957865,1.533393,1.737199,1
15.029628,0.041460,0.078310,-0.055964,1.010123,1.014699,0.389483,-0.002997,-0.099217,0.401933,54.701,0.954707,0.067644,MOVE,0,3,0.954707,1.533393,1.737199,1
15.071088,0.041461,0.069582,-0.017851,0.965527,0.968195,0.005859,-0.163044,-0.215892,0.270605,54.234,0.946568,0.032256,MOVE,1,4,0.946568,1.854852,2.183477,1
15.115981,0.044893,0.034912,-0.080087,0.993065,0.996900,-0.142886,-0.208248,-0.042101,0.256040,54.067,0.943648,0.026240,MOVE,0,4,0.943648,1.854852,2.183477,1
15.164416,0.048435,0.092372,-0.069473,1.022796,1.029306,-0.152966,-0.031708,0.043726,0.162221,54.160,0.945275,0.049991,MOVE,0,4,0.945275,1.854852,2.183477,1
15.203738,0.039322,-0.025918,0.047587,0.997939,0.999409,-0.207333,-0.337751,0.045253,0.398887,54.269,0.947165,0.044460,MOVE,0,4,0.947165,1.854852,2.183477,1
15.245311,0.041573,0.094311,-0.083464,1.097854,1.105054,-0.293159,-0.243678,0.196747,0.428988,54.737,0.955335,0.134563,MOVE,0,4,0.955335,1.854852,2.183477,1
15.293808,0.048496,0.030791,-0.008925,1.054476,1.054963,0.002194,-0.296213,0.221182,0.369687,55.230,0.963952,0.170574,MOVE,0,4,0.963952,1.854852,2.183477,1
15.338815,0.045007,0.117101,-0.049693,1.068611,1.076156,-0.147150,-0.068354,0.046471,0.168775,55.261,0.964478,0.222056,MOVE,0,4,0.964478,1.854852,2.183477,1
15.380162,0.041347,0.061096,-0.123749,1.056913,1.065886,0.095675,0.199809,-0.070810,0.232575,54.990,0.959763,0.259148,MOVE,0,4,0.959763,1.854852,2.183477,1
15.425006,0.044844,0.052368,-0.061754,1.026695,1.029883,-0.041462,0.040058,-0.100728,0.116060,54.692,0.954552,0.260127,MOVE,0,4,0.954552,1.854852,2.183477,1
15.466569,0.041563,0.017941,-0.051381,1.062762,1.064154,0.009251,0.009816,-0.155696,0.156279,54.307,0.947828,0.291854,MOVE,0,4,0.947828,1.854852,2.183477,1
15.511736,0.045167,0.048247,-0.093354,1.034006,1.039332,0.044668,-0.190526,0.097816,0.218777,54.592,0.952814,0.298067,MOVE,0,4,0.952814,1.854852,2.183477,1
15.560153,0.048418,0.191290,-0.010855,1.000863,1.019037,-0.218004,0.040992,-0.025273,0.223260,54.472,0.950709,0.285394,MOVE,0,4,0.950709,1.854852,2.183477,1
15.605019,0.044866,0.061339,-0.076951,0.960653,0.965680,-0.383854,0.294501,-0.200897,0.523865,54.019,0.942816,0.225966,MOVE,0,4,0.942816,1.854852,2.183477,1
15.646580,0.041560,0.077825,-0.090701,0.999644,1.006763,-0.173091,0.038850,-0.046344,0.183351,53.945,0.941526,0.209457,MOVE,0,4,0.941526,1.854852,2.183477,1
15.691427,0.044847,0.063036,-0.142806,0.972838,0.985282,-0.156264,-0.003913,-0.028925,0.158967,54.085,0.943959,0.175265,MOVE,0,4,0.943959,1.854852,2.183477,1
15.732948,0.041521,-0.001481,-0.115065,0.996476,1.003099,-0.070132,-0.312705,0.507109,0.599885,55.311,0.965361,0.160527,MOVE,0,4,0.965361,1.854852,2.183477,1
15.774634,0.041686,0.147165,-0.051864,1.063737,1.075120,0.103659,-0.040870,0.429224,0.443451,56.498,0.986075,0.212083,MOVE,0,4,0.986075,1.854852,2.183477,1
15.819494,0.044860,0.066188,-0.007478,1.038880,1.041013,-0.113809,0.104516,0.358974,0.390818,57.331,1.000617,0.227786,MOVE,0,4,1.000617,1.854852,2.183477,1
15.860862,0.041368,-0.006911,-0.132192,0.965283,0.974317,-0.067689,0.015329,0.502833,0.507600,58.588,1.022557,0.181893,MOVE,0,4,1.022557,1.854852,2.183477,1
15.905700,0.044839,0.008970,-0.168376,0.967476,0.982060,0.001339,-0.228100,0.591408,0.633873,60.031,1.047732,0.147557,MOVE,0,4,1.047732,1.854852,2.183477,1
15.947215,0.041514,0.097221,-0.152696,1.024502,1.040371,0.115876,-0.118145,0.646692,0.667530,61.631,1.075672,0.169135,MOVE,0,4,1.075672,1.854852,2.183477,1
15.992954,0.045740,0.128254,-0.132674,1.013291,1.029957,0.186737,0.111235,0.530627,0.573419,62.697,1.094271,0.179183,MOVE,0,4,1.094271,1.854852,2.183477,1
16.034638,0.041683,0.051883,-0.106622,1.010123,1.017059,0.172381,0.036404,0.592325,0.617972,63.872,1.114773,0.176618,MOVE,0,4,1.114773,1.854852,2.183477,1
16.076129,0.041491,0.063278,-0.096008,0.981611,0.988323,0.071283,-0.045146,0.679373,0.684593,65.351,1.140590,0.148447,MOVE,0,4,1.140590,1.854852,2.183477,1
16.121020,0.044892,0.124132,-0.018092,1.031812,1.039410,-0.047530,-0.082104,0.729769,0.735910,67.052,1.170283,0.169071,MOVE,0,4,1.170283,1.854852,2.183477,1
16.169471,0.048451,0.112980,-0.100591,0.986729,0.998257,-0.217656,0.032128,0.738016,0.770113,68.497,1.195491,0.150595,MOVE,0,4,1.195491,1.854852,2.183477,1
16.212299,0.042828,0.090432,-0.065855,1.054720,1.060636,0.025468,-0.015519,0.763062,0.763644,70.084,1.223205,0.190108,MOVE,0,4,1.223205,1.854852,2.183477,1
16.258159,0.045860,0.076370,-0.046315,0.961872,0.966009,0.019360,-0.108676,0.729464,0.737769,71.775,1.252708,0.140506,MOVE,0,4,1.252708,1.854852,2.183477,1
16.306965,0.048807,0.065218,-0.024846,0.961628,0.964157,0.078614,-0.169152,0.734962,0.758262,72.917,1.272639,0.094196,MOVE,0,4,1.272639,1.854852,2.183477,1
16.345053,0.038088,0.102797,-0.035943,1.048140,1.053782,0.039824,0.078554,0.256654,0.271345,73.132,1.276402,0.133181,MOVE,0,4,1.276402,1.854852,2.183477,1
16.386484,0.041431,0.049944,-0.093354,1.033762,1.039170,0.161686,0.127717,-0.063137,0.215500,72.640,1.267802,0.155115,MOVE,0,4,1.267802,1.854852,2.183477,1
16.428122,0.041638,0.128981,0.057056,1.071291,1.080535,0.303407,0.159177,-0.392698,0.521158,71.435,1.246783,0.212086,MOVE,0,4,1.246783,1.854852,2.183477,1
16.469662,0.041540,0.030063,-0.103727,1.035224,1.040842,0.315014,0.107253,-0.444927,0.555605,70.299,1.226946,0.227635,MOVE,0,4,1.226946,1.854852,2.183477,1
16.508136,0.038474,0.040004,-0.025811,1.003787,1.004916,0.312875,0.364733,-0.553356,0.732888,68.606,1.197393,0.209295,MOVE,0,4,1.197393,1.854852,2.183477,1
16.556781,0.048645,-0.011354,-0.029188,1.004518,1.005007,0.198949,-0.002397,-0.633990,0.664477,67.070,1.170586,0.192872,MOVE,0,4,1.170586,1.854852,2.183477,1
16.601699,0.044918,-0.044677,-0.086600,1.060325,1.064793,0.076776,-0.219865,-0.384146,0.449226,66.218,1.155719,0.231899,MOVE,0,4,1.155719,1.854852,2.183477,1
16.643388,0.041689,0.035882,0.034962,1.022065,1.023292,0.067308,-0.036605,-0.500211,0.506044,64.917,1.133014,0.229671,MOVE,0,4,1.133014,1.854852,2.183477,1
16.688278,0.044890,-0.055044,-0.007237,0.899485,0.901197,-0.129086,-0.065927,-0.839546,0.851967,62.695,1.094234,0.117781,MOVE,0,4,1.094234,1.854852,2.183477,1
16.737099,0.048821,0.017456,-0.073815,1.036686,1.039458,-0.246677,0.001879,-0.323365,0.406716,61.619,1.075457,0.141515,MOVE,0,4,1.075457,1.854852,2.183477,1
16.782208,0.045109,-0.000741,-0.050899,1.049115,1.050349,0.013857,-0.083337,-0.185310,0.203658,61.110,1.066569,0.172678,MOVE,0,4,1.066569,1.854852,2.183477,1
16.823604,0.041395,0.058914,0.049772,0.983561,0.986580,-0.296768,-0.001175,-0.350854,0.459534,60.334,1.053029,0.143332,MOVE,0,4,1.053029,1.854852,2.183477,1
16.868583,0.044979,-0.010120,-0.051381,0.978443,0.979843,-0.306542,-0.083642,-0.283659,0.425942,59.716,1.042247,0.110857,MOVE,0,4,1.042247,1.854852,2.183477,1
16.917010,0.048427,0.062793,-0.120613,0.956510,0.966127,-0.020046,-0.039049,0.063007,0.076789,59.808,1.043846,0.069286,MOVE,0,4,1.043846,1.854852,2.183477,1
16.962372,0.045363,0.083401,-0.044627,0.970157,0.974758,0.127172,0.144822,-0.225627,0.296738,59.496,1.038408,0.039639,MOVE,1,5,1.038408,2.134028,2.657355,0
17.004095,0.041723,0.004849,-0.103727,1.012560,1.017871,0.128700,-0.054015,-0.016100,0.140501,59.609,1.040367,0.051759,MOVE,0,5,1.040367,2.134028,2.657355,0
17.049228,0.045133,0.079037,-0.115547,1.016703,1.026296,0.559360,0.088927,0.271923,0.628278,60.405,1.054260,0.070250,MOVE,0,5,1.054260,2.134028,2.657355,0
17.097668,0.048440,0.147407,0.022094,0.979174,0.990454,0.495219,0.471329,0.019025,0.683926,60.596,1.057596,0.054633,MOVE,0,5,1.057596,2.134028,2.657355,0
17.142773,0.045105,0.018426,-0.057412,1.009880,1.011678,0.490026,0.302730,0.125621,0.589535,60.819,1.061485,0.059680,MOVE,0,5,1.061485,2.134028,2.657355,0
17.184294,0.041520,0.104009,0.038847,0.997939,1.004096,0.598760,-0.158473,-0.211577,0.654517,60.359,1.053464,0.057398,MOVE,0,5,1.053464,2.134028,2.657355,0
17.229344,0.045050,0.123163,0.080364,1.027670,1.038139,0.204447,-0.338067,-0.332223,0.516198,59.485,1.038213,0.085984,MOVE,0,5,1.038213,2.134028,2.657355,0
17.278142,0.048798,0.224747,0.154416,1.065443,1.099783,-0.215218,-0.276065,-0.382619,0.518582,58.489,1.020820,0.167190,MOVE,0,5,1.020820,2.134028,2.657355,0
17.323107,0.044966,0.222080,-0.003860,1.037661,1.061167,-0.161461,-0.226890,0.077362,0.289022,58.676,1.024083,0.205522,MOVE,0,5,1.024083,2.134028,2.657355,0
17.364617,0.041510,0.193229,-0.011338,1.050090,1.067780,0.070973,0.343658,0.676621,0.762204,60.299,1.052425,0.245972,MOVE,0,5,1.052425,2.134028,2.657355,0
17.409551,0.044933,0.110555,0.087163,0.996964,1.006855,0.098767,0.343964,0.614618,0.711211,61.868,1.079806,0.227544,MOVE,0,5,1.079806,2.134028,2.657355,0
17.458038,0.048488,0.118071,0.099788,0.995502,1.007433,-0.103124,0.137797,0.363247,0.401959,62.668,1.093770,0.211479,MOVE,0,5,1.093770,2.134028,2.657355,0
17.503238,0.045200,0.149589,0.099545,0.990871,1.007031,-0.156880,0.117027,0.142419,0.242054,62.969,1.099019,0.196660,MOVE,0,5,1.099019,2.134028,2.657355,0
17.544821,0.041583,0.130193,0.017724,0.967720,0.976600,-0.414360,-0.238496,-0.061915,0.482087,62.852,1.096977,0.155933,MOVE,0,5,1.096977,2.134028,2.657355,0
17.589742,0.044922,0.193714,0.018938,1.014266,1.032773,-0.373126,-0.197263,0.022690,0.422671,62.860,1.097118,0.169836,MOVE,0,5,1.097118,2.134028,2.657355,0
17.631289,0.041547,0.221111,0.040061,1.008661,1.033389,-0.212469,-0.161527,-0.395753,0.477341,62.127,1.084324,0.182902,MOVE,0,5,1.084324,2.134028,2.657355,0
17.672812,0.041522,0.173106,-0.020022,1.071779,1.085853,-0.094572,-0.206731,-0.422020,0.479356,61.335,1.070498,0.241879,MOVE,0,5,1.070498,2.134028,2.657355,0
17.710846,0.038034,0.127527,-0.034013,1.131728,1.139398,0.418861,-0.222308,-0.467224,0.665705,60.420,1.054525,0.343150,MOVE,0,5,1.054525,2.134028,2.657355,0
17.752390,0.041544,0.067158,0.141062,1.114669,1.125565,0.666872,-0.473069,-0.584816,1.005247,58.971,1.029230,0.421843,MOVE,0,5,1.029230,2.134028,2.657355,0
17.793939,0.041550,0.125102,-0.128815,1.232375,1.245388,-0.142830,-0.638919,-0.837714,1.063194,57.123,0.996993,0.600508,MOVE,0,5,0.996993,2.134028,2.657355,0
17.838870,0.044931,0.137467,-0.165722,1.309627,1.327209,1.109749,0.081902,0.021468,1.112974,57.036,0.995468,0.834946,MOVE,0,5,0.995468,2.134028,2.657355,0
17.887271,0.048401,0.023032,0.161943,0.913376,0.927907,1.013843,0.177197,-0.210966,1.050611,56.547,0.986934,0.686567,MOVE,0,5,0.986934,2.134028,2.657355,0
17.925155,0.037884,0.010668,0.029863,0.853914,0.854502,0.253927,-0.397932,-0.036869,0.473485,56.151,0.980025,0.486963,MOVE,0,5,0.980025,2.134028,2.657355,0
17.973944,0.048789,0.098433,0.130865,0.948224,0.962260,0.410614,0.147265,0.012305,0.436397,56.036,0.978004,0.404300,MOVE,0,5,0.978004,2.134028,2.657355,0
18.015887,0.041943,0.013092,0.170440,0.805418,0.823359,-0.230489,-0.202761,-0.228987,0.382978,55.340,0.965865,0.204893,MOVE,0,5,0.965865,2.134028,2.657355,0
18.053900,0.038012,0.090675,0.037147,0.930678,0.935823,-0.460785,-0.333791,-0.020071,0.569335,55.003,0.959984,0.126644,MOVE,0,5,0.959984,2.134028,2.657355,0
18.102364,0.048465,0.187168,0.097360,0.885838,0.910615,-0.252786,0.036088,-0.178590,0.311605,54.438,0.950128,0.033534,MOVE,1,6,0.950128,2.453896,3.104775,0
18.147432,0.045068,0.150074,0.040789,0.900216,0.913551,-0.348997,0.168340,-0.124223,0.406901,54.079,0.943860,-0.047624,MOVE,0,6,0.943860,2.453896,3.104775,0
18.188824,0.041393,0.091887,0.025250,0.936527,0.941363,-0.091517,0.163758,0.021163,0.188786,54.241,0.946693,-0.095635,MOVE,0,6,0.946693,2.453896,3.104775,0
18.230424,0.041599,0.176501,0.031320,0.979905,0.996166,0.176042,0.371147,0.241685,0.476605,54.761,0.955756,-0.089522,MOVE,0,6,0.955756,2.453896,3.104775,0
18.268667,0.038243,0.108373,0.186465,0.914351,0.939442,-0.030431,0.271882,-0.094291,0.289372,54.549,0.952054,-0.135072,MOVE,0,6,0.952054,2.453896,3.104775,0
18.317098,0.048431,0.141346,0.106586,0.958703,0.974911,-0.306542,0.065104,-0.023736,0.314277,54.609,0.953106,-0.144145,MOVE,0,6,0.953106,2.453896,3.104775,0
18.362097,0.044999,0.200018,0.089105,1.058619,1.081028,-0.141587,-0.046066,-0.079013,0.168558,54.615,0.953211,-0.056806,MOVE,0,6,0.953211,2.453896,3.104775,0
18.403516,0.041419,0.155650,0.040304,1.071779,1.083772,-0.307437,-0.258036,-0.009069,0.401475,54.724,0.955121,0.024269,MOVE,0,6,0.955121,2.453896,3.104775,0
18.448498,0.044982,0.200018,0.089833,1.172913,1.193232,-0.116236,-0.465425,-0.084511,0.487107,54.603,0.952996,0.195751,MOVE,0,6,0.952996,2.453896,3.104775,0
18.490431,0.041933,0.176016,0.089590,1.163165,1.179814,-0.466262,-0.504215,-0.021286,0.687085,54.619,0.953285,0.338008,MOVE,0,6,0.953285,2.453896,3.104775,0
18.531896,0.041465,0.236142,0.023065,1.337652,1.358532,0.201414,0.045564,-0.072293,0.218792,54.398,0.949418,0.626886,MOVE,0,6,0.949418,2.453896,3.104775,0
18.576930,0.045034,0.080734,0.148103,1.129048,1.141578,0.870311,-0.033848,-0.373755,0.947777,53.550,0.934628,0.691618,MOVE,0,6,0.934628,2.453896,3.104775,0
18.618423,0.041493,-0.025671,0.106100,0.979174,0.985240,0.370318,-0.732067,-0.062214,0.822757,53.162,0.927848,0.609172,MOVE,0,6,0.927848,2.453896,3.104775,0
18.660033,0.041610,0.257478,0.179424,1.038880,1.085246,0.157432,-0.137085,0.252076,0.327291,53.453,0.932937,0.624976,MOVE,0,6,0.932937,2.453896,3.104775,0
18.697985,0.037951,0.107888,0.089833,0.946275,0.956633,-0.257651,-0.096768,0.461297,0.537162,54.347,0.948536,0.523448,MOVE,0,6,0.948536,2.453896,3.104775,0
18.746970,0.048985,0.146437,0.097360,0.922393,0.939005,0.113144,-0.089743,0.824151,0.836708,55.962,0.976713,0.416208,MOVE,0,6,0.976713,2.453896,3.104775,0
18.792154,0.045184,0.232263,0.131108,0.846847,0.887854,-0.055760,0.062057,0.848586,0.852677,57.405,1.001907,0.273656,MOVE,0,6,1.001907,2.453896,3.104775,0
18.833556,0.041403,0.184016,0.065797,0.807124,0.830446,-0.082944,0.435907,0.827817,0.939242,58.992,1.029611,0.093691,MOVE,0,6,1.029611,2.453896,3.104775,0
18.878496,0.044940,0.138437,0.064097,0.836124,0.849927,0.199581,0.543114,0.776198,0.968137,60.577,1.057272,-0.050743,MOVE,0,6,1.057272,2.453896,3.104775,0
18.926960,0.048464,0.102555,0.180638,0.845384,0.870530,0.173009,0.571519,0.287201,0.662609,60.671,1.058908,-0.162192,MOVE,0,6,1.058908,2.453896,3.104775,0
18.972218,0.045258,0.068612,0.102458,0.934334,0.942436,-0.182820,0.116119,0.010173,0.216819,60.043,1.047955,-0.197781,MOVE,0,6,1.047955,2.453896,3.104775,0
19.014078,0.041860,0.178925,0.074052,0.985023,1.003876,-0.112876,-0.033848,-0.299535,0.321882,58.889,1.027807,-0.174514,MOVE,0,6,1.027807,2.453896,3.104775,0
19.059221,0.045142,0.188623,0.024522,1.130510,1.146400,0.098178,0.027543,-0.304117,0.320756,57.708,1.007199,-0.025303,MOVE,1,7,1.007199,2.747723,3.569711,0
19.107650,0.048429,0.163893,0.171897,1.248215,1.270611,0.225543,0.051978,-0.373755,0.439619,56.289,0.982424,0.220777,MOVE,0,7,0.982424,2.747723,3.569711,0
19.152604,0.044954,0.084614,0.151503,1.106384,1.119910,-0.190761,-0.305378,-0.456833,0.581672,54.951,0.959074,0.306618,MOVE,0,7,0.959074,2.747723,3.569711,0
19.194093,0.041490,0.269842,-0.078157,1.475341,1.501850,0.176674,0.534256,-0.135823,0.578871,54.395,0.949364,0.727621,MOVE,0,7,0.949364,2.747723,3.569711,0
19.248091,0.053998,-0.083677,0.213172,0.998670,1.024590,0.372762,-0.107152,0.036441,0.389565,54.241,0.946685,0.676990,MOVE,0,7,0.946685,2.747723,3.569711,0
19.291735,0.043644,0.149832,0.175782,0.994527,1.020996,-0.423501,-0.513072,-0.219206,0.700463,53.408,0.932147,0.628187,MOVE,0,7,0.932147,2.747723,3.569711,0
19.342183,0.050447,0.119041,0.029378,0.880233,0.888732,-0.178835,0.028457,0.031246,0.183760,53.270,0.929736,0.465227,MOVE,0,7,0.929736,2.747723,3.569711,0
19.392328,0.050146,0.080734,0.065554,0.851477,0.857804,0.152560,-0.104100,0.178770,0.257041,53.427,0.932472,0.290728,MOVE,0,7,0.932472,2.747723,3.569711,0
19.435789,0.043461,0.145225,0.119454,0.870485,0.890564,-0.164174,-0.048512,0.139674,0.220942,53.614,0.935749,0.163163,MOVE,0,7,0.935749,2.747723,3.569711,0
19.487227,0.051438,0.112737,0.042003,0.884620,0.892763,-0.204796,-0.053399,0.159222,0.264848,53.820,0.939331,0.050333,MOVE,0,7,0.939331,2.747723,3.569711,0
19.530706,0.043479,0.167773,0.049530,0.943594,0.959672,0.290921,0.091071,0.326294,0.446538,54.466,0.950620,0.009005,MOVE,1,8,0.950620,3.067372,4.017288,0
19.581434,0.050728,0.149104,0.142519,0.915813,0.938753,0.112854,0.172011,0.203204,0.289164,54.668,0.954135,-0.047018,MOVE,0,8,0.954135,3.067372,4.017288,0
19.624940,0.043506,0.177713,0.110228,0.964796,0.987200,-0.161702,-0.065611,0.053519,0.182528,54.562,0.952278,-0.053837,MOVE,0,8,0.952278,3.067372,4.017288,0
19.668329,0.043389,0.182562,0.050015,1.104434,1.120538,-0.154357,-0.147765,-0.050938,0.219671,54.158,0.945235,0.060031,MOVE,0,8,0.945235,3.067372,4.017288,0
19.719021,0.050692,0.144740,0.159758,1.135384,1.155668,0.072580,-0.269633,-0.050938,0.283839,53.734,0.937834,0.194129,MOVE,0,8,0.937834,3.067372,4.017288,0
19.762680,0.043658,0.166803,0.114113,1.156829,1.174350,-0.172072,-0.460528,-0.142262,0.511795,53.122,0.927155,0.331631,MOVE,0,8,0.927155,3.067372,4.017288,0
19.813354,0.050674,0.191775,0.070895,1.213854,1.230953,0.437572,0.182407,0.043746,0.476083,53.122,0.927148,0.506326,MOVE,0,8,0.927148,3.067372,4.017288,0
19.856914,0.043560,0.039761,0.145918,1.148543,1.158458,0.586317,0.664380,0.282595,0.930069,53.874,0.940279,0.598305,MOVE,0,8,0.940279,3.067372,4.017288,0
19.907617,0.050703,-0.048873,0.190592,0.856107,0.878427,0.014242,-0.391195,0.359564,0.531529,54.458,0.950466,0.429059,MOVE,0,8,0.950466,3.067372,4.017288,0
19.951444,0.043827,0.204382,0.142276,0.907527,0.941074,-0.452764,0.045879,0.277097,0.532807,54.972,0.959439,0.333119,MOVE,0,8,0.959439,3.067372,4.017288,0
20.002667,0.051223,0.046550,0.110228,0.819552,0.828241,-0.049288,-0.033534,0.295728,0.301677,55.410,0.967078,0.145224,MOVE,0,8,0.967078,3.067372,4.017288,0
20.046455,0.043787,0.189350,0.105372,0.865855,0.892559,0.073496,-0.215572,0.461884,0.514985,56.139,0.979807,0.034005,MOVE,1,9,0.979807,3.373823,4.474002,0
20.089970,0.043516,0.233475,0.082064,0.882426,0.916472,-0.100601,0.326571,0.558706,0.654921,57.305,1.000168,-0.044571,MOVE,0,9,1.000168,3.373823,4.474002,0
20.133495,0.043525,0.152256,0.056813,0.922149,0.936359,0.068914,0.511969,0.805495,0.956914,59.301,1.034990,-0.097390,MOVE,0,9,1.034990,3.373823,4.474002,0
20.184463,0.050968,0.137467,0.100273,0.883401,0.899638,0.147105,0.211423,0.604215,0.656822,60.447,1.054997,-0.177977,MOVE,0,9,1.054997,3.373823,4.474002,0
20.228108,0.043645,0.269115,0.147132,0.930678,0.979915,0.165737,0.297250,0.286565,0.444911,61.099,1.066385,-0.178256,MOVE,0,9,1.066385,3.373823,4.474002,0
20.279047,0.050938,0.207534,0.128680,0.992821,1.022410,-0.109458,0.047711,0.180580,0.216487,61.339,1.070564,-0.140261,MOVE,0,9,1.070564,3.373823,4.474002,0
20.322595,0.043548,0.256265,0.101730,1.099560,1.133602,-0.299437,0.113990,-0.062850,0.326507,61.171,1.067634,-0.005993,MOVE,0,9,1.067634,3.373823,4.474002,0
20.373476,0.050881,0.175773,0.123096,1.289400,1.307135,-0.330591,0.150948,-0.136459,0.388197,60.764,1.060530,0.271027,MOVE,0,9,1.060530,3.373823,4.474002,0
20.416982,0.043506,0.078795,0.134750,1.175106,1.185429,-0.601816,-0.230843,-0.468159,0.796645,59.356,1.035956,0.410810,MOVE,0,9,1.035956,3.373823,4.474002,0
20.467939,0.050956,0.100615,-0.138464,1.313282,1.324389,-0.351666,-0.375313,-0.393939,0.647855,58.610,1.022938,0.661679,MOVE,0,9,1.022938,3.373823,4.474002,0
20.519047,0.051109,-0.018019,0.048801,1.041317,1.042615,0.541724,0.114601,-0.184412,0.583615,58.321,1.017900,0.633865,MOVE,0,9,1.017900,3.373823,4.474002,0
20.563025,0.043977,-0.064424,0.049772,0.959435,0.962882,-0.042568,-0.601027,-0.167308,0.625330,57.915,1.010806,0.537073,MOVE,0,9,1.010806,3.373823,4.474002,0
20.613626,0.050601,0.150559,0.042246,0.964065,0.976664,0.363962,-0.084846,-0.052465,0.377386,57.861,1.009869,0.462363,MOVE,0,9,1.009869,3.373823,4.474002,0
20.657435,0.043809,0.111768,0.047102,0.884376,0.892654,0.275082,0.105133,-0.186550,0.348602,57.478,1.003188,0.319516,MOVE,0,9,1.003188,3.373823,4.474002,0
20.708030,0.050595,0.035640,0.020880,0.839292,0.840308,-0.005611,-0.372869,-0.080259,0.381451,57.211,0.998513,0.143841,MOVE,0,9,0.998513,3.373823,4.474002,0
20.751983,0.043953,0.215050,0.079636,0.879989,0.909379,0.140691,0.044046,-0.127296,0.194778,56.960,0.994136,0.047898,MOVE,0,9,0.994136,3.373823,4.474002,0
20.802652,0.050668,0.114192,-0.006754,0.900460,0.907697,0.163595,-0.052772,0.228520,0.285954,57.534,1.004163,-0.039965,MOVE,1,10,1.004163,3.669060,4.938044,0
20.846309,0.043657,0.218201,0.101730,0.841729,0.875482,0.194444,0.179051,0.163463,0.310786,58.029,1.012794,-0.148035,MOVE,0,10,1.012794,3.669060,4.938044,0
20.896902,0.050593,0.239537,0.118968,0.973569,1.009637,-0.219112,0.062987,0.101155,0.249419,58.218,1.016090,-0.124558,MOVE,0,10,1.016090,3.669060,4.938044,0
20.940484,0.043582,0.241234,0.087405,1.006712,1.038895,-0.157109,0.078258,-0.036595,0.179296,58.052,1.013196,-0.077097,MOVE,0,10,1.013196,3.669060,4.938044,0
20.984786,0.044302,0.179895,0.139363,1.112720,1.135751,-0.384657,0.023891,-0.084854,0.394629,57.918,1.010852,0.052789,MOVE,0,10,1.010852,3.669060,4.938044,0
21.025055,0.040269,0.115889,0.117512,1.190215,1.201604,-0.225832,-0.358816,0.223633,0.479333,58.416,1.019547,0.228953,MOVE,0,10,1.019547,3.669060,4.938044,0
21.068426,0.043370,0.221111,0.202732,1.209467,1.246115,0.095789,-0.308419,0.240737,0.402806,59.086,1.031251,0.427561,MOVE,0,10,1.031251,3.669060,4.938044,0
21.118793,0.050367,0.264508,0.046373,1.173400,1.203737,0.359072,0.276179,0.112150,0.466674,59.492,1.038323,0.568169,MOVE,0,10,1.038323,3.669060,4.938044,0
21.162513,0.043720,0.044125,-0.062478,1.179005,1.181484,0.706349,0.209594,0.570605,0.931906,61.033,1.065223,0.674687,MOVE,0,10,1.065223,3.669060,4.938044,0
21.213531,0.051018,0.014547,0.196905,0.903140,0.924471,0.593339,-0.123938,0.366576,0.708371,61.689,1.076676,0.539242,MOVE,0,10,1.076676,3.669060,4.938044,0
21.256929,0.043398,0.064248,0.075266,0.926292,0.931563,-0.366942,-0.400354,0.154911,0.564736,61.951,1.081257,0.423724,MOVE,0,10,1.081257,3.669060,4.938044,0
21.300106,0.043176,0.104494,-0.034495,0.899485,0.906191,0.287601,0.133542,0.580073,0.661084,63.368,1.105981,0.296924,MOVE,0,10,1.105981,3.669060,4.938044,0
21.351213,0.051108,0.036367,0.081336,0.872435,0.876972,0.342578,0.102082,0.526928,0.636737,64.499,1.125718,0.156506,MOVE,0,10,1.125718,3.669060,4.938044,0
21.394805,0.043592,0.173834,0.090804,0.897292,0.918475,0.186808,0.344901,0.633524,0.745122,66.141,1.154381,0.067483,MOVE,0,10,1.154381,3.669060,4.938044,0
21.445589,0.050783,0.172864,0.103187,0.905821,0.927923,0.100370,0.885517,0.299991,0.940324,66.895,1.167542,-0.004134,MOVE,1,11,1.167542,3.884887,5.443928,0
21.490057,0.044468,0.088493,0.093961,0.962602,0.971217,0.095483,0.270070,0.208972,0.354576,67.266,1.174018,-0.029625,MOVE,0,11,1.174018,3.884887,5.443928,0
21.533579,0.043522,0.252386,0.115569,1.007443,1.044986,-0.017220,0.175982,-0.045755,0.182646,67.140,1.171823,0.013825,MOVE,0,11,1.171823,3.884887,5.443928,0
21.583974,0.050395,0.230809,0.147132,1.017922,1.054080,-0.424972,-0.029574,-0.198776,0.470094,66.541,1.161352,0.061115,MOVE,0,11,1.161352,3.884887,5.443928,0
21.634531,0.050558,0.242931,0.033991,1.152199,1.178021,-0.743844,-0.308739,-0.224127,0.835977,65.961,1.151234,0.215222,MOVE,0,11,1.151234,3.884887,5.443928,0
21.678408,0.043877,0.185956,0.122367,1.228232,1.248242,-0.700473,0.020822,-0.558881,0.896350,64.359,1.123270,0.417117,MOVE,0,11,1.123270,3.884887,5.443928,0
21.729331,0.050923,0.048004,-0.043903,1.246753,1.248449,-1.072490,-0.361885,-0.812085,1.393082,62.647,1.093398,0.599009,MOVE,0,11,1.093398,3.884887,5.443928,0
21.772904,0.043573,0.090917,-0.131951,1.430988,1.439932,-0.160773,0.039759,-0.453813,0.483089,61.439,1.072321,0.935047,MOVE,0,11,1.072321,3.884887,5.443928,0
21.822826,0.049922,-0.109595,0.101245,1.004518,1.015539,0.010269,-0.210085,-0.786123,0.813776,59.496,1.038406,0.855527,MOVE,0,11,1.038406,3.884887,5.443928,0
21.873885,0.051059,-0.014563,-0.096732,1.003787,1.008543,-0.155581,-0.908609,-0.479163,1.038929,58.654,1.023713,0.777663,MOVE,0,11,1.023713,3.884887,5.443928,0
21.917454,0.043570,0.169227,0.017724,0.883157,0.899399,0.449787,-0.169768,-0.444955,0.655068,57.857,1.009792,0.609356,MOVE,0,11,1.009792,3.884887,5.443928,0
21.961050,0.043596,0.063278,0.007769,0.790065,0.792633,0.254921,-0.298966,-0.389672,0.553362,57.111,0.996779,0.361790,MOVE,0,11,0.996779,3.884887,5.443928,0
22.005067,0.044017,0.144498,0.013596,0.852695,0.864959,0.425352,-0.133727,-0.111423,0.459589,56.955,0.994056,0.204074,MOVE,0,11,0.994056,3.884887,5.443928,0
22.048815,0.043749,0.149832,0.024765,0.837830,0.851482,0.483690,0.132916,-0.118753,0.515485,56.757,0.990595,0.050000,MOVE,0,11,0.990595,3.884887,5.443928,0
22.099523,0.050708,0.147407,0.049772,0.989409,1.001567,0.655343,0.155518,0.093217,0.679963,56.976,0.994412,0.046411,MOVE,0,11,0.994412,3.884887,5.443928,0
22.143150,0.043627,0.213837,0.159029,0.973082,1.008912,0.689551,0.365350,0.024190,0.780735,57.087,0.996355,0.049791,MOVE,0,11,0.996355,3.884887,5.443928,0
22.194132,0.050982,0.159529,0.178695,1.001107,1.029367,0.064025,0.323201,-0.143188,0.359250,56.762,0.990676,0.071242,MOVE,0,11,0.990676,3.884887,5.443928,0
22.237658,0.043527,0.152498,0.094689,1.068854,1.083823,-0.114643,-0.095234,0.092293,0.175302,56.865,0.992484,0.139558,MOVE,0,11,0.992484,3.884887,5.443928,0
22.285764,0.048106,0.153711,0.189864,1.102728,1.129462,-0.274690,-0.231457,-0.009416,0.359327,56.626,0.988310,0.242118,MOVE,0,11,0.988310,3.884887,5.443928,0
22.329217,0.043453,0.104252,0.214386,1.092249,1.117962,-0.617080,-0.496878,-0.135254,0.803722,56.132,0.979696,0.324072,MOVE,0,11,0.979696,3.884887,5.443928,0
22.372981,0.043764,0.196624,0.088134,1.226770,1.245549,-0.516287,-0.484966,0.130778,0.720311,56.012,0.977602,0.512659,MOVE,0,11,0.977602,3.884887,5.443928,0
22.416504,0.043523,0.282207,0.033263,1.258694,1.290371,0.179488,0.521740,-0.313932,0.634809,55.495,0.968570,0.722727,MOVE,0,11,0.968570,3.884887,5.443928,0
22.460144,0.043640,-0.039494,0.205160,1.110039,1.129530,0.393597,0.306104,0.003107,0.498626,55.370,0.966383,0.767031,MOVE,0,11,0.966383,3.884887,5.443928,0
22.508996,0.048851,-0.021968,0.139849,0.956023,0.966447,-0.274079,-0.445871,-0.182902,0.554412,54.814,0.956693,0.660131,MOVE,0,11,0.956693,3.884887,5.443928,0
22.552834,0.043838,0.028124,0.028650,0.983804,0.984623,-0.588675,-0.429988,0.171095,0.748800,55.054,0.960880,0.580278,MOVE,0,11,0.960880,3.884887,5.443928,0
22.603500,0.050666,0.138194,0.103672,0.960897,0.976303,0.085415,-0.099205,0.444762,0.463628,55.952,0.976544,0.500923,MOVE,0,11,0.976544,3.884887,5.443928,0
22.647257,0.043757,0.132860,0.096874,0.942132,0.956373,0.042655,0.064813,0.427658,0.434640,57.075,0.996149,0.411567,MOVE,0,11,0.996149,3.884887,5.443928,0
22.698136,0.050879,0.155408,0.091047,1.000376,1.016461,0.394513,0.566028,0.682389,0.970403,58.530,1.021533,0.385225,MOVE,0,11,1.021533,3.884887,5.443928,0
22.741839,0.043704,0.034185,0.125038,0.891199,0.900577,0.272340,0.494556,0.208968,0.602016,59.160,1.032542,0.257222,MOVE,0,11,1.032542,3.884887,5.443928,0
22.792715,0.050876,0.094069,0.167770,0.999644,1.017981,0.124205,0.139949,0.152158,0.241174,59.352,1.035895,0.247682,MOVE,0,11,1.035895,3.884887,5.443928,0
22.836339,0.043623,0.057217,0.131351,0.976981,0.987430,-0.048670,0.188513,-0.059812,0.203675,59.281,1.034646,0.211601,MOVE,0,11,1.034646,3.884887,5.443928,0
22.887258,0.050920,0.003394,0.069924,1.001838,1.004281,-0.116781,0.110322,0.387036,0.419053,60.120,1.049298,0.194294,MOVE,0,11,1.049298,3.884887,5.443928,0
22.930807,0.043549,0.065945,0.180880,0.976006,0.994814,0.178878,0.136589,0.268222,0.350139,61.002,1.064688,0.170196,MOVE,0,11,1.064688,3.884887,5.443928,0
22.981961,0.051154,0.052368,0.154416,1.004518,1.017666,-0.081046,0.296331,-0.081498,0.317840,60.893,1.062783,0.169076,MOVE,0,11,1.062783,3.884887,5.443928,0
23.025741,0.043779,-0.011601,0.104644,1.052283,1.057537,0.058537,0.222721,-0.093410,0.248509,60.711,1.059612,0.203952,MOVE,0,11,1.059612,3.884887,5.443928,0
23.069218,0.043478,-0.065658,0.039818,1.060325,1.063102,0.029216,-0.166094,-0.119982,0.206970,60.564,1.057046,0.240348,MOVE,0,11,1.057046,3.884887,5.443928,0
23.112529,0.043311,0.012607,0.067739,1.194846,1.196831,0.199342,-0.050641,0.407194,0.456189,61.651,1.076019,0.393461,MOVE,0,11,1.076019,3.884887,5.443928,0
23.163094,0.050565,0.027881,0.111685,1.088107,1.094179,0.492557,0.027855,0.500046,0.702449,62.829,1.096575,0.438876,MOVE,0,11,1.096575,3.884887,5.443928,0
23.206657,0.043563,0.037094,0.114598,0.995502,1.002762,0.140088,0.177517,0.421244,0.478104,63.810,1.113696,0.397474,MOVE,0,11,1.113696,3.884887,5.443928,0
23.250157,0.043500,-0.006171,0.102216,0.925561,0.931208,-0.147019,0.074586,0.527535,0.552694,65.270,1.139176,0.295814,MOVE,0,11,1.139176,3.884887,5.443928,0
23.300682,0.050525,0.028124,0.079879,1.051796,1.055199,-0.195277,-0.310870,0.655511,0.751311,66.600,1.162387,0.315912,MOVE,0,11,1.162387,3.884887,5.443928,0
23.344082,0.043401,0.076370,0.007769,1.045947,1.048760,-0.503764,-0.234206,0.548304,0.780556,67.748,1.182420,0.328205,MOVE,0,11,1.182420,3.884887,5.443928,0
23.387522,0.043439,0.172137,0.084492,1.011098,1.029121,-0.375788,-0.066523,0.593203,0.705359,69.172,1.207273,0.321593,MOVE,0,11,1.207273,3.884887,5.443928,0
23.437958,0.050436,0.063763,0.002185,0.993552,0.995598,-0.300346,0.103908,0.746224,0.811083,70.739,1.234630,0.285472,MOVE,0,11,1.234630,3.884887,5.443928,0
23.481292,0.043334,0.136255,0.134264,0.989165,1.007492,-0.349826,-0.217407,0.809144,0.907941,72.324,1.262291,0.263668,MOVE,0,11,1.262291,3.884887,5.443928,0
23.525054,0.043762,0.156863,0.168498,1.040098,1.065271,-0.731312,-0.050946,0.631687,0.967699,73.762,1.287391,0.296045,MOVE,0,11,1.287391,3.884887,5.443928,0
23.575764,0.050709,0.093342,0.098574,0.898267,0.908467,-0.598754,-0.264444,0.564797,0.864542,75.016,1.309275,0.184061,MOVE,0,11,1.309275,3.884887,5.443928,0
23.619295,0.043531,0.201230,0.100516,1.057644,1.081299,-0.663200,-0.523145,0.263030,0.884703,75.648,1.320310,0.238824,MOVE,0,11,1.320310,3.884887,5.443928,0
23.670402,0.051107,0.317362,0.112656,0.954804,1.012453,-0.838519,-0.036591,-0.499941,0.976930,74.279,1.296420,0.226149,MOVE,0,11,1.296420,3.884887,5.443928,0
23.714090,0.043688,0.188380,-0.087324,1.058863,1.079029,-0.617996,-0.050030,-0.921743,1.110870,71.896,1.254820,0.274660,MOVE,0,11,1.254820,3.884887,5.443928,0
23.757761,0.043672,0.314937,-0.040285,1.069829,1.115949,-0.095706,0.116736,-1.283375,1.292223,68.548,1.196382,0.351549,MOVE,0,11,1.196382,3.884887,5.443928,0
23.801538,0.043776,0.291420,-0.068749,0.999157,1.043057,0.043571,0.392542,-1.816966,1.859396,63.584,1.109759,0.355145,MOVE,0,11,1.109759,3.884887,5.443928,0
23.852163,0.050625,0.206564,-0.078398,1.020846,1.044481,0.302272,0.198898,-1.438841,1.483641,60.271,1.051932,0.359663,MOVE,0,11,1.051932,3.884887,5.443928,0
23.895640,0.043477,0.137952,-0.090218,0.978443,0.992230,0.261955,0.162551,-1.313308,1.349007,56.889,0.992902,0.316704,MOVE,0,11,0.992902,3.884887,5.443928,0
23.946387,0.050746,0.251901,-0.144494,1.045947,1.085513,0.093051,0.169576,-1.418682,1.431808,53.721,0.937611,0.361995,MOVE,0,11,0.937611,3.884887,5.443928,0
23.991677,0.045291,0.278085,-0.060548,1.019628,1.058602,0.262261,0.045570,-1.475798,1.499612,51.023,0.890518,0.378537,MOVE,0,11,0.890518,3.884887,5.443928,0
24.031531,0.039854,0.242931,-0.089495,0.978443,1.012114,0.130314,0.150945,-0.977943,0.998067,48.736,0.850611,0.351586,MOVE,0,11,0.850611,3.884887,5.443928,0
24.082387,0.050856,0.164136,-0.012785,0.981855,0.995561,-0.194667,0.058093,-0.361274,0.414474,48.291,0.842835,0.312433,MOVE,0,11,0.842835,3.884887,5.443928,0
24.125717,0.043330,0.219898,-0.017127,0.988922,1.013220,-0.244452,0.307632,-0.078444,0.400684,48.704,0.850050,0.293088,MOVE,0,11,0.850050,3.884887,5.443928,0
24.169051,0.043334,0.190320,-0.040526,0.945300,0.965120,0.093051,0.136589,0.102678,0.194571,49.297,0.860389,0.232387,MOVE,0,11,0.860389,3.884887,5.443928,0
24.219804,0.050753,0.153953,-0.033289,1.000863,1.013181,-0.188558,0.197981,-0.280640,0.391803,49.108,0.857103,0.221011,MOVE,0,11,0.857103,3.884887,5.443928,0
24.263523,0.043720,0.192017,-0.088289,1.007199,1.029133,-0.242619,0.035797,-0.164881,0.295519,49.118,0.857273,0.225130,MOVE,0,11,0.857273,3.884887,5.443928,0
24.313738,0.050215,0.018183,-0.103245,0.980880,0.986466,-0.276522,-0.212520,0.356492,0.498715,50.396,0.879568,0.190437,MOVE,0,11,0.879568,3.884887,5.443928,0
24.364400,0.050662,0.220868,-0.120854,0.986972,1.018579,-0.393809,-0.000245,0.311594,0.502171,51.578,0.900212,0.188114,MOVE,0,11,0.900212,3.884887,5.443928,0
24.407696,0.043296,0.095524,-0.167893,1.025720,1.043750,-0.407859,-0.090653,0.234319,0.479032,52.423,0.914953,0.208678,MOVE,0,11,0.914953,3.884887,5.443928,0
24.450954,0.043258,0.134073,-0.066820,1.017191,1.028162,-0.130526,0.290527,-0.229327,0.392472,52.063,0.908675,0.213156,MOVE,0,11,0.908675,3.884887,5.443928,0
24.504855,0.053901,0.140376,-0.118924,1.027913,1.044248,-0.056611,0.620395,-0.437632,0.761325,51.404,0.897162,0.231664,MOVE,0,11,0.897162,3.884887,5.443928,0
24.547831,0.042975,-0.006418,-0.125196,0.978687,0.986683,0.075641,0.175685,-0.448323,0.487422,50.903,0.888426,0.196512,MOVE,0,11,0.888426,3.884887,5.443928,0
24.591193,0.043362,0.037579,-0.036666,1.010611,1.011974,0.152610,0.073976,-0.519794,0.546761,50.311,0.878091,0.187637,MOVE,0,11,0.878091,3.884887,5.443928,0
24.634096,0.042903,0.035397,-0.071885,1.021821,1.024958,0.332205,-0.228097,-0.806290,0.901383,48.902,0.853498,0.191335,MOVE,0,11,0.853498,3.884887,5.443928,0
24.681825,0.047729,0.119768,0.046859,0.992090,1.000391,0.367635,0.055955,-0.845385,0.923559,47.507,0.829154,0.172554,MOVE,0,11,0.829154,3.884887,5.443928,0
24.725054,0.043229,0.023517,-0.180196,0.982342,0.999009,0.368246,-0.235122,-0.780939,0.894848,46.261,0.807403,0.154407,MOVE,0,11,0.807403,3.884887,5.443928,0
24.768613,0.043559,0.075643,0.078908,0.918981,0.925459,0.237215,-0.003299,-0.583018,0.629438,45.506,0.794224,0.071879,MOVE,0,11,0.794224,3.884887,5.443928,0
24.812049,0.043436,-0.048133,-0.069232,0.983073,0.986683,-0.398390,0.114293,-0.433967,0.600088,44.985,0.785131,0.052705,MOVE,0,11,0.785131,3.884887,5.443928,0
24.855428,0.043379,0.056490,-0.008684,0.999644,1.001277,0.001116,0.167743,-0.287665,0.333002,44.862,0.782986,0.048584,MOVE,0,11,0.782986,3.884887,5.443928,0
24.898769,0.043341,-0.048133,-0.087565,0.956998,0.962200,0.097938,0.085887,-0.127007,0.181932,45.062,0.786485,0.009706,MOVE,1,12,0.786485,4.273373,5.833259,0
24.942077,0.043308,0.096736,-0.100832,1.157073,1.165479,-0.180006,0.104824,-0.285832,0.353681,44.615,0.778673,0.157666,MOVE,0,12,0.778673,4.273373,5.833259,0
24.994106,0.052029,0.087038,-0.079605,1.068367,1.074858,-0.217269,0.150639,-0.306296,0.404617,44.358,0.774190,0.209272,MOVE,0,12,0.774190,4.273373,5.833259,0
25.037683,0.043576,0.146680,-0.064890,1.050577,1.062750,-0.200775,0.170187,-0.223219,0.345110,44.452,0.775838,0.244820,MOVE,0,12,0.775838,4.273373,5.833259,0
25.081342,0.043660,-0.033816,-0.148113,1.127585,1.137774,-0.252699,-0.089431,0.051060,0.272877,45.049,0.786250,0.344335,MOVE,0,12,0.786250,4.273373,5.833259,0
25.131731,0.050389,0.165348,-0.152455,1.080796,1.103948,-0.045005,-0.087904,-0.085163,0.130404,45.382,0.792062,0.403455,MOVE,0,12,0.792062,4.273373,5.833259,0
25.175413,0.043682,0.209716,-0.088047,1.064712,1.088735,0.360915,-0.201219,-0.302326,0.512006,45.200,0.788894,0.442971,MOVE,0,12,0.788894,4.273373,5.833259,0
25.226192,0.050778,0.149589,-0.028223,0.989897,1.001533,0.071060,0.175685,-0.060423,0.198911,45.625,0.796314,0.400053,MOVE,0,12,0.796314,4.273373,5.833259,0
25.270157,0.043965,0.042913,-0.095525,0.887544,0.893701,-0.158320,-0.279410,0.446900,0.550323,47.181,0.823460,0.264379,MOVE,0,12,0.823460,4.273373,5.833259,0
25.317766,0.047609,0.145225,-0.036184,0.929460,0.941432,-0.143659,-0.151739,0.252645,0.327860,48.284,0.842714,0.185230,MOVE,0,12,0.842714,4.273373,5.833259,0
25.361310,0.043544,-0.058253,-0.129056,0.760334,0.773406,-0.183060,-0.380203,0.455758,0.621112,49.578,0.865305,-0.037228,MOVE,1,13,0.865305,4.629998,6.251970,0
25.404329,0.043019,0.227657,-0.041250,0.870729,0.900943,0.058537,-0.028344,-0.122120,0.138360,49.672,0.866933,-0.122656,MOVE,0,13,0.866933,4.629998,6.251970,0
25.458342,0.054013,0.057460,-0.112411,0.895586,0.904440,0.243935,0.106351,0.084657,0.279252,50.128,0.874894,-0.196395,MOVE,0,13,0.874894,4.629998,6.251970,0
25.502831,0.044488,0.039519,-0.066337,0.958216,0.961322,0.180710,0.209893,0.113063,0.299156,50.620,0.883481,-0.211565,MOVE,0,13,0.883481,4.629998,6.251970,0
25.542811,0.039980,0.080492,-0.105416,1.116132,1.123984,0.129092,0.337869,0.198584,0.412621,51.126,0.892315,-0.078823,MOVE,0,13,0.892315,4.629998,6.251970,0
25.586514,0.043703,-0.025918,-0.099626,1.179493,1.183976,0.308076,0.310991,0.037926,0.439391,51.398,0.897063,0.094638,MOVE,0,13,0.897063,4.629998,6.251970,0
25.637024,0.050510,0.163651,-0.005789,1.245047,1.255770,0.395735,0.403843,0.080687,0.571144,51.799,0.904065,0.315367,MOVE,0,13,0.904065,4.629998,6.251970,0
25.681774,0.044750,-0.047639,-0.013267,1.100779,1.101889,-0.008963,-0.123639,0.211107,0.244812,52.508,0.916437,0.375531,MOVE,0,13,0.916437,4.629998,6.251970,0
25.725862,0.044088,0.117829,0.051715,1.238467,1.245134,-0.179700,-0.458088,-0.172822,0.521540,52.315,0.913078,0.558598,MOVE,0,13,0.913078,4.629998,6.251970,0
25.772907,0.047046,0.261842,-0.006031,1.077627,1.108999,-0.252393,-0.081184,-0.367077,0.452812,51.636,0.901223,0.600838,MOVE,0,13,0.901223,4.629998,6.251970,0
25.816298,0.043391,0.172621,-0.017127,0.968939,0.984344,-0.342801,0.218751,-0.176793,0.443419,51.267,0.894780,0.526664,MOVE,0,13,0.894780,4.629998,6.251970,0
25.860084,0.043786,0.128011,-0.022193,0.919468,0.928602,-0.444816,0.309770,-0.140141,0.559873,51.053,0.891043,0.409739,MOVE,0,13,0.891043,4.629998,6.251970,0
25.903416,0.043332,0.108373,-0.053552,0.960653,0.968229,-0.325086,0.088331,-0.113263,0.355404,50.954,0.889314,0.340171,MOVE,0,13,0.889314,4.629998,6.251970,0
25.946925,0.043509,0.070067,-0.113859,0.856594,0.866964,-0.180311,-0.101648,-0.090661,0.225973,50.972,0.889636,0.186422,MOVE,0,13,0.889636,4.629998,6.251970,0
25.992177,0.045252,0.128981,-0.038596,0.918250,0.928067,0.133368,-0.239704,-0.033850,0.276389,51.151,0.892748,0.103040,MOVE,0,13,0.892748,4.629998,6.251970,0
26.039752,0.047576,0.076370,-0.058135,0.834662,0.840162,-0.006520,-0.292238,-0.084858,0.304379,51.219,0.893942,-0.051118,MOVE,0,13,0.893942,4.629998,6.251970,0
26.083213,0.043460,0.125102,-0.006272,0.902409,0.911061,-0.032479,0.036710,-0.012164,0.050502,51.253,0.894525,-0.126051,MOVE,0,13,0.894525,4.629998,6.251970,0
26.136585,0.053372,0.007031,-0.029430,0.899485,0.899994,0.073506,0.153382,0.062675,0.181266,51.479,0.898479,-0.203452,MOVE,0,13,0.898479,4.629998,6.251970,0
26.185714,0.049129,0.026911,0.049287,1.197526,1.198842,0.573805,0.421246,0.068784,0.715145,51.573,0.900113,-0.004149,MOVE,1,14,0.900113,4.971835,6.682839,0
26.227812,0.042099,0.109586,-0.068991,1.184610,1.191667,0.468125,0.579155,-0.181671,0.766529,51.334,0.895947,0.168767,MOVE,0,14,0.895947,4.971835,6.682839,0
26.273590,0.045777,0.054550,0.003156,1.082014,1.083393,0.231721,0.404447,0.132008,0.484457,51.833,0.904662,0.226944,MOVE,0,14,0.904662,4.971835,6.682839,0
26.322851,0.049261,0.146922,0.087648,0.979661,0.994487,0.086335,0.281663,0.069395,0.302661,52.188,0.910848,0.199288,MOVE,0,14,0.910848,4.971835,6.682839,0
26.365360,0.042509,-0.103671,-0.069714,1.006712,1.014434,-0.272243,-0.497495,0.241353,0.616335,52.779,0.921163,0.192349,MOVE,0,14,0.921163,4.971835,6.682839,0
26.411591,0.046231,0.354456,0.018695,0.999157,1.060332,-0.031257,-0.369519,-0.466029,0.595570,51.907,0.905951,0.227413,MOVE,0,14,0.905951,4.971835,6.682839,0
26.454433,0.042843,0.179652,-0.138222,0.944325,0.971149,-0.210546,-0.242154,-0.061636,0.326752,51.940,0.906531,0.178706,MOVE,0,14,0.906531,4.971835,6.682839,0
26.498185,0.043752,0.217474,-0.070197,0.999157,1.024957,-0.108531,-0.145026,0.236161,0.297630,52.544,0.917074,0.183297,MOVE,0,14,0.917074,4.971835,6.682839,0
26.541116,0.042931,0.198563,-0.073091,0.933603,0.957279,-0.318353,-0.100117,0.074271,0.341889,52.884,0.923008,0.126519,MOVE,0,14,0.923008,4.971835,6.682839,0
26.583829,0.042713,0.112495,-0.100109,0.982829,0.994299,0.189581,-0.116305,0.311286,0.382579,53.637,0.936151,0.108736,MOVE,0,14,0.936151,4.971835,6.682839,0
26.626593,0.042764,0.059399,0.040789,0.966745,0.969427,0.299842,0.227307,0.091070,0.387127,53.703,0.937288,0.070346,MOVE,0,14,0.937288,4.971835,6.682839,0
26.669803,0.043210,0.058672,-0.044868,0.842704,0.845934,0.194163,-0.018261,-0.185958,0.269468,53.274,0.929808,-0.075347,MOVE,0,14,0.929808,4.971835,6.682839,0
26.712161,0.042358,0.114434,-0.078157,0.897292,0.907930,0.163009,-0.014596,-0.127315,0.207350,52.872,0.922787,-0.150676,MOVE,0,14,0.922787,4.971835,6.682839,0
26.761626,0.049464,0.032003,-0.044868,0.927510,0.929146,0.182231,0.088636,-0.081186,0.218302,52.594,0.917944,-0.199377,MOVE,0,14,0.917944,4.971835,6.682839,0
26.804121,0.042496,0.027639,-0.121337,0.922880,0.931232,0.360299,0.229441,-0.141967,0.450125,52.193,0.910942,-0.241330,MOVE,0,14,0.910942,4.971835,6.682839,0
26.846257,0.042135,0.053581,-0.083223,1.136358,1.140661,-0.055395,0.128953,-0.211911,0.254173,51.678,0.901959,-0.090602,MOVE,0,14,0.901959,4.971835,6.682839,0
26.888955,0.042698,0.120981,-0.090460,1.114669,1.124859,0.038982,0.091989,-0.229003,0.249848,51.049,0.890975,0.030831,MOVE,1,15,0.890975,5.317594,7.110565,0
26.935448,0.046494,-0.034804,0.027921,1.180711,1.181554,-0.154955,-0.095233,0.029085,0.184191,51.051,0.891011,0.191146,MOVE,0,15,0.891011,5.317594,7.110565,0
26.978447,0.042999,0.037822,0.020880,1.177787,1.178579,-0.106391,-0.469388,0.066348,0.485846,51.091,0.891714,0.332753,MOVE,0,15,0.891714,5.317594,7.110565,0
27.021672,0.043225,0.218686,0.079150,1.069829,1.094816,-0.013234,-0.179838,-0.143484,0.230444,50.527,0.881869,0.384812,MOVE,0,15,0.881869,5.317594,7.110565,0
27.070229,0.048556,0.104494,0.092747,0.953586,0.963767,-0.358373,0.106964,-0.063155,0.379290,50.130,0.874936,0.313721,MOVE,0,15,0.874936,5.317594,7.110565,0
27.114982,0.044753,0.142316,0.055599,0.978199,0.990060,-0.355013,0.336649,-0.132794,0.506953,49.702,0.867469,0.273403,MOVE,0,15,0.867469,5.317594,7.110565,0
27.156262,0.041280,0.023760,0.037390,0.987216,0.988209,-0.240476,0.183016,-0.104083,0.319620,49.320,0.860796,0.235451,MOVE,0,15,0.860796,5.317594,7.110565,0
27.201381,0.045120,0.054065,0.016267,0.988922,0.990532,-0.004375,-0.067133,-0.199057,0.210118,48.911,0.853661,0.203385,MOVE,0,15,0.853661,5.317594,7.110565,0
27.242648,0.041266,0.135285,-0.017368,0.953829,0.963532,0.084506,-0.180754,-0.209136,0.289052,48.467,0.845915,0.150226,MOVE,0,15,0.845915,5.317594,7.110565,0
27.287713,0.045065,0.097948,-0.006031,0.927267,0.932445,0.053352,-0.068660,0.078886,0.117404,48.605,0.848323,0.074403,MOVE,0,15,0.848323,5.317594,7.110565,0
27.335956,0.048243,0.060369,-0.005789,0.867804,0.869921,-0.095086,-0.042994,0.127119,0.164466,48.879,0.853103,-0.050108,MOVE,0,15,0.853103,5.317594,7.110565,0
27.373782,0.037826,0.050671,0.017724,0.877065,0.878706,-0.200447,-0.009699,-0.038124,0.204271,48.891,0.853304,-0.154262,MOVE,0,15,0.853304,5.317594,7.110565,0
27.422061,0.048279,-0.057266,-0.105416,0.964065,0.971500,-0.039789,-0.176465,-0.202753,0.271720,48.339,0.843679,-0.164485,MOVE,0,15,0.843679,5.317594,7.110565,0
27.466905,0.044845,0.126314,0.012868,1.083232,1.090648,0.384151,0.062384,-0.662123,0.768031,46.960,0.819615,-0.066453,MOVE,0,15,0.819615,5.317594,7.110565,0
27.508382,0.041477,0.079522,-0.120854,1.109795,1.119185,0.143165,0.176005,-0.183510,0.291804,46.630,0.813848,0.047459,MOVE,0,15,0.813848,5.317594,7.110565,0
27.553187,0.044805,0.122678,-0.059342,1.178518,1.186371,0.090020,0.238313,0.221799,0.337774,47.120,0.822396,0.210447,MOVE,0,15,0.822396,5.317594,7.110565,0
27.594620,0.041433,0.178683,0.044431,1.156342,1.170909,-0.043760,0.123165,0.285940,0.314398,47.836,0.834891,0.343220,MOVE,0,15,0.834891,5.317594,7.110565,0
27.639364,0.044743,0.069340,0.025493,1.078359,1.080886,-0.122562,-0.391184,0.171402,0.444325,48.361,0.844056,0.381695,MOVE,0,15,0.844056,5.317594,7.110565,0
27.688181,0.048817,0.297239,-0.014474,1.047165,1.088630,-0.143636,-0.206397,-0.057367,0.257919,48.229,0.841748,0.423293,MOVE,0,15,0.841748,5.317594,7.110565,0
27.726144,0.037963,0.171652,0.036419,0.975762,0.991414,-0.197698,0.077044,-0.038124,0.215578,48.104,0.839570,0.373237,MOVE,0,15,0.839570,5.317594,7.110565,0
27.774613,0.048468,0.106919,-0.089012,0.886325,0.897178,-0.387983,0.003435,0.146662,0.414792,48.356,0.843970,0.243373,MOVE,0,15,0.843970,5.317594,7.110565,0
27.819545,0.044932,0.132133,-0.138946,0.909720,0.929708,-0.125911,0.008321,0.013493,0.126905,48.370,0.844218,0.155772,MOVE,0,15,0.844218,5.317594,7.110565,0
27.860880,0.041336,0.125829,-0.001447,0.887300,0.896179,0.183187,-0.035356,-0.023159,0.188000,48.313,0.843216,0.046756,MOVE,0,15,0.843216,5.317594,7.110565,0
27.905699,0.044819,0.067885,-0.067061,0.908014,0.913015,0.096733,-0.188359,0.095955,0.232474,48.377,0.844332,-0.036206,MOVE,1,16,0.844332,5.682921,7.521705,0
27.946986,0.041287,0.114677,0.017967,0.925073,0.932327,0.137966,-0.146821,-0.012779,0.201877,48.282,0.842678,-0.093491,MOVE,0,16,0.842678,5.682921,7.521705,0
27.992076,0.045089,0.008970,-0.073815,0.986241,0.989040,0.044809,-0.173699,0.199497,0.268287,48.666,0.849390,-0.094006,MOVE,0,16,0.849390,5.682921,7.521705,0
28.040606,0.048530,0.075401,-0.023399,0.979418,0.982594,0.171564,-0.077487,-0.087915,0.207768,48.343,0.843750,-0.100270,MOVE,0,16,0.843750,5.682921,7.521705,0
28.085621,0.045015,-0.035297,-0.055000,1.046191,1.048230,0.114747,-0.133981,-0.047286,0.182631,48.015,0.838015,-0.046836,MOVE,0,16,0.838015,5.682921,7.521705,0
28.126902,0.041281,0.087523,-0.112894,1.136846,1.145785,0.108333,-0.031967,-0.320649,0.339961,47.176,0.823379,0.089054,MOVE,0,16,0.823379,5.682921,7.521705,0
28.171729,0.044827,0.160499,-0.082982,1.069585,1.084739,0.309308,0.224291,-0.079051,0.390162,46.828,0.817300,0.156414,MOVE,0,16,0.817300,5.682921,7.521705,0
28.213185,0.041456,0.184016,-0.000724,1.084938,1.100434,0.161478,0.401442,-0.013383,0.432909,46.721,0.815440,0.231163,MOVE,0,16,0.815440,5.682921,7.521705,0
28.258064,0.044879,-0.039987,0.024522,1.179249,1.180182,-0.099972,0.091122,0.627109,0.641532,48.136,0.840139,0.370210,MOVE,0,16,0.840139,5.682921,7.521705,0
28.306807,0.048743,0.208988,0.005099,1.213123,1.231003,-0.147925,-0.392988,-0.149301,0.445660,47.805,0.834358,0.541092,MOVE,0,16,0.834358,5.682921,7.521705,0
28.351655,0.044847,0.356153,-0.000965,1.053258,1.111844,-0.100583,0.101812,-0.161518,0.215803,47.459,0.828312,0.587643,MOVE,0,16,0.828312,5.682921,7.521705,0
28.395733,0.044078,0.175531,0.000971,0.996233,1.011579,-0.264600,0.288432,0.264866,0.472610,48.060,0.838804,0.539299,MOVE,0,16,0.838804,5.682921,7.521705,0
28.444334,0.048601,0.151286,0.020395,0.905334,0.918114,-0.375472,0.308285,0.066945,0.490409,48.270,0.842473,0.411672,MOVE,0,16,0.842473,5.682921,7.521705,0
28.489494,0.045161,0.041458,-0.011820,0.938233,0.939223,-0.176636,0.021178,0.196754,0.265256,48.634,0.848816,0.315805,MOVE,0,16,0.848816,5.682921,7.521705,0
28.531117,0.041622,0.080007,-0.028223,0.932140,0.935993,0.094891,-0.201469,-0.115095,0.250681,48.454,0.845690,0.226618,MOVE,0,16,0.845690,5.682921,7.521705,0
28.576089,0.044972,0.064248,-0.020263,0.915082,0.917558,0.099778,-0.304094,0.007383,0.320131,48.579,0.847870,0.129759,MOVE,0,16,0.847870,5.682921,7.521705,0
28.624569,0.048481,0.079037,0.015296,0.875846,0.879538,0.149564,-0.211548,0.268528,0.373135,49.369,0.861656,0.008368,MOVE,1,17,0.861656,6.041071,7.939113,0
28.669693,0.045123,0.076855,0.033020,0.859762,0.863822,-0.203211,-0.003854,0.308235,0.369213,50.133,0.874994,-0.115029,MOVE,0,17,0.874994,6.041071,7.939113,0
28.711088,0.041395,0.061581,-0.036425,1.025964,1.028456,0.042051,-0.000494,0.303348,0.306249,50.820,0.886970,-0.077916,MOVE,0,17,0.886970,6.041071,7.939113,0
28.756155,0.045067,0.086068,-0.022193,1.124661,1.128168,0.314497,0.107629,-0.053703,0.336714,50.709,0.885031,0.045226,MOVE,0,17,0.885031,6.041071,7.939113,0
28.804829,0.048674,0.073946,-0.110964,1.192165,1.199599,0.662691,0.208116,0.228822,0.731321,51.104,0.891924,0.220343,MOVE,0,17,0.891924,6.041071,7.939113,0
28.842725,0.037896,0.220626,-0.076227,1.148543,1.172023,0.398797,0.311352,0.060529,0.509552,51.268,0.894801,0.353129,MOVE,0,17,0.894801,6.041071,7.939113,0
28.891266,0.048541,0.191047,0.045645,1.056426,1.074532,0.330991,0.443299,0.449955,0.713112,52.375,0.914110,0.384895,MOVE,0,17,0.914110,6.041071,7.939113,0
28.936239,0.044973,-0.035297,0.013596,0.970645,0.971381,-0.177555,0.168104,0.859846,0.893935,54.142,0.944957,0.320649,MOVE,0,17,0.944957,6.041071,7.939113,0
28.977842,0.041603,0.124860,-0.042215,1.077140,1.085174,-0.060268,-0.732922,0.412082,0.842981,55.031,0.960479,0.365240,MOVE,0,17,0.960479,6.041071,7.939113,0
29.023123,0.045281,0.433978,-0.051381,1.103703,1.187071,0.352066,-0.195360,-0.102878,0.415571,54.666,0.954103,0.497080,MOVE,0,17,0.954103,6.041071,7.939113,0
29.071616,0.048493,0.275176,0.013839,0.849040,0.892627,-0.010788,0.162912,0.414830,0.445804,55.560,0.969713,0.350736,MOVE,0,17,0.969713,6.041071,7.939113,0
29.116508,0.044892,0.224990,-0.008443,0.876578,0.905030,-0.234365,0.240797,0.545861,0.640995,56.539,0.986794,0.230190,MOVE,0,17,0.986794,6.041071,7.939113,0
29.157910,0.041402,0.093099,-0.022916,0.843678,0.849109,-0.451222,-0.080212,0.282884,0.538571,57.073,0.996106,0.071369,MOVE,0,17,0.996106,6.041071,7.939113,0
29.203172,0.045261,0.069582,-0.060306,0.936527,0.941043,-0.016286,-0.236288,0.166819,0.289700,57.318,1.000393,0.011170,MOVE,1,18,1.000393,6.338056,8.402038,0
29.251632,0.048460,0.106919,-0.046798,0.955292,0.962395,0.175831,-0.082045,-0.081803,0.210570,57.003,0.994887,-0.023791,MOVE,0,18,0.994887,6.338056,8.402038,0
29.296825,0.045193,0.090675,-0.113376,0.923367,0.934710,0.173070,-0.060047,0.095649,0.206659,57.158,0.997597,-0.080173,MOVE,0,18,0.997597,6.338056,8.402038,0
29.338264,0.041439,0.101585,-0.112170,0.958216,0.970093,-0.048979,0.003178,0.323502,0.327204,57.696,1.006989,-0.099072,MOVE,0,18,1.006989,6.338056,8.402038,0
29.383312,0.045047,0.135042,-0.067061,1.067880,1.078471,0.142832,-0.030725,0.191861,0.241155,57.992,1.012154,-0.018541,MOVE,0,18,1.012154,6.338056,8.402038,0
29.431710,0.048398,0.207049,-0.191292,1.063493,1.100218,0.481557,0.137263,-0.109296,0.512527,57.507,1.003685,0.073509,MOVE,0,18,1.003685,6.338056,8.402038,0
29.469737,0.038027,0.156378,-0.054035,1.094686,1.107119,0.353581,0.377333,-0.191763,0.551518,56.806,0.991459,0.162565,MOVE,0,18,0.991459,6.338056,8.402038,0
29.518398,0.048661,0.080734,-0.177542,1.063006,1.080750,0.001112,0.382525,0.526309,0.650637,57.855,1.009760,0.218984,MOVE,0,18,1.009760,6.338056,8.402038,0
29.563378,0.044980,0.241234,-0.070438,1.006712,1.037605,-0.099681,0.588692,0.745916,0.955450,59.287,1.034761,0.230929,MOVE,0,18,1.034761,6.338056,8.402038,0
29.604794,0.041416,-0.003949,-0.108310,0.979661,0.985638,-0.251786,0.502560,0.916652,1.075274,61.172,1.067644,0.194911,MOVE,0,18,1.067644,6.338056,8.402038,0
29.649684,0.044890,0.117344,-0.039561,1.109308,1.116198,-0.281719,0.003483,0.300289,0.411766,61.907,1.080478,0.279999,MOVE,0,18,1.080478,6.338056,8.402038,0
29.698249,0.048565,0.328999,0.039090,0.978443,1.033014,-0.326923,0.274402,-0.328596,0.538656,60.954,1.063844,0.281712,MOVE,0,18,1.063844,6.338056,8.402038,0
29.743335,0.045085,0.188138,0.025008,0.958947,0.977548,-0.493078,0.205069,-0.326458,0.625903,60.136,1.049580,0.233334,MOVE,0,18,1.049580,6.338056,8.402038,0
29.785014,0.041680,0.168257,0.002428,0.943838,0.958721,-0.547140,0.417344,-0.282171,0.743746,59.447,1.037553,0.172850,MOVE,0,18,1.037553,6.338056,8.402038,0
29.829967,0.044952,0.118556,0.120911,0.967233,0.981944,-0.713295,0.286314,-0.737571,1.065259,57.664,1.006420,0.139315,MOVE,0,18,1.006420,6.338056,8.402038,0
29.878488,0.048521,0.080007,0.061912,0.948712,0.954090,-1.114023,-0.074707,-1.336830,1.741764,55.343,0.965922,0.084064,MOVE,0,18,0.965922,6.338056,8.402038,0
29.916419,0.037931,0.127042,-0.164516,0.961140,0.983360,-0.795762,0.103665,-1.309951,1.536215,52.541,0.917011,0.060682,MOVE,0,18,0.917011,6.338056,8.402038,0
29.964981,0.048562,0.152983,-0.352913,0.947493,1.022593,0.381681,0.151007,-1.377147,1.437016,50.045,0.873445,0.074947,MOVE,0,18,0.873445,6.338056,8.402038,0
30.010203,0.045222,0.044368,-0.182608,0.982829,1.000634,0.924129,-0.214901,-0.671903,1.162605,48.946,0.854262,0.068022,MOVE,0,18,0.854262,6.338056,8.402038,0
30.058707,0.048504,0.133588,-0.038114,0.935309,0.945569,0.750033,-0.115635,-0.703973,1.035132,48.279,0.842626,0.012232,MOVE,1,19,0.842626,6.704084,8.812555,0
30.096688,0.037981,0.016001,-0.037149,0.935796,0.936670,0.883812,-0.267130,-0.308438,0.973456,47.980,0.837407,-0.045989,MOVE,0,19,0.837407,6.704084,8.812555,0
30.145068,0.048380,0.140861,0.024036,0.995989,1.006188,0.608312,-0.047829,-0.424197,0.743151,47.448,0.828117,-0.035821,MOVE,0,19,0.828117,6.704084,8.812555,0
30.190116,0.045048,-0.071582,0.005341,0.908014,0.910847,0.453152,-0.180998,-0.282782,0.563979,47.126,0.822499,-0.112476,MOVE,0,19,0.822499,6.704084,8.812555,0
30.231612,0.041496,0.026184,0.037147,0.969426,0.970491,0.120230,-0.528580,-0.059205,0.545305,47.208,0.823928,-0.127787,MOVE,0,19,0.823928,6.704084,8.812555,0
30.276634,0.045022,0.038306,0.036662,1.055451,1.056782,-0.045925,-0.732915,0.182087,0.756590,47.755,0.833481,-0.063904,MOVE,0,19,0.833481,6.704084,8.812555,0
30.325126,0.048492,0.113222,0.048316,1.027670,1.035016,-0.004691,-0.647088,0.420630,0.771800,48.669,0.849426,-0.025999,MOVE,0,19,0.849426,6.704084,8.812555,0
30.362973,0.037847,0.136255,-0.014232,0.972838,0.982436,0.215831,-0.380446,0.700406,0.825767,50.307,0.878029,-0.039207,MOVE,0,19,0.878029,6.704084,8.812555,0
30.411415,0.048442,0.194199,-0.001206,1.027426,1.045619,0.273252,-0.357844,0.467361,0.648957,51.122,0.892244,0.005771,MOVE,0,19,0.892244,6.704084,8.812555,0
30.453281,0.041867,0.151286,-0.019781,1.047653,1.058705,0.440935,-0.256440,0.546163,0.747314,51.842,0.904814,0.058028,MOVE,0,19,0.904814,6.704084,8.812555,0
30.491226,0.037945,0.151771,0.024765,1.018653,1.030195,0.545393,-0.079594,0.579455,0.799723,52.854,0.922477,0.079401,MOVE,0,19,0.922477,6.704084,8.812555,0
30.539767,0.048541,0.222080,0.079150,0.999888,1.027308,0.234768,-0.113803,0.551355,0.609967,53.359,0.931283,0.096037,MOVE,0,19,0.931283,6.704084,8.812555,0
30.577713,0.037946,0.149347,0.015053,1.012560,1.023626,0.159631,-0.074707,0.505540,0.535382,53.999,0.942453,0.107697,MOVE,0,19,0.942453,6.704084,8.812555,0
30.626333,0.048620,0.165348,0.084492,1.019871,1.036637,0.468729,0.006538,0.577317,0.743669,54.704,0.954758,0.129900,MOVE,0,19,0.954758,6.704084,8.812555,0
30.671354,0.045022,0.169227,0.079393,1.104190,1.119901,0.204835,0.105192,0.515619,0.564700,55.083,0.961380,0.224821,MOVE,0,19,0.961380,6.704084,8.812555,0
30.712733,0.041379,0.125829,0.156844,0.960897,0.981710,0.227743,0.094197,0.339385,0.419430,55.103,0.961726,0.185878,MOVE,0,19,0.961726,6.704084,8.812555,0
30.757711,0.044978,0.124617,0.104886,1.054964,1.067464,-0.118007,-0.182831,0.214463,0.305527,54.820,0.956796,0.228008,MOVE,0,19,0.956796,6.704084,8.812555,0
30.806269,0.048558,0.179168,0.166313,0.973325,1.003555,-0.048674,-0.142208,0.174451,0.230273,54.324,0.948135,0.208407,MOVE,0,19,0.948135,6.704084,8.812555,0
30.851125,0.044856,0.256508,0.096874,0.988922,1.026230,-0.254535,-0.086925,0.027843,0.270406,53.656,0.936478,0.211173,MOVE,0,19,0.936478,6.704084,8.812555,0
30.892558,0.041434,0.257720,0.041032,0.994527,1.028196,-0.408473,0.053269,0.058081,0.416007,53.005,0.925114,0.215432,MOVE,0,19,0.925114,6.704084,8.812555,0
30.937474,0.044916,0.149832,-0.058618,1.021333,1.033928,-0.406030,-0.046913,-0.302024,0.508212,51.972,0.907091,0.224424,MOVE,0,19,0.907091,6.704084,8.812555,0
30.979014,0.041540,0.226929,-0.180919,1.097123,1.134860,0.012107,-0.107083,0.331749,0.348813,52.322,0.913191,0.323356,MOVE,0,19,0.913191,6.704084,8.812555,0
31.024154,0.045139,0.204139,-0.101556,0.990871,1.016766,0.162686,-0.205738,0.384283,0.465262,52.914,0.923530,0.306110,MOVE,0,19,0.923530,6.704084,8.812555,0
31.073375,0.049221,0.161954,-0.029671,0.977712,0.991479,0.162686,-0.375864,0.431931,0.595235,53.395,0.931913,0.267829,MOVE,0,19,0.931913,6.704084,8.812555,0
31.116309,0.042934,0.262084,0.037147,0.938477,0.975093,1.339517,0.206901,0.099315,1.359036,53.094,0.926666,0.218630,MOVE,0,19,0.926666,6.704084,8.812555,0
31.170160,0.053851,0.320756,-0.037631,0.948224,1.001714,-0.138471,0.359007,-0.236050,0.451420,52.008,0.907718,0.198309,MOVE,0,19,0.907718,6.704084,8.812555,0
31.213643,0.043483,0.200260,0.021851,0.877065,0.899903,-0.291798,-0.130296,-0.140755,0.349192,50.994,0.890006,0.088391,MOVE,0,19,0.890006,6.704084,8.812555,0
31.257010,0.043367,0.157590,-0.010373,0.992577,1.005063,-0.457648,0.006843,0.076102,0.463983,50.582,0.882828,0.084108,MOVE,0,19,0.882828,6.704084,8.812555,0
31.304417,0.047407,0.092614,-0.011096,0.919225,0.923945,-0.072803,-0.413127,0.572735,0.709929,51.253,0.894525,0.007248,MOVE,1,20,0.894525,7.048323,9.241506,0
31.347892,0.043475,0.224747,0.014082,1.111745,1.134322,0.061893,-0.228951,0.496377,0.550127,51.758,0.903342,0.127413,MOVE,0,20,0.903342,7.048323,9.241506,0
31.391389,0.043498,0.292875,-0.050657,0.914107,0.961214,-0.807368,-0.000182,0.132607,0.818186,51.567,0.900011,0.079765,MOVE,0,20,0.900011,7.048323,9.241506,0
31.441833,0.050443,0.242688,-0.033530,0.957241,0.988095,-0.709019,-0.045997,0.193082,0.736278,51.540,0.899537,0.061074,MOVE,0,20,0.899537,7.048323,9.241506,0
31.485175,0.043343,0.169227,-0.125679,0.992334,1.014475,-0.849518,-0.067683,0.351907,0.922009,51.854,0.905021,0.067994,MOVE,0,20,0.905021,7.048323,9.241506,0
31.528875,0.043700,0.269357,-0.184538,1.057888,1.107129,-0.985130,-0.126936,0.391919,1.067799,52.581,0.917713,0.157611,MOVE,0,20,0.917713,7.048323,9.241506,0
31.579493,0.050618,0.269842,-0.229888,1.047896,1.106232,-1.081036,0.475682,0.098398,1.185156,52.323,0.913207,0.237459,MOVE,0,20,0.913207,7.048323,9.241506,0
31.622821,0.043328,0.125102,-0.136534,1.076409,1.092222,-0.830887,0.413679,-0.076004,0.931279,51.794,0.903978,0.296713,MOVE,0,20,0.903978,7.048323,9.241506,0
31.666322,0.043501,0.146437,-0.145218,1.172669,1.190666,-0.222465,-0.042026,-0.148697,0.270864,51.333,0.895931,0.438641,MOVE,0,20,0.895931,7.048323,9.241506,0
31.716978,0.050657,0.222323,-0.015438,1.074703,1.097567,-0.047757,0.052658,0.269441,0.278661,51.729,0.902841,0.482587,MOVE,0,20,0.902841,7.048323,9.241506,0
31.760855,0.043877,0.171167,-0.164034,1.134409,1.158917,-0.899915,0.592357,-0.349060,1.132509,50.735,0.885492,0.577353,MOVE,0,20,0.885492,7.048323,9.241506,0
31.811611,0.050755,0.004122,-0.075986,1.088838,1.091493,-0.582570,0.377638,-0.929993,1.160554,48.572,0.847746,0.601962,MOVE,0,20,0.847746,7.048323,9.241506,0
31.854969,0.043359,0.128496,0.062155,0.989897,1.000135,-0.024545,-0.496204,-0.796214,0.938498,47.034,0.820906,0.541887,MOVE,0,20,0.820906,7.048323,9.241506,0
31.898471,0.043501,0.217959,-0.022434,0.970157,0.994593,-0.052644,0.186437,-0.567750,0.599892,45.993,0.802721,0.482832,MOVE,0,20,0.802721,7.048323,9.241506,0
31.941898,0.043427,0.250689,-0.040043,0.848309,0.885481,-0.159546,0.312581,-0.263845,0.439062,45.723,0.798015,0.331481,MOVE,0,20,0.798015,7.048323,9.241506,0
31.985480,0.043582,0.184016,-0.096249,0.946519,0.969032,0.104959,0.700481,-0.059510,0.710796,45.754,0.798555,0.270462,MOVE,0,20,0.798555,7.048323,9.241506,0
32.036326,0.050846,0.120738,-0.119648,0.976737,0.991417,-0.118923,0.363588,-0.197566,0.430548,45.803,0.799413,0.235691,MOVE,0,20,0.799413,7.048323,9.241506,0
32.079809,0.043483,0.047762,-0.085153,0.993552,0.998338,0.144665,0.200793,-0.095246,0.265174,46.034,0.803449,0.210626,MOVE,0,20,0.803449,7.048323,9.241506,0
32.130307,0.050498,0.128496,-0.073815,0.884620,0.896946,0.160853,0.252716,-0.048515,0.303468,46.526,0.812027,0.096815,MOVE,0,20,0.812027,7.048323,9.241506,0
32.173973,0.043666,0.128981,-0.034495,0.999888,1.008763,0.254315,0.435365,0.089846,0.512144,47.218,0.824116,0.095020,MOVE,0,20,0.824116,7.048323,9.241506,0
32.217457,0.043483,0.109343,-0.118201,0.975275,0.988478,0.218580,0.357174,0.102369,0.431080,48.004,0.837831,0.075148,MOVE,0,20,0.837831,7.048323,9.241506,0
32.268299,0.050843,0.133103,-0.132674,1.100779,1.116706,0.231408,0.151313,0.081905,0.288364,48.891,0.853315,0.172668,MOVE,0,20,0.853315,7.048323,9.241506,0
32.311670,0.043371,0.064248,-0.178266,1.005250,1.022953,0.185288,0.102138,0.217212,0.303224,49.993,0.872550,0.176059,MOVE,0,20,0.872550,7.048323,9.241506,0
32.354881,0.043211,-0.084665,-0.258594,1.106384,1.139352,0.414057,-0.096699,-0.251017,0.493764,50.149,0.875270,0.283871,MOVE,0,20,0.875270,7.048323,9.241506,0
32.405419,0.050538,0.011880,-0.155832,0.918981,0.932175,0.057922,0.003789,-0.236050,0.243083,50.166,0.875570,0.194441,MOVE,0,20,0.875570,7.048323,9.241506,0
32.448695,0.043276,0.022305,-0.142565,1.082258,1.091835,0.187731,0.176969,-0.262928,0.368364,50.101,0.874436,0.257649,MOVE,0,20,0.874436,7.048323,9.241506,0
32.492066,0.043370,0.052368,-0.116512,0.970645,0.979014,0.069223,0.210872,-0.192373,0.293711,50.005,0.872758,0.212996,MOVE,0,20,0.872758,7.048323,9.241506,0
32.542855,0.050789,0.106434,-0.073815,1.026939,1.035075,-0.108233,0.625039,-0.077225,0.639024,50.084,0.874132,0.223264,MOVE,0,20,0.874132,7.048323,9.241506,0
32.586290,0.043435,0.091402,-0.022434,0.942132,0.946821,0.020354,0.267072,-0.232080,0.354405,50.008,0.872801,0.153077,MOVE,0,20,0.872801,7.048323,9.241506,0
32.629620,0.043330,0.138921,0.017238,0.925561,0.936087,-0.150994,0.497979,-0.044239,0.522244,50.204,0.876231,0.080247,MOVE,0,20,0.876231,7.048323,9.241506,0
32.680330,0.050710,0.063278,-0.040285,0.813947,0.817397,-0.341584,0.237445,-0.241243,0.480892,50.314,0.878150,-0.092120,MOVE,0,20,0.878150,7.048323,9.241506,0
32.723775,0.043444,0.097221,-0.029430,0.790553,0.797052,-0.376403,0.303724,0.058081,0.487135,51.025,0.890546,-0.265562,MOVE,0,20,0.890546,7.048323,9.241506,0
32.767170,0.043395,-0.045171,-0.090942,0.845141,0.851219,-0.181232,0.270737,0.173229,0.368987,52.147,0.910145,-0.372909,MOVE,0,20,0.910145,7.048323,9.241506,0
32.817603,0.050433,-0.001975,-0.073574,0.834905,0.838143,-0.174207,-0.336158,0.413299,0.560505,53.838,0.939648,-0.481289,MOVE,0,20,0.939648,7.048323,9.241506,0
32.860959,0.043356,-0.036285,-0.195634,0.903140,0.924798,-0.207499,0.344957,0.255696,0.476898,55.155,0.962637,-0.500841,MOVE,0,20,0.962637,7.048323,9.241506,0
32.904512,0.043553,-0.108855,-0.160415,0.752292,0.776869,0.352665,-0.595775,0.578844,0.902431,57.159,0.997621,-0.651575,MOVE,0,20,0.997621,7.048323,9.241506,0
32.954980,0.050467,0.035882,-0.213967,1.111745,1.132716,1.278736,-0.017897,-0.005449,1.278873,57.727,1.007532,-0.466973,MOVE,0,20,1.007532,7.048323,9.241506,0
32.999261,0.044281,-0.026658,-0.130986,0.794452,0.805619,0.946120,-0.378307,-0.220779,1.042595,57.771,1.008287,-0.595218,MOVE,0,20,1.008287,7.048323,9.241506,0
33.042878,0.043617,-0.101943,-0.000724,1.094199,1.098938,1.268657,-0.181303,-0.047904,1.282442,58.056,1.013274,-0.446653,MOVE,0,20,1.013274,7.048323,9.241506,0
33.086414,0.043536,0.033458,-0.013026,1.217753,1.218282,-0.092961,1.008357,0.556853,1.155643,59.963,1.046549,-0.205533,MOVE,0,20,1.046549,7.048323,9.241506,0
33.136812,0.050399,-0.205367,-0.230612,1.158779,1.199219,-0.307681,-0.338296,0.416354,0.618435,61.606,1.075220,-0.005683,MOVE,1,21,1.075220,7.309869,9.725338,0
33.187347,0.050534,-0.049120,-0.140635,1.140014,1.149705,-0.209331,0.150091,0.147268,0.296706,62.098,1.083823,0.129620,MOVE,0,21,1.083823,7.309869,9.725338,0
33.230582,0.043236,-0.088120,-0.035943,1.240661,1.244305,0.847160,-0.305615,0.124666,0.909188,62.619,1.092907,0.336533,MOVE,0,21,1.092907,7.309869,9.725338,0
33.274277,0.043695,-0.028880,0.011897,1.062518,1.062977,1.064934,0.450942,0.063274,1.158204,62.924,1.098235,0.359559,MOVE,0,21,1.098235,7.309869,9.725338,0
33.317575,0.043298,0.039519,0.109742,1.118812,1.124876,1.283929,-0.229256,-0.176796,1.316164,62.534,1.091419,0.435992,MOVE,0,21,1.091419,7.309869,9.725338,0
33.360911,0.043336,0.108858,0.171897,1.085426,1.104331,1.197491,-0.063406,0.219655,1.219120,63.011,1.099745,0.486291,MOVE,0,21,1.099745,7.309869,9.725338,0
33.404474,0.043563,-0.005430,0.099545,1.024014,1.028855,1.440616,0.202320,0.030592,1.455075,63.620,1.110374,0.463632,MOVE,0,21,1.110374,7.309869,9.725338,0
33.454834,0.050361,-0.118481,0.209530,1.170476,1.194971,-0.884643,0.079536,0.587091,1.064704,64.949,1.133574,0.592742,MOVE,0,21,1.133574,7.309869,9.725338,0
33.498567,0.043733,-0.186608,0.014810,1.159510,1.174523,-0.260339,0.209956,0.332665,0.471724,66.100,1.153668,0.690538,MOVE,0,21,1.153668,7.309869,9.725338,0
33.549227,0.050660,0.023032,0.186222,0.991115,1.008721,-0.424967,0.411847,0.451173,0.744158,67.265,1.173996,0.629334,MOVE,0,21,1.173996,7.309869,9.725338,0
33.592869,0.043642,-0.211538,0.250076,1.001594,1.053792,-0.156491,-0.092117,0.136883,0.227403,67.792,1.183186,0.614813,MOVE,0,21,1.183186,7.309869,9.725338,0
33.636164,0.043295,-0.103177,0.137906,1.012317,1.026864,-1.221841,0.958266,0.438345,1.613479,69.090,1.205851,0.577509,MOVE,0,21,1.205851,7.309869,9.725338,0
33.687121,0.050957,-0.048133,0.109257,1.019384,1.026351,-0.591428,0.041968,-0.046682,0.594750,69.178,1.207383,0.543474,MOVE,0,21,1.207383,7.309869,9.725338,0
33.730704,0.043582,-0.081949,0.075751,0.984779,0.991082,-0.132668,-0.771399,-0.678622,1.035947,67.783,1.183030,0.481101,MOVE,0,21,1.183030,7.309869,9.725338,0
33.781166,0.050462,-0.231779,-0.223858,0.997207,1.047977,-0.151605,-0.429620,0.011961,0.455742,68.211,1.190510,0.476170,MOVE,0,21,1.190510,7.309869,9.725338,0
33.824555,0.043389,-0.091082,-0.044386,0.882670,0.888466,-0.520262,-1.439686,0.629851,1.655319,70.233,1.225792,0.328173,MOVE,0,21,1.225792,7.309869,9.725338,0
33.867942,0.043388,0.075401,-0.073091,1.453408,1.457197,-0.032180,-0.440005,1.093498,1.179143,72.817,1.270900,0.706833,MOVE,0,21,1.270900,7.309869,9.725338,0
33.918596,0.050654,-0.034310,-0.048004,0.985510,0.987275,0.060671,-0.442754,0.655202,0.793096,74.133,1.293858,0.624697,MOVE,0,21,1.293858,7.309869,9.725338,0
33.962175,0.043579,0.060854,0.022823,1.008174,1.010267,-0.017825,0.034027,0.203773,0.207362,74.252,1.295943,0.571467,MOVE,0,21,1.295943,7.309869,9.725338,0
34.005817,0.043643,0.028609,-0.023399,1.011829,1.012504,-0.012325,0.006844,0.003714,0.014579,74.003,1.291592,0.525574,MOVE,0,21,1.291592,7.309869,9.725338,0
34.056349,0.050531,0.002424,-0.025570,0.932628,0.932981,-0.018129,0.017228,0.003713,0.025283,73.776,1.287639,0.412700,MOVE,0,21,1.287639,7.309869,9.725338,0
34.099786,0.043437,0.023760,-0.035460,1.008174,1.009077,-0.004995,0.005016,0.004935,0.008629,73.562,1.283893,0.379599,MOVE,0,21,1.283893,7.309869,9.725338,0
34.143185,0.043400,0.024245,-0.016403,1.018897,1.019317,0.009055,-0.007200,0.080682,0.081507,73.421,1.281436,0.359025,MOVE,0,21,1.281436,7.309869,9.725338,0
34.193990,0.050804,-0.000741,-0.045833,0.971619,0.972700,-0.021793,0.001050,0.005850,0.022589,73.222,1.277963,0.298552,MOVE,0,21,1.277963,7.309869,9.725338,0
34.237404,0.043415,0.013092,-0.020022,1.025233,1.025512,0.005697,-0.056064,0.002795,0.056422,73.018,1.274411,0.291658,MOVE,0,21,1.274411,7.309869,9.725338,0
34.288245,0.050841,0.021093,-0.020745,1.003056,1.003492,-0.003771,-0.003226,0.004016,0.006384,72.853,1.271517,0.265635,MOVE,0,21,1.271517,7.309869,9.725338,0
34.331654,0.043409,0.029094,-0.029188,1.032544,1.033366,-0.000411,-0.008720,0.002794,0.009166,72.691,1.268694,0.269101,MOVE,0,21,1.268694,7.309869,9.725338,0
34.375205,0.043551,0.021335,-0.022916,1.008905,1.009391,0.001728,-0.013913,-0.074475,0.075783,72.462,1.264703,0.250642,MOVE,0,21,1.264703,7.309869,9.725338,0
