timestamp,dt,heading_rad,accel_x,accel_y,accel_z,accel_norm,gyro_x_rads,gyro_y_rads,gyro_z_rads,step_event
0.00044,0.00044,2.218683,0.063763,0.082792,0.994771,1.000244,-0.164133,1.047115,-0.039104,0
0.143872,0.143432,2.220382,0.071279,0.09736,0.967476,0.974972,-0.15894,1.044977,-0.032385,0
0.19251,0.048638,2.220909,0.069582,0.099545,0.971619,0.979181,-0.163827,1.048947,-0.029636,0
0.238776,0.046266,2.222368,0.070309,0.093475,0.969182,0.976215,-0.15894,1.053529,-0.029025,0
0.288785,0.050009,2.224289,0.075886,0.093475,0.986241,0.993563,-0.164438,1.052918,-0.026582,0
0.334043,0.045258,2.225904,0.077098,0.092261,0.988678,0.995962,-0.165965,1.044366,-0.024749,0
0.375436,0.041393,2.226647,0.072006,0.091533,0.978443,0.985349,-0.163217,1.039479,-0.023527,0
0.413359,0.037924,2.22695,0.066673,0.084735,0.976981,0.982912,-0.163217,1.041312,-0.027498,0
0.461694,0.048335,2.226489,0.061096,0.079636,0.977955,0.983093,-0.165355,1.049864,-0.031163,0
0.499746,0.038052,2.225801,0.059399,0.084492,0.981855,0.987272,-0.164744,1.04742,-0.031163,0
0.541113,0.041367,2.224968,0.059884,0.084249,0.967964,0.973467,-0.161689,1.044671,-0.031469,0
0.586134,0.045021,2.224263,0.072976,0.092747,0.984048,0.991099,-0.168103,1.055362,-0.026582,0
0.627519,0.041385,2.223377,0.069097,0.087163,0.962115,0.968523,-0.169936,1.0575,-0.024138,0
0.665656,0.038137,2.222466,0.044852,0.079393,0.972594,0.976859,-0.163217,1.041617,-0.029636,0
0.714319,0.048663,2.221767,0.052853,0.081093,0.977468,0.982249,-0.1623,1.045282,-0.028109,0
0.752196,0.037877,2.22117,0.052126,0.081093,0.984292,0.989001,-0.164133,1.055667,-0.032385,0
0.79364,0.041444,2.220461,0.056005,0.08959,0.993065,0.998669,-0.166576,1.052613,-0.03269,0
0.846722,0.053082,2.22026,0.057702,0.076722,0.982829,0.987507,-0.159857,1.031843,-0.031774,0
0.888731,0.042009,2.220265,0.060854,0.083763,0.976493,0.981967,-0.165049,1.04009,-0.02872,0
0.933905,0.045173,2.220279,0.044125,0.082064,0.966989,0.971468,-0.157108,1.042533,-0.027498,0
0.97551,0.041606,2.220051,0.039519,0.09299,0.988678,0.993828,-0.162911,1.044977,-0.031469,0
1.021474,0.045963,2.219009,0.047519,0.077451,0.96967,0.973918,-0.15894,1.044366,-0.031774,0
1.063268,0.041795,2.218096,0.051156,0.077208,0.984048,0.988397,-0.161995,1.041617,-0.028109,0
1.108549,0.04528,2.217913,0.047035,0.082064,0.982342,0.986885,-0.162911,1.041922,-0.027192,0
1.150163,0.041615,2.217111,0.047762,0.081821,0.982829,0.987385,-0.159551,1.043755,-0.029941,0
1.196223,0.04606,2.217096,0.049701,0.08959,0.987703,0.993003,-0.161689,1.035508,-0.028109,0
1.244886,0.048663,2.216774,0.049701,0.082064,0.973325,0.978042,-0.160773,1.039174,-0.02872,0
1.285953,0.041067,2.217575,0.050186,0.080607,0.976981,0.981584,-0.161995,1.036425,-0.027498,0
1.324104,0.03815,2.218026,0.04558,0.083035,0.981855,0.986413,-0.162606,1.040701,-0.025971,0
1.369106,0.045002,2.218256,0.047277,0.08692,0.992577,0.997497,-0.16566,1.04009,-0.023222,0
1.410838,0.041732,2.217563,0.040731,0.083278,0.974787,0.979186,-0.1623,1.035203,-0.027192,0
1.455833,0.044995,2.216931,0.043398,0.07915,0.969913,0.974105,-0.158635,1.030927,-0.028414,0
1.49766,0.041827,2.216447,0.04558,0.085706,0.978199,0.983004,-0.160468,1.041312,-0.024749,0
1.542664,0.045004,2.216313,0.036367,0.082064,0.976006,0.980125,-0.163522,1.045588,-0.025054,0
1.584488,0.041823,2.216177,0.037579,0.078908,0.981124,0.985009,-0.15833,1.037036,-0.026582,0
1.62955,0.045062,2.215852,0.036367,0.085463,0.991602,0.995943,-0.157413,1.037646,-0.029636,0
1.671063,0.041513,2.215261,0.035155,0.077451,0.989409,0.993058,-0.160468,1.031843,-0.031163,0
1.716157,0.045094,2.214726,0.036609,0.07915,0.983317,0.987176,-0.162911,1.031232,-0.031469,0
1.757577,0.04142,2.214487,0.040004,0.084006,0.976006,0.980431,-0.160162,1.035814,-0.031469,0
1.795635,0.038058,2.214601,0.039034,0.087163,0.977955,0.982608,-0.160162,1.032454,-0.031774,0
1.844138,0.048503,2.214841,0.048247,0.09566,0.981855,0.987683,-0.1623,1.038868,-0.028414,0
1.882256,0.038117,2.214698,0.038791,0.083763,0.980149,0.984486,-0.156192,1.032454,-0.025971,0
1.923712,0.041457,2.21417,0.036609,0.08522,0.984779,0.989137,-0.163217,1.03337,-0.027803,0
1.968668,0.044956,2.214221,0.033942,0.077451,0.97235,0.976021,-0.159551,1.029705,-0.027192,0
2.010762,0.042094,2.213904,0.034427,0.082792,0.984535,0.98861,-0.15894,1.03276,-0.031163,0
2.055849,0.045087,2.214138,0.037337,0.08692,0.991359,0.995862,-0.164133,1.026956,-0.029025,0
2.097316,0.041467,2.2139,0.044368,0.089348,0.974544,0.979636,-0.1623,1.028789,-0.023833,0
2.142289,0.044973,2.213392,0.039761,0.084735,0.976006,0.980484,-0.162911,1.032454,-0.024138,0
2.183709,0.04142,2.213006,0.042186,0.080607,0.976737,0.980965,-0.164744,1.03673,-0.027803,0
2.221614,0.037905,2.212429,0.03176,0.071867,0.966258,0.969447,-0.156192,1.04009,-0.030858,0
2.270077,0.048463,2.212633,0.033942,0.082064,0.98746,0.991445,-0.155886,1.036119,-0.030552,0
2.309762,0.039685,2.212601,0.04267,0.092261,0.987947,0.993163,-0.165049,1.037646,-0.025971,0
2.35135,0.041588,2.213953,0.04267,0.084249,0.983804,0.988327,-0.158024,1.035203,-0.022,0
2.393148,0.041798,2.215469,0.039276,0.086191,0.987947,0.992477,-0.163827,1.037036,-0.023833,0
2.438108,0.04496,2.216161,0.029336,0.075266,0.98746,0.990758,-0.163217,1.033676,-0.026887,0
2.479502,0.041394,2.216827,0.032973,0.07915,0.979174,0.982921,-0.161079,1.027873,-0.029941,0
2.517765,0.038263,2.217146,0.033942,0.077936,0.980149,0.983828,-0.160773,1.033981,-0.031163,0
2.566442,0.048677,2.218107,0.03564,0.084977,0.985266,0.989566,-0.159857,1.028789,-0.030247,0
2.604475,0.038033,2.219101,0.039519,0.085463,0.980149,0.984661,-0.1623,1.032454,-0.028109,0
2.64671,0.042235,2.220149,0.042186,0.08692,0.977224,0.981989,-0.160468,1.031538,-0.029025,0
2.688896,0.042186,2.220675,0.042186,0.086677,0.975762,0.980512,-0.159246,1.03276,-0.023527,0
2.734031,0.045135,2.22121,0.038306,0.087405,0.979418,0.984056,-0.160773,1.03673,-0.023222,0
2.775821,0.04179,2.221398,0.027881,0.079393,0.981611,0.985211,-0.160468,1.031538,-0.029941,0
2.821009,0.045188,2.221862,0.0337,0.087163,0.985754,0.990173,-0.164744,1.036425,-0.02872,0
2.862558,0.041549,2.222053,0.035155,0.074295,0.977224,0.980675,-0.160162,1.034287,-0.028414,0
2.907909,0.045351,2.222162,0.037579,0.082792,0.991602,0.995762,-0.1623,1.033676,-0.030858,0
2.949467,0.041558,2.22236,0.037094,0.082792,0.995989,1.000112,-0.165049,1.03337,-0.031163,0
2.994802,0.045335,2.22226,0.038791,0.080364,0.976737,0.980805,-0.163827,1.028483,-0.02933,0
3.036411,0.041609,2.222689,0.03467,0.080364,0.96967,0.973612,-0.156192,1.032454,-0.029636,0
3.081717,0.045306,2.22302,0.03564,0.092504,0.994039,0.99897,-0.165049,1.032149,-0.026887,0
3.123344,0.041627,2.222918,0.030306,0.08085,0.97893,0.982731,-0.158635,1.0294,-0.029025,0
3.168482,0.045138,2.222854,0.038791,0.08522,0.980149,0.984611,-0.160468,1.03337,-0.02872,0
3.210022,0.041541,2.222984,0.042428,0.081336,0.975518,0.979822,-0.157108,1.033676,-0.024138,0
3.25515,0.045127,2.223576,0.032245,0.08085,0.986972,0.990803,-0.158635,1.033065,-0.026582,0
3.296591,0.041441,2.223866,0.029578,0.073566,0.981124,0.984322,-0.159857,1.031538,-0.030552,0
3.335118,0.038527,2.224173,0.037822,0.086434,0.991115,0.995595,-0.161689,1.030011,-0.02933,0
3.377214,0.042096,2.224336,0.034912,0.078665,0.979174,0.982949,-0.158635,1.027873,-0.02933,0
3.41889,0.041677,2.224419,0.036609,0.080364,0.98551,0.989459,-0.162606,1.032149,-0.027498,0
3.463878,0.044987,2.223881,0.024002,0.074052,0.97235,0.975461,-0.159551,1.027567,-0.032996,0
3.505817,0.04194,2.223173,0.027154,0.07915,0.992334,0.995855,-0.161384,1.026651,-0.036355,0
3.550894,0.045077,2.222001,0.04558,0.081578,0.987947,0.992357,-0.164438,1.026651,-0.030247,0
3.592606,0.041712,2.221486,0.044125,0.087891,0.984292,0.989192,-0.165355,1.028483,-0.026276,0
3.637655,0.045048,2.220595,0.040004,0.080364,0.971863,0.976,-0.156802,1.028178,-0.02536,0
3.679287,0.041633,2.219647,0.036852,0.082307,0.98551,0.989627,-0.1623,1.032454,-0.023833,0
3.724732,0.045445,2.218685,0.023275,0.078179,0.986241,0.989609,-0.160162,1.026956,-0.02933,0
3.766305,0.041573,2.21872,0.0337,0.082549,0.980149,0.984196,-0.158635,1.027567,-0.032079,0
3.80477,0.038465,2.219053,0.044368,0.082064,0.97893,0.983365,-0.159246,1.032454,-0.027192,0
3.847629,0.042859,2.218923,0.032003,0.076965,0.968451,0.972032,-0.15894,1.026651,-0.028414,0
3.8979,0.050271,2.218107,0.032973,0.082307,0.986972,0.990947,-0.160162,1.030621,-0.02872,0
3.948693,0.050792,2.217208,0.032488,0.075751,0.982342,0.985794,-0.157719,1.026345,-0.027803,0
3.992568,0.043875,2.216622,0.036124,0.07915,0.994283,0.998083,-0.163827,1.026956,-0.029941,0
4.036547,0.04398,2.215927,0.040488,0.077208,0.979661,0.983533,-0.161079,1.025735,-0.02872,0
4.0803,0.043753,2.214696,0.042913,0.07915,0.97893,0.983062,-0.159857,1.025124,-0.025054,0
4.134682,0.054382,2.213416,0.033458,0.078422,0.989165,0.992833,-0.163522,1.024207,-0.03269,0
4.178449,0.043767,2.213326,0.036609,0.082064,0.977955,0.982075,-0.163217,1.024818,-0.028109,0
4.222297,0.043848,2.213286,0.033215,0.08085,0.979418,0.98331,-0.160468,1.027567,-0.02872,0
4.266067,0.04377,2.212801,0.028366,0.080607,0.984048,0.987751,-0.161995,1.025124,-0.032079,0
4.316974,0.050907,2.211075,0.03467,0.07648,0.985023,0.988595,-0.1623,1.023902,-0.032079,0
4.36098,0.044007,2.209734,0.039761,0.075994,0.986729,0.990449,-0.161995,1.025124,-0.030858,0
4.405709,0.044728,2.208877,0.038064,0.083278,0.987947,0.992181,-0.161689,1.022986,-0.025665,0
4.45619,0.050481,2.207551,0.044125,0.078665,0.978687,0.982834,-0.155886,1.023597,-0.023833,0
4.506866,0.050676,2.207149,0.043883,0.076237,0.984292,0.988214,-0.157719,1.02604,-0.025054,0
4.550609,0.043744,2.206866,0.037337,0.075508,0.984779,0.988375,-0.157413,1.024513,-0.02933,0
4.59456,0.043951,2.206618,0.037094,0.078908,0.992577,0.9964,-0.161995,1.024513,-0.022611,0
4.638412,0.043852,2.206366,0.037822,0.077208,0.984535,0.988282,-0.161384,1.029094,-0.022611,0
4.689451,0.051039,2.206205,0.036609,0.071867,0.975762,0.97909,-0.15894,1.025429,-0.026276,0
4.733477,0.044026,2.205798,0.034912,0.07478,0.985023,0.988474,-0.159246,1.027873,-0.02872,0
4.777283,0.043807,2.20425,0.038549,0.071867,0.977712,0.981107,-0.160468,1.025124,-0.028414,0
4.828242,0.050959,2.20275,0.063036,0.072352,0.983804,0.988473,-0.160773,1.033981,-0.021084,0
4.879592,0.05135,2.202926,0.027881,0.124067,0.993308,1.001415,-0.159857,1.015961,-0.025971,0
4.923217,0.043624,2.202589,0.025214,0.062883,0.991846,0.994157,-0.161995,1.024207,-0.031163,0
4.966364,0.043147,2.202802,0.017456,0.075508,0.987216,0.990253,-0.167493,1.025735,-0.030858,0
5.010001,0.043637,2.203055,0.024729,0.079393,0.96504,0.968616,-0.159857,1.027873,-0.031774,0
5.053788,0.043787,2.203559,0.033458,0.081578,0.960166,0.964206,-0.155275,1.031538,-0.026887,0
5.097482,0.043694,2.203773,0.040004,0.084735,0.977468,0.981949,-0.157413,1.030621,-0.02536,0
5.141211,0.043729,2.202793,0.044368,0.077694,1.001594,1.005582,-0.158635,1.024207,-0.02536,0
5.192098,0.050887,2.20309,0.036852,0.075751,0.999157,1.002702,-0.1623,1.024207,-0.024749,0
5.236308,0.04421,2.20367,0.03273,0.068953,0.99209,0.995022,-0.157719,1.018404,-0.025971,0
5.280059,0.043751,2.204791,0.034185,0.074295,0.994283,0.997641,-0.161079,1.013212,-0.026276,0
5.323786,0.043728,2.205391,0.0337,0.070653,0.985997,0.9891,-0.15833,1.008936,-0.026887,0
5.377968,0.054182,2.205193,0.032973,0.068468,0.986485,0.989408,-0.15833,1.011074,-0.02933,0
5.422506,0.044538,2.205343,0.030791,0.077208,0.988922,0.992409,-0.164133,1.014739,-0.029941,0
5.473689,0.051183,2.20435,0.03176,0.071624,0.97625,0.979389,-0.160468,1.015044,-0.028414,0
5.517635,0.043946,2.203994,0.034912,0.075023,0.977712,0.981207,-0.162606,1.016877,-0.030858,0
5.561065,0.04343,2.203795,0.032488,0.072595,0.983317,0.986528,-0.156497,1.019626,-0.030247,0
5.604468,0.043403,2.203049,0.032245,0.072838,0.999401,1.00257,-0.161689,1.011379,-0.029636,0
5.648276,0.043809,2.202084,0.031518,0.071138,0.971376,0.974487,-0.156497,1.010768,-0.033607,0
5.69962,0.051344,2.200214,0.039519,0.073809,0.969913,0.97352,-0.156192,1.014434,-0.029941,0
5.742996,0.043376,2.199323,0.044125,0.077936,0.986729,0.990785,-0.155275,1.01871,-0.024749,0
5.793283,0.050287,2.198975,0.033942,0.07648,0.986241,0.989784,-0.157413,1.008325,-0.025665,0
5.844707,0.051424,2.19962,0.035882,0.071381,0.986241,0.989472,-0.160162,1.01199,-0.030858,0
5.888669,0.043961,2.199746,0.035397,0.068468,0.985997,0.989005,-0.153443,1.006798,-0.031774,0
5.932148,0.04348,2.199576,0.042913,0.074052,0.987703,0.991405,-0.161689,1.01199,-0.020778,0
5.986057,0.053908,2.199606,0.023275,0.074537,0.978443,0.981554,-0.159551,1.010157,-0.028109,0
6.030224,0.044167,2.199917,0.031033,0.072595,0.98551,0.988667,-0.152526,1.009241,-0.030552,0
6.074211,0.043987,2.200234,0.032488,0.070895,0.990384,0.99345,-0.161689,1.015044,-0.032385,0
6.117804,0.043594,2.199969,0.033458,0.063854,0.981611,0.984254,-0.152526,1.004049,-0.034217,0
6.161489,0.043684,2.200091,0.038549,0.078422,0.986729,0.99059,-0.160162,1.014739,-0.029636,0
6.212464,0.050975,2.198683,0.03564,0.07041,0.977955,0.981134,-0.152221,1.003133,-0.032079,0
6.262878,0.050414,2.198294,0.042186,0.078179,0.99209,0.996059,-0.15894,1.011379,-0.023527,0
6.317177,0.054299,2.198027,0.021335,0.076965,0.981367,0.984612,-0.1623,1.010768,-0.031469,0
6.361307,0.04413,2.198665,0.034427,0.075994,0.988191,0.991706,-0.158635,1.013212,-0.028414,0
6.412609,0.051302,2.198512,0.033458,0.072595,0.986241,0.989475,-0.15894,1.007409,-0.02872,0
6.456698,0.044089,2.199188,0.035155,0.065554,0.971863,0.974706,-0.151916,1.006492,-0.027803,0
6.500297,0.043599,2.199567,0.029336,0.075023,0.989653,0.992926,-0.155275,1.007409,-0.029025,0
6.543659,0.043363,2.199819,0.034185,0.077936,0.994771,0.998404,-0.158635,1.01535,-0.027803,0
6.587123,0.043463,2.199557,0.031518,0.06871,0.981855,0.98476,-0.155275,1.007103,-0.030858,0
6.630739,0.043616,2.199211,0.043883,0.078179,0.988678,0.992735,-0.160773,1.015655,-0.02933,0
6.681582,0.050843,2.198927,0.039519,0.075751,0.985266,0.988964,-0.155886,1.01199,-0.026276,0
6.73175,0.050168,2.199714,0.030548,0.072352,0.984048,0.987177,-0.157413,1.011685,-0.027803,0
6.774805,0.043055,2.200203,0.030548,0.072838,0.984779,0.987941,-0.160773,1.008019,-0.027498,0
6.818119,0.043314,2.200971,0.030791,0.072838,0.982829,0.986006,-0.155886,1.012906,-0.027192,0
6.861652,0.043533,2.202237,0.028124,0.077208,0.991115,0.994515,-0.158635,1.012601,-0.029636,0
6.905378,0.043725,2.203335,0.030791,0.073809,0.982586,0.985835,-0.15497,1.010768,-0.029025,0
6.948843,0.043465,2.204276,0.033215,0.076722,0.985023,0.988564,-0.160773,1.010157,-0.030247,0
6.992364,0.043521,2.205112,0.033942,0.074052,0.981855,0.985228,-0.156802,1.011379,-0.027498,0
7.036472,0.044109,2.205256,0.034185,0.079879,0.991115,0.994916,-0.160162,1.009852,-0.022916,0
7.090704,0.054232,2.204975,0.026669,0.074295,0.993796,0.996926,-0.154359,1.006187,-0.030247,0
7.142628,0.051924,2.203973,0.024487,0.072595,0.936771,0.939898,-0.162606,1.00466,-0.033912,0
7.19331,0.050682,2.204032,0.037822,0.067254,0.959678,0.962775,-0.156802,1.007103,-0.032079,0
7.236966,0.043656,2.204238,0.041701,0.076237,0.984535,0.988363,-0.159246,1.011685,-0.029941,0
7.280679,0.043712,2.204409,0.038306,0.075751,0.989653,0.993287,-0.158024,1.004965,-0.028109,0
7.324367,0.043689,2.204798,0.036609,0.076965,0.986972,0.990645,-0.15833,1.00863,-0.022611,0
7.367924,0.043557,2.205353,0.027881,0.071381,0.98088,0.983869,-0.157413,1.004965,-0.02536,0
7.411519,0.043594,2.205739,0.028851,0.072595,0.991115,0.994189,-0.157413,1.008019,-0.029941,0
7.456288,0.044769,2.205239,0.034185,0.072595,0.985997,0.989257,-0.159551,1.008019,-0.029636,0
7.508119,0.051831,2.204243,0.034912,0.078179,0.985997,0.989708,-0.154664,1.007103,-0.026276,0
7.55796,0.049841,2.204462,0.031276,0.078908,0.98551,0.989159,-0.160162,1.005576,-0.028414,0
7.600909,0.042949,2.204329,0.03273,0.07478,0.97893,0.982328,-0.153443,1.011685,-0.026887,0
7.64408,0.043171,2.204141,0.022063,0.073809,0.992821,0.995805,-0.15894,1.006492,-0.030552,0
7.687655,0.043575,2.203788,0.032245,0.071867,0.986241,0.989382,-0.157413,1.005576,-0.029941,0
7.732008,0.044353,2.203806,0.037337,0.078179,0.991115,0.994894,-0.159246,1.008019,-0.02536,0
7.775399,0.043391,2.203257,0.030791,0.077451,0.982829,0.986357,-0.156497,1.004965,-0.023527,0
7.829491,0.054092,2.202162,0.032488,0.074537,0.980392,0.983758,-0.158024,1.007103,-0.024138,0
7.880519,0.051028,2.201486,0.029094,0.065797,0.989653,0.992264,-0.156192,1.005576,-0.025054,0
7.923815,0.043296,2.200993,0.033215,0.067011,0.991115,0.993933,-0.158635,1.004965,-0.026887,0
7.967076,0.043261,2.200621,0.028366,0.07041,0.994527,0.99742,-0.160162,1.005881,-0.029941,0
8.010756,0.04368,2.200446,0.030063,0.06871,0.978687,0.981556,-0.155581,1.000078,-0.029636,0
8.05374,0.042984,2.200305,0.025942,0.081578,0.999157,1.002817,-0.157719,1.003133,-0.025971,0
8.107396,0.053657,2.199372,0.027639,0.06871,0.980149,0.982943,-0.154359,0.997329,-0.027192,0
8.157784,0.050388,2.200163,0.037094,0.074537,0.986485,0.989992,-0.159246,0.999773,-0.027498,0
8.201054,0.04327,2.200657,0.039034,0.06871,0.97893,0.982115,-0.157719,1.006798,-0.026276,0
8.244452,0.043398,2.200872,0.03273,0.066768,0.985754,0.988554,-0.15894,1.005881,-0.02872,0
8.288574,0.044122,2.199501,0.021093,0.069196,0.99209,0.994724,-0.158024,0.997635,-0.033912,0
8.34231,0.053736,2.197981,0.031276,0.077208,0.985997,0.98951,-0.156802,1.000689,-0.031774,0
8.392285,0.049975,2.197931,0.033215,0.077451,0.976737,0.980366,-0.155275,1.004354,-0.030552,0
8.435542,0.043257,2.197854,0.039761,0.081336,0.991359,0.995484,-0.161689,1.005271,-0.024444,0
8.481245,0.045703,2.197688,0.035397,0.078179,0.995989,0.999679,-0.159246,1.002522,-0.023833,0
8.532506,0.051261,2.198381,0.026184,0.071867,0.992577,0.99552,-0.157719,0.997329,-0.02933,0
8.575974,0.043468,2.198934,0.030548,0.070653,0.981611,0.984624,-0.154664,0.999467,-0.024749,0
8.619357,0.043383,2.199516,0.025699,0.072595,0.987703,0.990701,-0.156497,0.999773,-0.031163,0
8.663242,0.043885,2.199784,0.037579,0.075994,0.991602,0.99522,-0.160468,1.005576,-0.026887,0
8.705154,0.041913,2.200178,0.031518,0.070653,0.98088,0.983926,-0.155275,1.001911,-0.025665,0
8.748981,0.043827,2.200196,0.031276,0.071138,0.984048,0.987111,-0.152526,0.998856,-0.027192,0
8.792129,0.043147,2.200523,0.029336,0.071867,0.994039,0.997066,-0.155275,0.998551,-0.02536,0
8.835813,0.043684,2.200864,0.032003,0.067496,0.990871,0.993683,-0.159246,1.000078,-0.027192,0
8.879933,0.044119,2.200154,0.031518,0.068225,0.974787,0.97768,-0.154664,1.004049,-0.027498,0
8.934204,0.054271,2.199719,0.032973,0.073566,0.985266,0.988559,-0.157413,1.006187,-0.02536,0
8.977838,0.043633,2.199917,0.028609,0.070895,0.993308,0.996246,-0.157413,1.004965,-0.029025,0
9.021802,0.043964,2.200016,0.026427,0.07041,0.997939,1.000768,-0.159857,1.003133,-0.02872,0
9.065633,0.043831,2.200484,0.029578,0.074052,0.991602,0.994804,-0.160468,0.996108,-0.028109,0
9.116527,0.050894,2.200296,0.032488,0.071381,0.981611,0.984739,-0.157108,1.000689,-0.029025,0
9.160247,0.04372,2.200996,0.030548,0.071381,0.980392,0.983462,-0.15894,1.004049,-0.029025,0
9.203959,0.043713,2.201882,0.031276,0.069681,0.994527,0.997455,-0.157719,1.00466,-0.031163,0
9.255884,0.051924,2.202111,0.033458,0.071624,0.988678,0.991834,-0.157108,1.002216,-0.029941,0
9.299001,0.043118,2.20177,0.032245,0.067254,0.978199,0.981038,-0.153137,1.010463,-0.028109,0
9.349655,0.050653,2.201414,0.029821,0.075023,0.984292,0.987597,-0.159246,1.01199,-0.025665,0
9.39327,0.043615,2.201521,0.034912,0.071381,0.98551,0.988708,-0.157108,1.014434,-0.025971,0
9.437005,0.043735,2.201838,0.03176,0.06871,0.99867,1.001534,-0.157413,1.009547,-0.029941,0
9.481482,0.044478,2.201806,0.031033,0.066768,0.987947,0.990687,-0.159857,1.009852,-0.029636,0
9.525613,0.04413,2.20235,0.032245,0.06604,0.984779,0.987517,-0.154359,1.011074,-0.027803,0
9.569354,0.043741,2.202776,0.028366,0.072838,0.991846,0.994921,-0.160773,1.014434,-0.027803,0
9.612757,0.043403,2.202893,0.029094,0.065311,0.982098,0.984697,-0.154359,1.013212,-0.03269,0
9.65637,0.043613,2.203024,0.033215,0.072352,0.997207,1.00038,-0.158635,1.011379,-0.03269,0
9.700435,0.044065,2.20275,0.0337,0.072838,0.986241,0.989501,-0.157108,1.005271,-0.029025,0
9.750937,0.050501,2.201719,0.029094,0.073809,0.980636,0.98384,-0.156192,1.011685,-0.02933,0
9.801411,0.050475,2.201377,0.032488,0.073809,0.998913,1.002163,-0.159857,1.012295,-0.031163,0
9.853607,0.052196,2.200711,0.028609,0.066525,0.980636,0.983306,-0.157719,1.014128,-0.031469,0
9.898185,0.044578,2.199865,0.029578,0.068953,0.989653,0.992493,-0.156497,1.009241,-0.032996,0
9.942047,0.043861,2.199179,0.036852,0.081093,0.999157,1.00312,-0.162911,1.009547,-0.028414,0
9.992643,0.050596,2.198828,0.031276,0.06871,0.973325,0.976249,-0.155581,1.007409,-0.027192,0
10.043758,0.051115,2.199723,0.036124,0.075994,0.998426,1.001965,-0.160162,1.009852,-0.025665,0
