timestamp,dt,heading_rad,accel_x,accel_y,accel_z,accel_norm,gyro_x_rads,gyro_y_rads,gyro_z_rads,step_event
0.000363,0.000363,2.022399,-0.007899,0.109014,0.982098,0.988162,0.013629,0.058735,-0.006728,0
0.14395,0.143588,2.020358,-0.052329,0.09129,1.016703,1.022134,-0.008862,-0.047767,-0.089402,0
0.187488,0.043537,2.017352,-0.004196,0.070167,0.98551,0.988014,-0.004399,-0.016223,-0.017823,0
0.229981,0.042493,2.017545,-0.000494,0.11387,0.997207,1.003688,-0.044112,-0.02193,0.01356,0
0.274024,0.044043,2.018309,-0.00938,0.1061,0.982829,0.988584,-0.007175,-0.004403,0.04589,0
0.327805,0.053781,2.020899,-0.006665,0.102458,0.981855,0.987209,0.023267,0.021171,0.047433,0
0.385676,0.057872,2.021758,-0.016044,0.086434,0.985754,0.989666,0.033872,0.034369,0.023106,0
0.439236,0.05356,2.023013,-0.013576,0.107072,1.006955,1.012723,-0.029313,-0.043699,0.007515,0
0.47606,0.036824,2.022434,-0.002715,0.105615,0.978199,0.983888,0.015963,-0.028275,-0.025987,0
0.524699,0.048639,2.021567,-0.008146,0.094446,0.976981,0.981569,-0.0018,0.008053,0.003167,0
0.562846,0.038147,2.021361,-0.014563,0.106829,0.936771,0.942955,0.003246,-0.045012,-0.031094,0
0.612336,0.04949,2.021351,0.007031,0.105858,0.979905,0.985631,0.001523,-0.046661,0.018234,0
0.657933,0.045596,2.021841,-0.034557,0.100273,1.003544,1.009133,-0.034682,-0.111842,-0.014509,0
0.699565,0.041633,2.02076,0.002424,0.105372,0.970157,0.975866,0.011068,-0.074304,-0.053533,0
0.744637,0.045071,2.01886,0.011395,0.102701,0.977468,0.982915,0.005025,0.009312,-0.03443,0
0.786219,0.041583,2.017262,-0.006911,0.185494,1.107602,1.123049,0.07894,-0.181889,-0.100709,0
0.83129,0.04507,2.01318,0.032245,0.109014,0.973082,0.9797,-0.043942,-0.034219,-0.013337,0
0.872936,0.041647,2.01292,0.011395,0.120911,0.986729,0.994174,-0.119268,-0.067746,0.017724,0
0.911074,0.038138,2.013108,0.045337,0.100273,0.97235,0.978558,-0.0391,0.001888,0.02263,0
0.960412,0.049338,2.013312,0.013092,0.093718,0.9743,0.978885,0.072831,0.030997,-0.019802,0
1.005545,0.045133,2.011655,0.003394,0.108043,0.999157,1.004987,-0.006382,-0.013566,-0.030902,0
1.048001,0.042456,2.010439,0.015274,0.104886,0.977955,0.983683,0.043984,0.008653,-0.006198,0
1.099418,0.051417,2.010556,0.027154,0.109985,0.970157,0.976749,-0.012867,0.063363,-0.0043,0
1.144896,0.045478,2.0094,0.014547,0.108528,0.985023,0.99109,0.066104,0.060827,-0.040504,0
1.18651,0.041614,2.008166,0.003394,0.109257,0.989897,0.995914,0.022933,0.030396,-0.031089,0
1.231397,0.044888,2.007547,0.025699,0.109014,0.993065,0.999361,-0.03031,0.067878,0.045698,0
1.276206,0.044808,2.010777,0.024487,0.11824,0.985754,0.993122,-0.017282,0.03933,0.06432,0
1.325123,0.048917,2.013433,-0.001481,0.106829,0.986485,0.992253,-0.02261,0.003554,0.024832,0
1.363064,0.037942,2.01425,0.011395,0.102944,0.973082,0.978578,0.000708,0.021153,0.107348,0
1.404527,0.041462,2.016794,-0.000987,0.111685,0.993308,0.999568,0.011899,-0.004549,0.028863,0
1.450092,0.045565,2.017081,0.004606,0.114113,0.992821,0.999368,0.002156,-0.025413,0.017628,0
1.491611,0.041519,2.018437,0.014789,0.112899,0.968695,0.975364,0.025885,-0.00391,0.011343,0
1.53654,0.044929,2.019321,0.001697,0.115812,0.983804,0.990599,-0.012065,-0.000968,0.01059,0
1.577995,0.041455,2.020168,0.006546,0.114598,0.983804,0.990478,0.004164,0.00434,0.009508,0
1.624388,0.046394,2.020352,-0.005677,0.104158,0.979174,0.984715,0.01605,0.020496,-0.008534,0
1.673193,0.048805,2.021856,0.03467,0.075994,0.953342,0.956994,0.092713,-0.00852,-0.047018,0
1.716106,0.042913,2.032911,-0.036779,0.301791,1.434156,1.466027,-0.285412,-0.099539,0.561709,1
1.761124,0.045018,2.050622,-0.006911,0.114113,0.999157,1.005676,-0.038012,-0.090986,0.171366,0
1.808574,0.04745,2.053824,-0.030114,0.076965,0.966014,0.969543,-0.011962,0.010748,-0.038507,0
1.862092,0.053518,2.052896,0.064006,0.125524,0.975031,0.985159,-0.007056,0.086407,0.03138,0
1.912814,0.050722,2.054559,-0.007158,0.075508,0.990384,0.993284,-0.019019,0.019785,-0.082982,0
1.96613,0.053315,2.051135,-0.014563,0.062398,0.978443,0.980539,-0.008456,-0.019396,-0.081723,0
2.017346,0.051217,2.051528,0.033942,0.154902,0.976006,0.988804,-0.019901,0.062893,0.038374,0
2.073013,0.055667,2.056211,-0.009627,0.062398,1.015241,1.017202,-0.010736,-0.027834,0.021765,0
2.120106,0.047093,2.056981,-0.021475,0.070895,0.97235,0.975168,0.003427,-0.028398,-0.056867,0
2.169994,0.049887,2.055614,0.022305,0.098817,0.966745,0.972039,-0.027652,0.042773,-0.01923,0
2.213346,0.043352,2.055503,0.019638,0.114841,0.970157,0.977128,-0.011119,0.122032,0.009251,0
2.251125,0.037779,2.057958,0.016244,0.135235,0.983804,0.993188,-0.005315,0.214273,0.103935,0
2.304454,0.053329,2.068747,0.048247,0.157087,0.987216,1.000799,-0.063959,0.238402,0.267036,0
2.357196,0.052742,2.079666,-0.048873,0.098817,0.987947,0.994079,-0.230725,0.037428,0.271312,0
2.407795,0.050599,2.093745,-0.035791,0.129408,0.881208,0.891378,0.007513,0.145245,0.184264,0
2.453403,0.045608,2.097829,0.009455,0.107557,0.966014,0.97203,-0.220951,0.3001,0.01597,0
2.494633,0.04123,2.107532,0.090432,0.042246,0.94335,0.948616,-0.179412,0.458925,0.407535,0
2.538311,0.043678,2.124391,-0.034804,0.083035,0.981124,0.985246,-0.084117,0.111037,0.319876,0
2.583133,0.044822,2.136164,-0.013823,0.089833,0.962115,0.966399,0.034696,-0.039847,0.487864,0
2.628097,0.044963,2.166482,-0.010614,0.124553,1.001594,1.009364,-0.086866,0.106761,0.662266,0
2.67591,0.047813,2.192897,-0.092563,0.149075,0.998913,1.014209,-0.158032,0.110426,0.650354,0
2.718703,0.042794,2.219067,-0.079728,0.132565,0.979905,0.99204,-0.150701,0.109204,0.488475,0
2.772094,0.053391,2.233687,-0.053317,0.117026,0.969426,0.977918,-0.042273,0.041398,0.403259,0
2.814003,0.041909,2.248877,-0.008639,0.14082,0.970645,0.980844,0.088147,0.05331,0.597514,0
2.857513,0.043509,2.272228,-0.002468,0.238908,1.016216,1.043924,-0.085339,0.33217,0.791769,0
2.901305,0.043792,2.300488,-0.106386,0.191806,1.030594,1.053675,-0.14276,0.176094,0.527265,0
2.94603,0.044726,2.312742,-0.061462,0.170198,0.982342,0.99887,-0.056934,0.023683,0.460375,0
2.987704,0.041674,2.322176,-0.023203,0.164371,0.958216,0.972489,-0.083506,0.027959,0.401121,0
3.032715,0.045011,2.331929,-0.005184,0.13912,0.917519,0.92802,-0.073122,0.046896,0.440216,0
3.074514,0.041799,2.343447,0.014547,0.116298,0.911426,0.918931,-0.012035,0.031624,0.570941,0
3.119767,0.045254,2.359139,-0.000494,0.142762,0.948712,0.959393,-0.071594,-0.045345,0.593543,0
3.161264,0.041497,2.375461,0.043155,0.153688,0.954804,0.968057,-0.231947,0.114397,0.758172,0
3.199184,0.03792,2.399744,0.032245,0.138877,0.925561,0.936477,-0.330601,0.178538,0.726712,0
3.247745,0.048561,2.417394,-0.000494,0.110956,0.916056,0.922752,-0.264933,0.070414,0.664404,0
3.286377,0.038632,2.43384,0.050429,0.097603,0.947737,0.954083,-0.260963,0.035595,0.595681,0
3.335183,0.048806,2.443372,0.070794,0.087405,1.008905,1.015155,-0.245996,-0.015718,0.571552,0
3.373153,0.037971,2.458347,0.055035,0.053414,1.083964,1.086673,-0.11069,-0.30313,0.681508,0
3.421633,0.048479,2.468085,-0.02493,0.115569,1.163165,1.169158,-0.284175,-0.23288,0.546201,0
3.459887,0.038255,2.474051,-0.06862,0.054628,1.169258,1.172543,-0.254549,-0.171794,0.558113,0
3.501318,0.041431,2.481257,-0.115025,0.065068,1.217753,1.224903,0.116552,-0.260064,0.543453,1
3.546261,0.044942,2.488237,-0.081456,0.147861,1.305971,1.316837,-0.359312,-0.053897,0.70075,0
3.587679,0.041419,2.496687,-0.148842,0.063612,1.046434,1.058879,-0.723693,0.087213,0.489391,0
3.625564,0.037885,2.498669,-0.168342,-0.026294,0.759847,0.778715,-0.238666,-0.247846,0.349197,0
3.674404,0.04884,2.491832,-0.182905,-0.014232,0.751805,0.773865,-0.024863,-0.354137,0.153721,0
3.712465,0.038061,2.48645,-0.085158,-0.008925,0.863174,0.867411,0.028893,0.027043,0.3831,0
3.760866,0.048402,2.487261,-0.140449,-0.026535,0.90972,0.920881,0.146485,-0.047483,0.526348,0
3.798767,0.037901,2.491573,-0.127367,0.001214,0.989897,0.998058,-0.059683,0.164793,0.648216,0
3.840254,0.041487,2.498929,-0.156741,0.004127,0.962846,0.975529,-0.207817,0.192893,0.437162,0
3.885159,0.044905,2.502062,-0.125393,-0.035943,0.848309,0.858279,0.003237,0.049645,0.46404,0
3.926596,0.041438,2.505045,-0.069361,-0.018816,0.853914,0.856933,0.060353,0.081105,0.482977,0
3.964803,0.038206,2.511303,-0.00543,0.007284,0.882426,0.882473,-0.046243,0.292769,0.495805,0
4.013318,0.048515,2.516047,-0.022956,-0.015921,0.893636,0.894073,0.058214,0.195336,0.433191,0
4.051275,0.037958,2.516674,-0.009133,-0.021952,0.943594,0.943894,0.13946,-0.034349,0.344921,0
4.093005,0.04173,2.518312,0.072491,-0.004101,0.996964,0.999604,0.035918,0.012688,0.30491,0
4.138164,0.045159,2.517106,0.081462,-0.012544,1.006712,1.01008,0.147401,-0.233491,0.391958,0
4.179623,0.041459,2.524104,0.084129,0.019423,1.126123,1.129428,-0.046854,-0.085356,0.52421,0
4.224909,0.045286,2.53295,-0.031348,0.026464,1.173157,1.173874,-0.166278,-0.155911,0.295136,0
4.266353,0.041444,2.531324,-0.089848,0.02258,1.127585,1.131385,0.109833,-0.461344,0.31896,0
4.311553,0.0452,2.535266,-0.05307,0.066282,1.135871,1.13904,0.173668,-0.014496,0.49214,0
4.35311,0.041557,2.55009,-0.125393,0.068225,1.15293,1.161734,0.291565,-0.046872,0.812844,0
4.39103,0.03792,2.570808,-0.243627,0.140091,1.115401,1.15026,-0.144898,-0.068252,0.576134,0
4.439525,0.048496,2.581366,-0.150323,0.165099,0.879015,0.90693,-0.333045,0.015437,0.490918,0
4.477887,0.038362,2.600827,-0.083184,0.156601,0.868779,0.886691,-0.039219,-0.319623,0.941126,0
4.526364,0.048477,2.633483,-0.061215,0.203703,0.899729,0.924529,-0.284175,0.030708,1.18761,0
4.564514,0.03815,2.663382,-0.151804,0.156358,0.819552,0.848032,-0.353814,0.153797,1.068797,0
4.605967,0.041453,2.689454,-0.148348,0.092504,0.851721,0.869478,-0.143371,-0.136669,0.853467,0
4.650891,0.044924,2.710938,-0.024437,0.071624,0.847821,0.851192,-0.072816,-0.012052,0.780163,0
4.692609,0.041718,2.728403,0.012365,0.055357,0.863174,0.865036,-0.062737,0.022461,0.747482,0
4.737619,0.04501,2.746866,0.028851,0.032291,0.898754,0.899797,-0.127183,-0.004722,0.725796,0
4.779036,0.041416,2.759007,0.058914,0.018695,0.920687,0.922759,-0.224005,0.019407,0.58041,0
4.816962,0.037926,2.764637,0.081947,-0.017609,0.917519,0.921339,-0.177274,-0.145526,0.536122,0
4.858424,0.041462,2.776277,0.104979,0.005341,0.983561,0.989161,-0.249051,-0.13392,0.511688,0
4.903334,0.04491,2.778249,0.061339,0.010197,0.999157,1.00109,-0.27654,-0.237156,0.349808,0
4.944699,0.041365,2.776985,0.030791,-0.00796,1.02109,1.021585,0.180082,-0.65285,0.259095,0
4.982932,0.038233,2.76756,-0.023696,0.103915,1.268929,1.273398,-0.012035,-0.703552,0.073086,1
5.031408,0.048476,2.75825,0.077583,0.114841,1.188266,1.196321,-0.517221,0.054226,0.303383,0
5.069644,0.038236,2.766155,-0.008639,-0.033772,0.999888,1.000496,0.130297,0.186479,0.744122,0
5.11816,0.048516,2.779869,-0.187595,-0.023399,1.093711,1.10993,0.209098,0.094544,0.512604,0
5.156193,0.038033,2.77637,-0.200677,-0.004101,0.989897,1.010041,-0.183077,0.258561,0.134478,0
5.197567,0.041374,2.767386,-0.091576,-0.076951,0.797376,0.806298,0.096734,-0.067362,0.221715,0
5.242775,0.045208,2.760141,-0.032335,-0.021952,0.827595,0.828517,0.168817,-0.022768,0.320981,0
5.284402,0.041626,2.76041,-0.021475,-0.009167,0.94335,0.943639,-0.045903,0.166905,0.526842,0
5.329784,0.045382,2.768555,-0.116506,-0.05307,0.963577,0.972045,0.00205,0.048397,0.554026,0
5.371444,0.041659,2.775049,-0.13181,-0.054758,0.953829,0.96445,0.180118,-0.078663,0.563494,0
5.416906,0.045462,2.784773,-0.045171,0.013596,0.918006,0.919217,0.066497,0.11712,0.675588,0
5.460593,0.043687,2.798789,-0.077753,0.011654,0.88925,0.892719,-0.010778,0.084438,0.47553,0
5.510926,0.050333,2.79907,-0.037519,-0.00796,0.840998,0.841872,0.049392,0.188896,0.347553,0
5.553833,0.042906,2.797988,0.006788,-0.026776,0.854645,0.855091,0.217686,-0.006275,0.278831,0
5.599039,0.045207,2.795934,0.082674,0.002914,0.882426,0.886295,0.141328,0.147968,0.339307,0
5.640456,0.041417,2.794105,0.083401,0.000971,0.947493,0.951157,0.092764,-0.065224,0.208276,0
5.678948,0.038492,2.788026,0.097221,-0.017127,0.954804,0.959894,0.172176,-0.229852,0.203695,0
5.727514,0.048566,2.781688,0.112495,0.008983,1.048628,1.054683,0.080852,-0.194116,0.164599,0
5.76548,0.037966,2.772198,0.003879,-0.019539,1.175837,1.176006,0.127278,-0.604312,-0.087077,0
5.81394,0.04846,2.749455,-0.128108,0.058756,1.189972,1.198289,0.038397,-0.525205,-0.311265,1
5.851892,0.037952,2.732645,0.026911,0.066768,1.173644,1.17585,-0.272228,0.311986,0.327395,0
5.893371,0.04148,2.745908,-0.105152,-0.113859,1.110039,1.120807,0.17462,0.21272,0.676504,0
5.93836,0.044989,2.763353,-0.18957,-0.0,1.093468,1.109779,0.043284,0.446681,0.59587,0
5.980119,0.041759,2.771931,-0.216475,-0.021952,0.947493,0.972156,0.115977,0.130253,0.298989,0
6.018226,0.038108,2.764757,-0.196728,0.018695,0.868779,0.890971,0.423853,-0.613475,-0.01133,0
6.068401,0.050174,2.759493,0.071037,0.110713,0.84246,0.852668,0.01946,-0.142803,0.4514,0
6.110757,0.042356,2.772723,0.010183,0.086677,0.856838,0.861271,-0.102102,0.045648,0.606866,0
6.155909,0.045152,2.787603,-0.112063,0.040304,0.924098,0.931741,0.195695,-0.051479,0.590983,0
6.197712,0.041803,2.800867,-0.156494,0.105858,1.03693,1.054002,0.396058,-0.246345,0.507905,0
6.242902,0.04519,2.806892,-0.16612,0.188407,1.015241,1.045853,-0.125315,0.08566,0.088852,0
6.284611,0.041709,2.796265,-0.104165,0.070895,0.899729,0.908509,-0.325068,0.283275,-0.232769,0
6.32967,0.045058,2.774041,-0.113051,0.008983,0.882914,0.890167,-0.154637,-0.036513,-0.499106,0
6.371651,0.041981,2.740521,-0.12638,0.004856,0.939451,0.947926,-0.117985,-0.185259,-0.630137,0
6.416904,0.045253,2.705954,-0.072076,-0.005307,0.93872,0.941498,-0.03735,-0.035291,-0.559887,0
6.459327,0.042423,2.678007,-0.126874,0.003399,1.009636,1.017582,0.008464,-0.109511,-0.625861,0
6.504526,0.045198,2.647455,-0.056032,0.044188,1.044728,1.047163,-0.292998,-0.019714,-0.466425,0
6.546019,0.041493,2.629802,-0.035297,0.028407,0.947493,0.948576,-0.393485,-0.000166,-0.280416,0
6.590995,0.044976,2.612945,-0.057513,-0.022434,0.848796,0.851038,0.008159,-0.219772,-0.323177,0
6.632745,0.04175,2.600823,0.045095,-0.009167,0.880233,0.881435,0.266555,0.015411,-0.035765,0
6.677971,0.045226,2.594105,-0.062696,0.033263,0.960897,0.963514,0.361239,0.008386,-0.18787,0
6.719683,0.041713,2.582161,-0.035297,0.040789,0.966502,0.968006,0.341997,-0.049647,-0.225438,0
6.764691,0.045008,2.570545,0.026911,0.053657,0.948956,0.950852,0.262279,0.008691,-0.211083,0
6.806205,0.041514,2.559943,-0.001728,0.069924,0.947493,0.950072,0.226238,-0.016354,-0.182067,0
6.844202,0.037997,2.554169,0.012365,0.091776,0.984779,0.989124,0.003883,0.242958,0.006385,0
6.885685,0.041483,2.555099,-0.020241,0.078665,0.988434,0.991766,-0.181515,0.298241,-0.06753,0
6.930925,0.04524,2.553864,0.017941,0.030835,0.881695,0.882417,-0.040026,0.12416,-0.053182,0
6.972662,0.041737,2.552642,0.046307,0.026464,0.977955,0.979409,0.137684,0.006005,-0.035961,0
7.017662,0.045,2.552472,0.041943,0.076965,1.034006,1.037714,-0.04278,0.041137,-0.027642,0
7.059906,0.042244,2.551659,0.004364,0.075023,1.000376,1.003194,-0.05852,-0.11811,-0.018325,0
7.105014,0.045108,2.552037,0.027396,0.07041,0.963821,0.966778,-0.043111,-0.050287,0.105459,0
7.147286,0.042272,2.556481,0.003394,0.056813,0.938964,0.940687,-0.043786,0.031969,0.073077,0
7.188985,0.041699,2.560203,-0.013823,0.030835,0.952611,0.95321,4.6e-05,0.018625,0.062913,0
7.22722,0.038235,2.564451,0.002182,0.029378,0.959435,0.959887,-0.055588,0.142498,0.056943,0
7.275849,0.048629,2.566091,-0.009133,0.036176,0.9743,0.975014,-0.025178,0.113469,-0.02315,0
7.313905,0.038056,2.565191,0.018668,0.041275,0.972838,0.973892,0.025264,0.09492,-0.027282,0
7.355515,0.041609,2.564438,0.010183,0.055357,0.987947,0.989549,0.045277,0.070685,-0.050103,0
7.401233,0.045719,2.563094,0.014304,0.068953,0.979418,0.981946,-0.011109,0.103917,-0.034767,0
7.449885,0.048652,2.563025,0.020123,0.056813,0.955535,0.957434,0.006344,0.099823,0.022767,0
7.488282,0.038397,2.564476,0.01091,0.06604,0.949199,0.951556,-0.001783,0.137122,0.04017,0
7.536787,0.048505,2.566111,0.000727,0.061184,0.979905,0.981814,-0.046002,0.152811,0.000292,0
7.574678,0.037892,2.566335,0.019638,0.0539,0.976981,0.978663,-0.033217,0.091084,0.031818,0
7.616142,0.041464,2.567824,0.030063,0.058513,0.97625,0.978463,-0.026164,0.12543,0.027033,0
7.661261,0.045118,2.568989,-0.000247,0.059484,0.991602,0.993385,-0.016333,0.028759,0.009839,0
7.70311,0.041849,2.569227,0.012607,0.117754,0.954561,0.961879,-0.030173,0.108756,-0.006843,0
7.748198,0.045089,2.569586,0.02085,0.047345,0.935065,0.936495,-0.006543,0.122844,0.026305,0
7.789702,0.041504,2.570421,0.003879,0.054143,0.970157,0.971675,-0.04714,0.147848,-0.013328,0
7.834603,0.044901,2.569901,0.019638,0.052443,0.955779,0.957418,-0.017819,0.179307,-0.021574,0
7.876041,0.041438,2.568724,0.014789,0.049772,0.942376,0.943805,-0.036755,0.194273,-0.05059,0
7.913964,0.037923,2.567357,0.029821,0.035448,0.968939,0.970045,0.006616,0.136852,-0.002943,0
7.955771,0.041807,2.566548,0.005334,0.059484,0.994283,0.996075,-0.019655,0.10725,-0.045177,0
8.000915,0.045144,2.564655,0.011637,0.060213,0.968208,0.970148,-0.059667,0.093506,-0.01952,0
8.042459,0.041544,2.564008,0.015759,0.062155,0.951636,0.953794,-0.074328,0.12802,-0.003638,0
8.087649,0.04519,2.564022,0.020608,0.054628,0.946762,0.948561,-0.029535,0.110553,0.018946,0
8.129127,0.041477,2.564301,0.017456,0.057542,0.954561,0.956453,-0.029426,0.146237,0.001218,0
8.17407,0.044943,2.563623,0.024245,0.044431,0.9453,0.946654,0.011807,0.159982,0.004578,0
8.21597,0.0419,2.563045,0.014547,0.052686,0.962602,0.964153,-0.005908,0.147765,-0.022606,0
8.261328,0.045359,2.560697,0.006304,0.040546,0.940182,0.941077,0.001728,0.172505,-0.055287,0
8.303131,0.041802,2.55765,0.024002,0.043945,0.93409,0.935431,0.118098,0.13402,-0.034518,0
8.3486,0.04547,2.554423,0.023517,0.063126,0.917031,0.919502,0.112295,0.205186,-0.084609,0
8.390127,0.041527,2.551624,0.034427,0.069681,0.98088,0.983954,0.013945,0.294678,-0.053455,0
8.435619,0.045492,2.549612,-0.002962,0.085949,0.991359,0.995082,0.121458,0.098284,-0.020773,0
