timestamp,dt,heading_rad,accel_x,accel_y,accel_z,accel_norm,gyro_x_rads,gyro_y_rads,gyro_z_rads,step_event
0.000374,0.000374,1.969144,0.01188,0.0522,0.983317,0.984773,0.034339,0.01768,0.014244,0
0.143065,0.142691,1.969594,-0.013329,0.036176,0.989165,0.989917,0.17314,-0.001311,0.027857,0
0.19205,0.048985,1.970464,0.015274,0.051715,1.002081,1.003531,0.125798,-0.008641,-0.020707,0
0.235167,0.043117,1.969304,0.00097,0.055357,1.002569,1.004096,0.048035,-0.03679,-0.033373,0
0.273753,0.038586,1.968078,0.013335,0.066282,1.057401,1.05956,0.02921,-0.062598,-0.022302,0
0.323349,0.049596,1.966995,0.012607,0.068953,0.989653,0.992132,0.019404,-0.048875,-0.014795,0
0.368719,0.045369,1.966054,0.01091,0.072109,0.998182,1.000843,-0.017656,-0.017899,-0.022195,0
0.410192,0.041473,1.964679,0.004122,0.001942,0.988678,0.988689,0.006965,-0.048529,-0.039239,0
0.455195,0.045003,1.962847,0.027639,0.067496,0.993552,0.996226,-0.043716,-0.045131,-0.002711,0
0.496704,0.041509,1.961653,0.020123,0.069924,0.993552,0.996213,-0.052928,-0.034936,-0.003763,0
0.534738,0.038034,1.960151,0.018426,0.066525,0.989165,0.991571,-0.041727,-0.011159,-0.002825,0
0.583373,0.048635,1.958831,0.017699,0.063369,0.99867,1.000835,0.010087,-0.019179,-0.012059,0
0.62134,0.037967,1.957159,0.024245,0.066768,0.990628,0.993171,0.007896,0.032571,-0.006542,0
0.66284,0.0415,1.956717,0.031276,0.069439,0.995989,0.998896,0.014621,0.059374,0.032119,0
0.707873,0.045033,1.956653,0.02376,0.067982,1.000619,1.003207,-0.080663,0.008295,0.071652,0
0.749722,0.041848,1.958091,0.028609,0.067254,1.027182,1.029779,-0.037603,-0.031551,0.057204,0
0.795274,0.045553,1.956381,0.005576,0.054628,0.975762,0.977306,0.058625,-0.029268,-0.027589,0
0.840283,0.045009,1.953761,0.014062,0.117754,0.975762,0.982942,-0.100318,0.042395,-0.021119,0
0.888894,0.048611,1.952651,0.034427,0.068953,1.001838,1.004798,-0.031748,0.037705,-0.014197,0
0.931553,0.042659,1.950314,0.037094,0.071867,0.999401,1.002668,-0.008248,0.021462,-0.026455,0
0.969739,0.038187,1.947313,0.027881,0.060213,1.009149,1.011328,0.063636,-0.007495,-0.006197,0
1.01836,0.048621,1.945073,0.022063,0.067496,0.995258,0.997788,-0.002346,-0.030194,-0.030328,0
1.056469,0.038109,1.942564,0.025214,0.058756,0.996964,0.999012,-0.01605,-0.022748,-0.019238,0
1.098277,0.041808,1.94117,0.036367,0.061912,1.005981,1.00854,-0.018538,-0.028481,0.032545,0
1.143417,0.04514,1.941109,0.036852,0.068468,0.993308,0.996347,-0.018394,-0.015809,0.012474,0
1.185028,0.041611,1.939936,0.018426,0.075023,1.000863,1.00384,0.001787,-0.006644,-0.006268,0
1.230479,0.045451,1.938493,0.022063,0.060213,1.059594,1.061533,0.017673,0.002777,0.009153,0
1.274552,0.044073,1.937302,0.033215,0.066282,0.997207,0.99996,-0.000963,-0.006692,0.007931,0
1.323489,0.048937,1.936302,0.036609,0.05827,0.999644,1.00201,0.043704,-0.004863,-0.107705,0
1.368601,0.045112,1.932259,0.032003,0.056328,0.99867,1.000769,0.034026,-0.005707,-0.031531,0
1.410162,0.041561,1.930288,0.03564,0.064583,0.992334,0.995071,-0.001787,-0.013283,-0.035893,0
1.448216,0.038054,1.928016,0.039276,0.037876,0.994771,0.996266,-0.008097,-0.009546,-0.042477,0
1.496801,0.048585,1.925504,0.045822,0.066282,0.997207,1.000458,-0.004461,-0.002266,-0.014927,0
1.534938,0.038137,1.923876,0.043155,0.067739,0.993552,0.996793,0.00187,-0.005878,0.000202,0
1.58658,0.051642,1.922669,0.046307,0.061912,1.055207,1.058036,-0.007171,0.008035,-0.009712,0
1.629496,0.042916,1.921181,0.039761,0.063854,0.999401,1.002228,-0.01263,-0.007305,-0.004967,0
1.673017,0.043521,1.919912,0.048489,0.067254,0.993065,0.99652,-0.012009,0.004919,-0.003739,0
1.716568,0.043551,1.917939,0.041701,0.069196,0.994771,0.998046,-0.020918,0.012848,0.002662,0
1.760762,0.044194,1.916081,0.040246,0.067496,0.997695,1.000785,-0.031451,-0.006591,0.003821,0
1.811641,0.050879,1.914609,0.04461,0.067739,0.993796,0.9971,-0.051098,0.002939,0.006485,0
1.865845,0.054203,1.913725,0.042186,0.065068,1.060325,1.063157,-0.077059,-0.013249,0.019313,0
1.916391,0.050546,1.913216,0.040973,0.065311,1.00135,1.004314,-0.002459,-0.055301,0.003816,0
1.95874,0.042349,1.911284,0.044368,0.117269,0.999888,1.007719,0.030315,-0.0823,-0.021173,0
2.002161,0.043421,1.908785,0.053823,0.123824,0.98551,0.994716,0.020496,-0.006442,-0.01391,0
2.045614,0.043453,1.906209,0.060611,0.056571,0.990628,0.994091,0.00298,0.037352,-0.000949,0
2.089591,0.043977,1.904274,0.061581,0.003885,0.99867,1.000574,0.005728,0.011391,0.005465,0
2.133331,0.043741,1.902255,0.062309,0.005827,0.996476,0.99844,-0.008182,0.006995,-0.000333,0
2.177035,0.043703,1.900183,0.053823,0.055114,0.995502,0.998478,-0.014923,-0.012216,-0.021707,0
2.231938,0.054904,1.897842,0.05455,0.047587,0.993308,0.995943,-0.026814,0.018898,-0.007384,0
2.275702,0.043764,1.896435,0.06934,0.062398,0.993065,0.997436,-0.012826,-0.023142,-0.010145,0
2.326802,0.0511,1.894225,0.058187,0.058756,0.985266,0.98873,0.02608,-0.016605,-0.035382,0
2.370995,0.044193,1.891372,0.051399,0.06434,0.996233,0.999631,-0.010515,0.032282,-0.005966,0
2.414611,0.043617,1.888913,0.055278,0.069681,1.00793,1.011847,-0.026733,-0.001812,-0.025252,0
2.458338,0.043727,1.88651,0.079765,0.055357,0.99014,0.994889,-0.001855,0.005259,0.02955,0
2.501662,0.043324,1.884798,0.05455,0.059727,0.994283,0.997568,-0.006275,0.020163,-0.000131,0
2.546885,0.045223,1.882868,0.063763,0.062155,0.999644,1.003603,-0.000541,0.006816,0.033972,0
2.587285,0.040401,1.881937,0.060611,0.063854,0.989897,0.993804,0.003164,0.044729,0.024561,0
2.638223,0.050938,1.880783,0.057217,0.059484,1.003544,1.006932,0.003658,0.015881,0.029199,0
2.692467,0.054244,1.879974,0.064248,0.066282,0.999888,1.00414,-0.00508,-0.012182,0.006246,0
2.736637,0.04417,1.878034,0.061096,0.057785,0.998426,1.001961,0.004732,0.063008,0.00554,0
2.78209,0.045453,1.876031,0.059157,0.066525,0.936527,0.940749,-0.000155,-0.014877,0.017452,0
2.821989,0.039899,1.874857,0.064976,0.060455,0.992577,0.996537,-0.006188,0.025619,0.031101,0
2.865145,0.043156,1.874015,0.066188,0.054628,0.999157,1.002836,0.00569,0.018454,0.020456,0
2.908316,0.04317,1.872945,0.064976,0.056085,0.99014,0.993854,0.008006,0.017449,-0.004152,0
2.953631,0.045316,1.871634,0.060611,0.061184,0.99867,1.002376,0.001624,-0.006363,-0.01296,0
2.997466,0.043835,1.870247,0.056732,0.061669,0.998913,1.002422,0.000177,-0.013875,-0.008093,0
3.041137,0.043672,1.868929,0.067642,0.05827,0.986485,0.990517,0.009207,0.026499,-0.002342,0
3.084463,0.043325,1.867883,0.068612,0.060941,0.997451,1.001664,-0.002365,0.021477,0.005437,0
3.128071,0.043608,1.867039,0.06643,0.055357,0.999157,1.002892,-0.005341,0.014552,0.006939,0
3.171659,0.043588,1.866007,0.064491,0.05827,0.994527,0.998318,-0.012603,0.010393,0.016199,0
3.215268,0.043609,1.865213,0.057702,0.051715,0.991846,0.994868,-0.006277,0.041803,0.015093,0
3.266601,0.051334,1.864733,0.053338,0.054871,0.992577,0.995523,0.007087,0.065941,0.006519,0
3.317356,0.050755,1.864888,0.053338,0.026222,0.998426,1.000194,-0.040886,0.059063,0.055612,0
3.360886,0.04353,1.865599,0.055278,0.049287,1.010367,1.013078,0.003598,-0.038396,0.010943,0
3.404154,0.043269,1.863932,0.049944,0.049772,0.981611,0.98414,-0.016938,-0.035601,-0.004607,0
3.447425,0.043271,1.864842,0.052611,0.060213,0.994039,0.99725,-0.079628,-0.030641,0.082531,0
3.501275,0.05385,1.864247,0.073946,0.083035,0.996476,1.002661,-0.193897,0.095934,-0.034266,0
3.552027,0.050752,1.86373,0.082674,0.020152,0.985023,0.988691,-0.11815,0.095323,0.076606,0
3.596209,0.044183,1.86857,0.07928,2.036787,1.298173,2.416618,-1.444033,-0.474309,-0.27678,1
3.641794,0.045585,1.84883,0.018911,-0.107104,0.934334,0.940643,0.163459,-0.152077,-0.368104,0
3.684369,0.042575,1.846391,0.175288,0.090076,0.917275,0.938207,0.154296,-0.032042,0.471225,0
3.750298,0.065929,1.875252,0.137709,0.121882,0.930678,0.948673,0.212328,0.212609,0.685333,0
3.802063,0.051764,1.905189,0.00897,-0.027017,1.006468,1.006871,0.099318,0.161602,0.433351,0
3.851736,0.049673,1.922393,0.104737,-0.028223,0.991115,0.997033,0.096569,0.133502,0.421134,0
3.90332,0.051585,1.948085,0.175288,0.079636,0.977468,0.996249,0.022044,0.103264,0.489551,0
3.963107,0.059787,1.962755,0.04558,0.07478,0.994039,0.99789,-0.218669,0.298492,0.070323,0
4.014844,0.051737,1.973741,0.117829,0.069924,1.034249,1.043286,-0.507303,0.447543,0.296649,0
4.065623,0.050779,1.985243,0.038791,0.034477,0.945787,0.94721,0.368984,-0.108039,0.1983,0
4.121557,0.055934,1.992542,0.114192,0.126981,1.057644,1.071343,0.179921,0.100266,0.321695,0
4.160389,0.038832,2.007465,0.126314,0.123096,1.07056,1.084992,-0.011891,0.233129,0.415462,0
4.2102,0.049811,2.026863,0.109101,0.058513,0.940426,0.94854,0.068132,0.075831,0.318335,0
4.269226,0.059026,2.03857,0.131648,0.060941,0.921905,0.933249,-0.062287,0.104237,0.300314,0
4.30956,0.040334,2.052026,0.127527,0.043703,0.913376,0.92327,0.100508,-0.040538,0.245336,0
4.360314,0.050755,2.063104,0.136739,0.083521,0.975762,0.98883,-0.144449,0.149441,0.183944,0
4.414903,0.054588,2.068335,0.109828,0.069924,0.978443,0.987067,-0.077988,-0.070663,0.113762,0
4.459415,0.044512,2.075113,0.145952,0.095175,1.026207,1.040895,0.106188,0.034711,0.316875,0
4.526273,0.066859,2.087758,0.078068,0.103187,1.237005,1.243754,-0.258498,-0.054475,0.120787,1
4.578839,0.052566,2.089916,0.037337,0.018695,1.126123,1.126897,-0.18886,-0.054475,-0.103706,0
4.615185,0.036345,2.071348,-0.058994,0.000971,1.074703,1.076321,0.610763,-0.395033,-0.196863,0
4.682364,0.067179,2.06861,0.019396,0.084735,1.238711,1.241757,0.099469,0.148026,0.22891,0
4.727626,0.045262,2.066233,-0.066892,0.008741,0.909233,0.911732,-0.041336,-0.293324,-0.267723,0
4.79702,0.069394,2.052369,0.05552,0.000243,0.785435,0.787395,0.034734,-0.072178,-0.162023,0
4.854194,0.057174,2.039533,0.027154,-0.012061,0.918737,0.919217,0.104067,-0.160143,-0.131174,0
4.905948,0.051755,2.039001,0.094554,0.042246,0.970888,0.976396,-0.036603,0.058208,0.214925,0
4.951862,0.045913,2.045297,0.017699,0.02525,0.955292,0.955789,0.054702,-0.053303,0.144714,0
4.997906,0.046044,2.048493,0.044852,0.04783,0.955535,0.957782,-0.152309,0.177707,0.173822,0
5.047387,0.049481,2.055478,0.085583,0.036904,0.913376,0.918119,-0.13826,0.107458,0.248958,0
5.093346,0.045959,2.060215,0.059642,0.004613,0.876821,0.878859,0.109957,-0.118939,0.113437,0
5.136174,0.042828,2.060876,0.122193,0.041275,0.900704,0.909891,-0.037233,0.03354,0.145699,0
5.1789,0.042726,2.062811,0.119283,0.013839,0.92751,0.935251,0.03287,-0.046297,0.119908,0
5.221375,0.042475,2.062304,0.108373,0.017238,1.028157,1.033996,0.269086,-0.246784,0.112716,0
5.264893,0.043518,2.06008,0.129224,0.058513,1.134165,1.143002,-0.074474,0.002408,-0.030319,0
5.310897,0.046004,2.053081,0.098191,0.010926,1.099316,1.103747,-0.014003,-0.041823,-0.0498,0
5.354209,0.043312,2.048913,0.101585,0.001214,1.100779,1.105457,0.314252,0.083669,0.164142,0
5.400865,0.046656,2.053803,0.014547,0.03909,1.184854,1.185588,0.323415,0.231804,0.270433,1
5.440187,0.039322,2.061909,-0.057513,0.071381,1.201913,1.205403,0.060132,0.056485,0.223396,0
5.482752,0.042566,2.067545,-0.044184,0.07915,1.02109,1.025106,-0.219644,0.058623,0.133599,0
5.525361,0.042608,2.067787,-0.051095,0.026707,0.854157,0.856101,0.060124,-0.109656,-0.009994,0
5.569867,0.044507,2.066606,-0.011108,0.044674,0.884376,0.885573,0.139536,-0.14417,0.142417,0
5.612487,0.04262,2.071129,0.006304,0.044674,0.946519,0.947593,-0.016465,0.057107,0.166718,0
5.651331,0.038843,2.073796,0.001212,0.042731,0.94335,0.944319,-0.093929,-0.028045,0.100202,0
5.693932,0.042601,2.070936,0.035155,0.036176,0.897779,0.899195,-0.216181,0.059931,-0.237463,0
5.744779,0.050847,2.05762,0.073704,-0.006031,0.841241,0.844486,-0.015512,-0.118441,-0.466232,0
5.78834,0.043561,2.03828,0.152498,0.024522,0.883645,0.897042,-0.077209,-0.013678,-0.359025,0
5.830744,0.042404,2.022748,0.156135,0.029863,0.934577,0.948,-0.171588,0.070927,-0.353527,0
5.873284,0.04254,2.007151,0.136739,0.01481,0.950661,0.960559,-0.114777,-0.097672,-0.467759,0
5.91966,0.046376,1.986534,0.146195,0.02258,0.978443,0.989562,-0.201825,0.00984,-0.621697,0
5.962254,0.042594,1.959368,0.098675,0.011411,0.986972,0.991958,-0.052469,-0.115692,-0.759142,0
6.004529,0.042275,1.931509,0.096251,0.015539,1.087863,1.092223,-0.038724,-0.190523,-0.741121,0
6.05034,0.045811,1.898333,0.018426,0.039332,1.156829,1.157644,-0.242753,-0.062853,-0.894143,0
6.09262,0.04228,1.864466,0.001212,-0.031118,1.085913,1.08636,0.121017,-0.013067,-0.808927,0
6.135465,0.042845,1.837293,-0.006665,-0.013509,1.180711,1.180807,0.110632,0.169887,-0.659265,1
6.177774,0.042309,1.811432,-0.055291,-0.000965,1.171938,1.173242,-0.119359,0.157975,-0.833667,0
6.216519,0.038745,1.780486,-0.006665,-0.057894,0.949687,0.951473,-0.083928,0.12957,-0.753644,0
6.259885,0.043366,1.753168,-0.000741,-0.077916,0.928241,0.931506,0.161334,0.074897,-0.605204,0
6.316854,0.056969,1.727895,0.005576,-0.034254,0.980392,0.981006,-0.06377,0.183631,-0.290914,0
6.372758,0.055904,1.719376,-0.001728,-0.00193,0.921905,0.921909,-0.271464,0.0694,-0.359941,0
6.425394,0.052635,1.708289,0.023032,-0.013991,0.802737,0.80319,0.008172,-0.029664,-0.188127,0
6.478238,0.052844,1.707556,0.083886,0.006798,0.862443,0.86654,0.036353,0.225586,-0.115909,0
6.531406,0.053168,1.710093,0.062309,0.003399,0.955048,0.957084,0.195401,0.013659,0.005148,0
6.572398,0.040992,1.719702,0.10013,0.020395,1.017922,1.023038,-0.053892,0.105229,0.136729,0
6.625962,0.053564,1.731353,0.115889,-0.003136,0.936771,0.943917,-0.007422,-0.055747,0.143636,0
6.678116,0.052154,1.745676,0.18935,-0.014474,0.976981,0.995266,0.044196,-0.076516,0.187619,0
6.729137,0.051021,1.758407,0.161711,-0.012061,1.111745,1.123509,-0.064233,-0.23137,0.16013,0
6.786404,0.057267,1.77074,0.151529,-0.007478,1.13051,1.140644,-0.205342,-0.183112,0.166238,0
6.837265,0.050862,1.779868,0.083401,-0.021228,1.13319,1.136454,-0.022694,-0.286959,0.091713,0
6.88502,0.047754,1.797936,0.069824,0.009954,1.124417,1.126627,0.177059,0.110714,0.676922,0
6.938673,0.053653,1.835886,-0.056772,0.042246,1.170476,1.172613,-0.017196,-0.074683,0.467089,0
6.9943,0.055627,1.854775,-0.074051,0.022823,0.937258,0.940456,0.003574,-0.226789,0.192811,0
7.047538,0.053238,1.867502,0.001455,0.039575,0.884132,0.885019,0.074128,-0.085068,0.37546,0
7.09433,0.046792,1.893739,0.055278,0.053657,0.876578,0.879956,-0.055986,0.103384,0.622555,0
7.148771,0.054441,1.922218,0.015517,-0.014715,0.846115,0.846386,0.056719,0.052377,0.331783,0
7.199074,0.050303,1.940745,0.04461,-0.019539,0.891687,0.893016,0.133688,0.020306,0.220911,0
7.259915,0.060841,1.949734,0.092129,0.01651,0.97625,0.980726,-0.084086,0.129346,0.134168,0
7.30378,0.043866,1.957296,0.114434,0.003642,0.905334,0.912545,-0.043064,0.053558,0.08887,0
7.363713,0.059933,1.959596,0.127042,0.009954,0.812485,0.822418,-0.121866,0.116172,-0.087975,0
7.40941,0.045697,1.95616,0.129709,0.002185,0.894855,0.904209,-0.029238,0.074624,-0.124023,0
7.463127,0.053718,1.95199,0.130436,0.032291,1.060081,1.068564,-0.022151,0.000523,-0.280987,0
7.502482,0.039355,1.941443,0.104737,0.000728,1.080308,1.085374,0.339787,-0.451823,-0.36773,0
7.546012,0.043529,1.931647,0.164378,0.06264,1.181686,1.194707,-0.06412,-0.055642,-0.037527,1
7.597353,0.051341,1.935403,0.108373,-0.043903,1.114669,1.120785,-0.073589,0.307212,0.09778,0
7.640773,0.043421,1.94478,0.018183,-0.042938,1.181686,1.182606,0.391585,0.123647,0.283483,0
7.684484,0.043711,1.960588,-0.002715,0.06604,1.281114,1.282818,-0.277923,0.258648,0.136264,0
7.730304,0.045819,1.966804,-0.037519,-0.023158,0.993065,0.994043,-0.199427,0.050037,0.00615,0
7.775354,0.04505,1.967286,-0.039247,-0.049934,0.844166,0.846552,0.247115,-0.26975,-0.12488,0
7.818713,0.043359,1.965395,0.006788,-0.060548,0.91362,0.915649,0.000921,0.019767,-0.052512,0
7.866212,0.047499,1.967258,-0.003703,0.054628,0.917031,0.918664,0.17685,-0.188232,0.106924,0
7.910455,0.044243,1.976287,0.02085,0.021851,0.930678,0.931168,0.001837,0.035344,0.268193,0
7.954198,0.043744,1.992288,0.016486,0.030835,0.941401,0.94205,-0.095596,0.101012,0.371734,0
7.99752,0.043322,2.007731,0.002909,0.016024,0.925073,0.925217,0.010695,-0.02055,0.347605,0
8.040204,0.042684,2.023038,0.053096,0.023551,0.923367,0.925192,-0.050392,0.064971,0.365931,0
8.086628,0.046424,2.042566,0.099645,0.012868,0.889737,0.895392,0.013749,-0.020855,0.430683,0
8.131143,0.044515,2.058462,0.114677,-0.005789,0.908746,0.915971,0.103852,0.04634,0.360739,0
8.173487,0.042344,2.071831,0.184501,0.007527,0.957485,0.975128,0.065367,0.150187,0.616691,0
8.216011,0.042524,2.093254,0.152498,-0.005548,1.028157,1.03942,0.179294,-0.106376,0.519869,0
8.258511,0.0425,2.11232,0.189835,0.027193,1.105896,1.122401,-0.044283,-0.058118,0.591035,0
8.301064,0.042553,2.133628,0.17844,0.020395,1.078846,1.093694,-0.122474,-0.20045,0.577901,0
8.344181,0.043117,2.154377,0.116132,0.009954,1.09493,1.101116,0.078806,-0.302159,0.708627,0
8.38291,0.038729,2.180411,0.044368,0.064826,1.193871,1.196452,0.001532,-0.028186,0.924262,1
8.425919,0.043009,2.21085,-0.039494,0.09736,1.140745,1.145573,-0.02779,-0.058424,1.068426,0
8.470099,0.04418,2.250769,-0.085158,0.102944,1.043997,1.052511,-0.083378,-0.069725,0.856456,0
8.512121,0.042022,2.273222,-0.069361,0.086434,0.934577,0.941125,0.080333,-0.087134,0.880585,0
8.554157,0.042036,2.299884,-0.026411,0.090076,0.91362,0.918429,0.093772,0.02496,1.000315,0
8.599217,0.04506,2.332639,-0.011354,0.066768,0.921661,0.924147,0.012833,0.095514,1.058652,0
8.641904,0.042687,2.36271,-0.028139,0.030835,0.878527,0.879518,0.057426,-0.063005,0.837214,0
8.6865,0.044596,2.383211,0.024002,0.015782,0.875846,0.876317,0.135617,-0.015968,0.747416,0
8.729225,0.042725,2.400349,0.061096,0.030592,0.942376,0.94485,0.076974,0.074745,0.758717,0
8.773192,0.043967,2.416364,0.069582,0.041275,0.975518,0.978867,0.012222,0.055808,0.698547,0
8.808074,0.034881,2.430658,0.104252,0.036662,0.94993,0.956337,0.019858,0.089711,0.812168,0
8.850456,0.042383,2.455578,0.086068,0.025979,0.970157,0.974314,-0.037258,0.138275,0.626465,0
8.895786,0.045329,2.462634,0.079765,0.025008,0.962602,0.966225,-0.100788,0.024043,0.443816,0
8.937662,0.041877,2.471596,0.161954,0.01651,0.899485,0.914098,-0.07055,0.006328,0.462142,0
8.982955,0.045293,2.474361,0.160257,-0.000482,0.936771,0.95038,0.069032,-0.083164,0.308815,0
9.03229,0.049335,2.473785,0.165591,0.01651,1.127098,1.139317,0.15883,-0.087745,0.27369,0
9.070398,0.038108,2.472723,0.144255,0.062883,1.310358,1.319773,-0.307261,0.002968,0.223905,1
9.118851,0.048453,2.468905,0.088978,-0.004825,1.170963,1.174349,-0.277634,-0.050788,0.208328,0
9.15675,0.037899,2.465844,0.009455,-0.035219,1.084207,1.08482,0.205866,-0.157384,0.327447,0
9.198149,0.041399,2.468529,-0.050108,0.001214,1.098829,1.099972,0.110266,-0.10546,0.255365,0
9.243078,0.044928,2.464481,-0.030608,0.006798,1.01646,1.016943,0.101408,-0.354388,0.254754,0
9.28466,0.041582,2.463567,0.002667,-0.00193,0.889493,0.8895,0.18021,-0.30277,0.388533,0
9.330117,0.045457,2.468256,0.001212,-0.021952,0.881695,0.881969,0.327428,-0.152191,0.45695,0
9.37153,0.041413,2.475907,0.003394,0.006555,0.977468,0.977496,0.330788,-0.182124,0.70435,0
9.4095,0.03797,2.493711,0.014304,0.016024,0.982098,0.982333,-0.075437,0.099791,0.684803,0
9.457935,0.048435,2.506044,-0.010614,-0.026535,0.883888,0.88435,0.069643,-0.049566,0.57729,0
9.49705,0.039115,2.513435,0.040246,-0.025087,0.877552,0.878833,0.153026,0.007244,0.55591,0
9.542956,0.045906,2.521308,0.09116,-0.022916,0.890712,0.895658,0.12401,0.064666,0.625549,0
9.581835,0.038879,2.533856,0.094311,-0.017851,0.917762,0.922768,0.100797,-0.002224,0.64082,0
9.624051,0.042216,2.547235,0.117586,-0.022675,0.920687,0.928442,0.078501,0.086046,0.727869,0
9.669808,0.045758,2.565883,0.125102,-0.034013,0.938233,0.947147,0.120651,0.091544,0.628909,0
9.711617,0.041808,2.581968,0.147165,-0.034495,0.970888,0.982584,0.083082,-0.008943,0.597449,0
9.757153,0.045536,2.589804,0.161711,-0.049451,0.967476,0.982144,0.12401,-0.031851,0.536363,0
9.79899,0.041838,2.598142,0.131163,-0.042456,1.06788,1.076742,0.124316,-0.249624,0.335388,0
9.84442,0.04543,2.59808,0.136012,-0.033772,1.09493,1.103862,0.130119,-0.351028,0.321032,0
9.893063,0.048642,2.598708,0.083159,0.000971,1.188753,1.191659,0.045209,-0.042236,0.511012,1
9.931201,0.038138,2.613595,0.001212,0.023794,1.201182,1.201418,0.036657,0.177065,0.744668,0
9.980113,0.048912,2.628677,-0.069114,0.023308,1.103947,1.106354,-0.065663,0.033512,0.582177,0
10.018188,0.038076,2.634489,-0.019994,-0.000965,0.874384,0.874613,-0.027484,-0.106376,0.481385,0
10.059799,0.041611,2.643807,0.044125,0.000971,0.860494,0.861625,0.166465,-0.024826,0.58737,0
10.104982,0.045183,2.652779,0.052126,0.032049,0.990871,0.992759,0.07056,-0.001919,0.827134,0
10.146614,0.041631,2.678547,0.041943,0.016267,0.950905,0.951969,0.044598,0.136442,0.855845,0
10.191732,0.045119,2.692993,0.006546,0.010926,0.985754,0.985836,0.044292,0.075661,0.680832,0
10.233314,0.041582,2.700001,0.019396,-0.060306,0.961872,0.963955,-0.088265,0.082992,0.369596,0
10.278408,0.045094,2.7008,0.086796,-0.026535,0.894367,0.898961,0.07056,-0.048344,0.37937,0
10.320678,0.04227,2.702725,0.106191,-0.01568,0.940182,0.94629,0.012833,0.049394,0.32989,0
10.365943,0.045265,2.700179,0.108373,-0.022193,0.955292,0.961675,-0.057417,0.064055,0.296598,0
10.408329,0.042385,2.69678,0.116859,-0.039561,0.96504,0.972894,-0.006104,-0.036432,0.215353,0
10.449988,0.041659,2.68898,0.114919,-0.037872,0.998913,1.006215,-0.035659,-0.053234,0.055673,0
10.488077,0.03809,2.67742,0.124617,-0.040285,0.999157,1.007704,0.004356,-0.152771,-0.024091,0
10.537535,0.049458,2.662007,0.104979,-0.04535,1.033762,1.040068,0.034731,-0.175529,-0.16207,0
10.582935,0.045399,2.643185,0.068127,-0.019539,1.102485,1.10476,-0.072781,-0.134295,-0.185589,0
10.625015,0.042081,2.622282,0.018668,-0.040526,1.054476,1.05542,0.06558,-0.023423,-0.266834,0
10.670164,0.045148,2.600257,-0.010367,-0.049451,1.036686,1.037917,0.356657,0.083478,-0.254922,0
10.711878,0.041715,2.581352,-0.033076,-0.027259,1.124417,1.125234,0.32703,0.067901,-0.267444,0
10.758832,0.046953,2.556926,-0.034063,-0.038596,1.05935,1.0606,0.060082,0.094168,-0.420466,0
10.80066,0.041828,2.533484,-0.044924,-0.076951,0.951149,0.955313,0.203941,-0.13063,-0.505071,0
10.842615,0.041955,2.509295,-0.023449,-0.059824,0.914107,0.916362,0.311453,-0.011206,-0.342886,0
10.887882,0.045267,2.492465,-0.010367,-0.025811,0.991359,0.991749,0.124528,0.144565,-0.236901,0
10.929376,0.041493,2.484084,-0.000247,-0.014232,0.986241,0.986344,0.023007,0.043802,0.010952,0
10.974354,0.044978,2.482753,0.007031,0.011411,0.973325,0.973418,-0.118635,0.15884,0.046712,0
11.015822,0.041469,2.481034,-0.009133,-0.006754,0.932872,0.932941,0.047219,0.069058,0.018999,0
11.06161,0.045788,2.480025,0.011395,0.013354,0.963821,0.963981,0.100266,0.068783,0.096354,0
11.103052,0.041442,2.480888,0.009698,0.013354,0.987216,0.987354,0.059718,0.079209,0.083469,0
11.140969,0.037916,2.481724,0.010425,0.0017,0.99209,0.992146,0.08209,-0.036017,0.084515,0
11.189367,0.048398,2.482301,0.030548,0.001214,0.990384,0.990856,0.101513,-0.033536,0.109379,0
11.227184,0.037818,2.484408,0.02376,0.007769,1.016703,1.017011,0.132361,-0.032925,0.153056,0
11.268568,0.041384,2.491965,0.040488,0.001214,1.041317,1.042104,0.049895,0.121318,0.329596,0
11.313694,0.045126,2.504763,-0.01012,0.003156,1.052039,1.052093,-0.064032,0.025718,0.259041,0
11.355475,0.041781,2.508873,-0.013329,0.016753,0.962359,0.962597,-0.131532,-0.037201,0.046765,0
11.400458,0.044983,2.507243,0.01188,-0.006031,0.869023,0.869125,0.129188,-0.127636,-0.012026,0
11.441862,0.041404,2.503903,0.047035,0.013596,0.947493,0.948758,0.115112,-0.086721,-0.010048,0
11.47972,0.037858,2.503064,0.076128,0.02865,1.059106,1.062225,0.017984,0.07241,0.16863,0
11.521096,0.041376,2.510703,0.051156,0.032049,1.03888,1.040632,0.008821,0.094096,0.277669,0
11.569002,0.047906,2.518781,0.01188,0.017238,1.056913,1.057121,-0.152447,0.096539,0.148472,0
11.607474,0.038472,2.519954,0.015274,-0.002653,0.97893,0.979053,-0.098581,0.038177,-0.007515,0
11.645755,0.038281,2.514616,0.03467,-0.002653,0.942619,0.943261,0.051604,0.004449,-0.159822,0
11.694394,0.048639,2.504789,0.054308,0.01481,0.96309,0.964734,0.146348,-0.017188,-0.180613,0
11.732478,0.038085,2.497074,0.089705,0.036904,1.058619,1.063054,0.140885,0.043761,-0.086286,0
11.781279,0.0488,2.493796,0.087523,0.048073,1.042048,1.046821,0.038743,0.024642,-0.007802,0
11.81982,0.038542,2.492057,0.089705,0.035448,1.016703,1.021268,-0.045955,0.042575,-0.014126,0
11.868586,0.048766,2.490153,0.075158,0.003156,0.9743,0.9772,0.057691,-0.030861,-0.032129,0
11.906659,0.038073,2.487572,0.078068,0.026222,0.992577,0.995988,-0.006771,0.02653,-0.039099,0
11.955828,0.049169,2.485353,0.064491,0.026707,0.992334,0.994786,0.03999,-0.005133,-0.036269,0
12.000957,0.045129,2.484337,0.071522,0.029863,1.000376,1.003373,0.002003,0.020676,-0.020797,0
12.042793,0.041836,2.484572,0.074188,0.017724,0.991602,0.994532,-0.01791,0.027809,2.8e-05,0
12.08795,0.045158,2.485091,0.060127,0.010926,0.985754,0.987646,-0.002213,0.017261,-0.034966,0
12.129532,0.041582,2.48344,0.052368,0.018209,0.995745,0.997288,-0.011427,0.019714,-0.118531,0
12.167658,0.038126,2.477709,0.052611,0.029135,0.984779,0.986614,0.018817,0.004403,-0.149444,0
12.216295,0.048637,2.472874,0.079765,0.037147,0.977955,0.981906,0.033219,0.035179,-0.091495,0
12.254395,0.0381,2.471725,0.079037,0.036419,0.998913,1.002697,0.041361,-0.006618,-0.043804,0
12.303134,0.048739,2.471226,0.08825,0.026707,1.007686,1.011896,-0.015504,0.031295,-0.011458,0
12.34154,0.038406,2.471749,0.081219,0.012868,1.000132,1.003507,-0.013444,-0.017968,-0.008142,0
12.390329,0.048789,2.472849,0.068855,0.025736,1.00988,1.012551,-0.02639,-0.040485,-0.003474,0
12.42848,0.03815,2.473747,0.058187,0.045888,1.003544,1.006276,-0.057473,-0.005671,-0.021123,0
12.477067,0.048588,2.474451,0.058429,0.034719,0.975762,0.978126,-0.003171,-0.020804,0.00639,0
12.515128,0.03806,2.475698,0.064248,0.026464,0.981124,0.983581,-0.006077,0.031966,-0.012084,0
12.556769,0.041641,2.475422,0.063763,0.018695,0.98746,0.989693,0.010799,0.013727,-0.018577,0
12.602529,0.04576,2.475227,0.074431,0.017724,0.999401,1.002325,-0.003289,0.015779,-0.008477,0
12.651315,0.048786,2.475392,0.074673,0.028892,1.008905,1.012077,-0.014645,0.003466,-0.023571,0
12.689409,0.038093,2.47529,0.073219,0.032291,1.003056,1.006243,0.006545,-0.013556,-0.016337,0
12.738017,0.048609,2.475132,0.068855,0.031563,0.988678,0.991575,0.014943,-0.007559,-0.025276,0
12.776536,0.038519,2.474765,0.070552,0.033263,0.989653,0.992722,0.004975,0.003247,-0.014534,0
12.825805,0.049269,2.47513,0.069582,0.027678,0.99014,0.992968,0.029867,0.000699,-0.017687,0
12.87101,0.045204,2.475697,0.071279,0.028892,0.995502,0.998468,-0.001016,0.010409,-0.002417,0
12.912622,0.041612,2.476092,0.067158,0.028407,0.987703,0.990391,-0.008707,0.030928,-0.01579,0
12.950752,0.03813,2.475918,0.067885,0.034719,0.99672,0.999632,-0.016558,0.017744,-0.029941,0
12.999798,0.049046,2.474748,0.077583,0.031563,0.986972,0.99052,0.025938,0.020994,-0.026995,0
13.044974,0.045176,2.474562,0.074673,0.03739,1.000863,1.004341,0.045277,-0.004525,-0.012259,0
13.086512,0.041538,2.474158,0.064976,0.034234,0.999888,1.002582,-0.014495,0.004397,-0.065503,0
13.12458,0.038068,2.473946,0.074431,0.022337,0.982342,0.985411,0.011816,-0.003087,-0.00831,0
13.173155,0.048574,2.474069,0.068612,0.03909,1.007199,1.01029,-0.028742,0.018235,-0.045038,0
13.211247,0.038093,2.4738,0.074188,0.030349,0.998913,1.002124,-0.032442,0.009068,-0.020535,0
13.252831,0.041584,2.474862,0.08025,0.035691,0.993796,0.997669,-0.037329,0.025448,-0.017679,0
13.29802,0.045189,2.475481,0.07637,0.033991,0.983073,0.986621,0.00481,0.017194,0.002275,0
13.339968,0.041948,2.47673,0.071037,0.04176,0.996964,1.000363,0.020282,0.016441,0.007337,0
13.3851,0.045132,2.477253,0.062551,0.036904,1.000132,1.002765,-0.007089,0.024905,-0.014336,0
13.426773,0.041673,2.47663,0.058429,0.029378,0.993308,0.995459,0.021785,-0.020497,-0.010362,0
13.471905,0.045131,2.476707,0.055763,0.036904,0.986729,0.988992,0.054763,-0.035526,-0.035551,0
13.513447,0.041542,2.47688,0.067642,0.036176,0.984535,0.987519,-0.004785,0.076094,-0.032618,0
13.558848,0.045401,2.476723,0.073704,0.040546,0.982586,0.98618,0.06146,0.042613,-0.005143,0
13.600456,0.041609,2.47686,0.070309,0.046859,1.021577,1.025065,-0.01306,0.02814,-0.01205,0
13.645946,0.04549,2.478159,0.079522,0.040061,1.015728,1.019624,-0.028232,-0.009637,0.033995,0
13.687666,0.04172,2.480761,0.062551,0.036904,0.989897,0.992557,-0.007146,-0.023006,0.01041,0
13.733017,0.045351,2.482502,0.05649,0.040546,0.981367,0.983828,-0.028117,0.030659,0.011225,0
13.776836,0.043818,2.485896,0.066673,0.042246,0.978687,0.981864,0.033868,0.004941,0.028835,0
13.821144,0.044308,2.487051,0.058429,0.047345,1.010123,1.012919,-0.018048,0.045279,-0.005225,0
13.872532,0.051388,2.487641,0.062309,0.038118,0.999401,1.002067,0.003792,-0.009909,-0.000342,0
13.923276,0.050743,2.488297,0.055278,0.043217,0.993065,0.99554,0.001612,-0.003742,-0.004659,0
13.966909,0.043633,2.489654,0.058187,0.0539,0.999401,1.002543,-0.034032,0.025661,0.020459,0
14.010638,0.043729,2.491513,0.056247,0.044917,0.99867,1.00126,-0.011475,-0.001211,0.018509,0
14.053999,0.043361,2.493462,0.062551,0.041518,0.997451,1.000273,-0.016377,-0.001277,0.019658,0
14.09717,0.043171,2.49514,0.054065,0.042003,1.004275,1.006606,-0.012442,-0.016682,0.000767,0
14.151168,0.053998,2.496579,0.053096,0.042731,0.994527,0.996859,-0.019828,0.001323,0.003902,0
14.194772,0.043604,2.497688,0.051883,0.042974,0.936527,0.938947,0.007533,-0.007408,0.009241,0
14.238399,0.043626,2.498801,0.053823,0.050258,0.992334,0.995062,-0.011207,0.021886,0.008924,0
14.282159,0.04376,2.500065,0.049701,0.045645,1.000863,1.003135,0.02429,-0.021954,0.016064,0
14.326317,0.044158,2.500975,0.05649,0.047587,0.999157,1.001883,-0.008258,-0.005895,0.025742,0
14.37724,0.050923,2.502662,0.045095,0.036176,0.986729,0.988421,0.016175,0.014231,0.016804,0
14.427982,0.050742,2.503413,0.036124,0.03739,0.993796,0.995155,-0.007301,0.019555,-0.021749,0
14.471622,0.043639,2.503199,0.053823,0.046373,0.995258,0.99779,0.014074,0.021118,-0.005229,0
14.515552,0.043931,2.504116,0.057217,0.050258,1.008174,1.011046,-0.017064,0.000102,0.01601,0
14.559286,0.043734,2.50543,0.054065,0.044188,0.993552,0.996003,-0.025296,0.033434,0.042763,0
14.602925,0.043639,2.507204,0.038064,0.036419,0.999401,1.000788,-0.014253,-0.007822,0.021706,0
14.653657,0.050732,2.506914,0.045337,0.041032,0.999157,1.001026,-0.034159,0.035454,-0.021893,0
14.705083,0.051426,2.507001,0.045822,0.030835,1.006224,1.007739,0.00541,-0.049355,-0.003,0
14.748945,0.043862,2.506852,0.052853,0.049044,0.999401,1.001998,-0.031893,-0.010488,0.00335,0
14.792338,0.043394,2.507294,0.044368,0.044674,0.994771,0.996761,-0.01818,-0.015132,0.017422,0
14.835979,0.04364,2.507219,0.042186,0.037633,0.988678,0.990293,0.011534,-0.000349,-0.006323,0
14.879525,0.043546,2.5069,0.047519,0.038118,0.998426,1.000283,0.006644,-0.011983,0.007798,0
14.923089,0.043564,2.506788,0.04558,0.03909,1.000376,1.002176,0.009147,-0.024953,-0.018837,0
14.966599,0.04351,2.506785,0.049217,0.040304,0.998913,1.000937,-0.011524,-0.021112,0.001277,0
15.010071,0.043471,2.506952,0.044125,0.040061,0.991359,0.993149,0.045685,-0.042836,0.008327,0
15.053623,0.043553,2.507417,0.050914,0.048073,0.998913,1.001365,-0.007388,0.015949,0.004476,0
15.097099,0.043476,2.507732,0.043155,0.03909,0.991602,0.993311,0.034794,-0.029417,0.008838,0
15.140572,0.043473,2.507694,0.051156,0.04176,0.99867,1.000851,-0.006131,0.003016,-0.004111,0
15.183987,0.043415,2.507527,0.048004,0.037633,0.999644,1.001504,0.018716,-0.006947,-0.014108,0
15.227459,0.043472,2.507048,0.052611,0.044674,1.002813,1.005185,-0.013828,-0.006462,0.002261,0
15.270927,0.043467,2.507327,0.051641,0.048801,0.997939,1.000465,-0.037935,0.045981,0.010812,0
15.314663,0.043736,2.507376,0.049944,0.039332,0.993552,0.995584,-0.010531,-0.005079,0.013694,0
15.358647,0.043984,2.506992,0.043398,0.036176,0.996233,0.997834,0.050036,-0.027379,0.008921,0
15.412814,0.054168,2.507138,0.044125,0.034962,1.009636,1.011204,0.053243,-0.066597,0.003861,0
15.45631,0.043496,2.506399,0.040004,0.033505,0.974544,0.97594,0.360813,-0.070567,-0.043482,0
15.499795,0.043485,2.504505,0.056975,0.079393,0.998182,1.002954,0.150546,-0.119531,-0.025333,0
15.550545,0.05075,2.501529,0.050671,0.065554,0.999157,1.002587,0.031743,-0.060653,-0.103792,0
