timestamp,dt,heading_rad,accel_x,accel_y,accel_z,accel_norm,gyro_x_rads,gyro_y_rads,gyro_z_rads,step_event
0.000384,0.000384,2.068401,-0.015797,0.09736,0.987216,0.992131,-0.000301,0.024032,0.001127,0
0.146728,0.146344,2.068357,-0.026411,0.10173,0.936527,0.942406,-0.015011,0.007112,-0.020213,0
0.18899,0.042263,2.067212,-0.017525,0.093961,0.996233,1.000807,0.001309,0.019646,-0.024907,0
0.231447,0.042457,2.063954,-0.022956,0.09299,0.99209,0.996703,0.012811,0.016811,-0.04602,0
0.273979,0.042532,2.062129,-0.012095,0.093718,0.997939,1.002402,-0.008769,0.012099,-0.044244,0
0.312108,0.038129,2.060574,-0.017772,0.094932,0.993065,0.99775,-0.015926,0.02281,-0.033347,0
0.35392,0.041811,2.058263,-0.010367,0.094932,0.988434,0.993037,-0.021099,0.079328,-0.060395,0
0.399198,0.045278,2.055041,-0.02888,0.094446,1.001838,1.006694,0.003613,0.011785,-0.047798,0
0.447839,0.048641,2.052417,-0.031595,0.092261,0.990871,0.995659,0.026765,0.008194,-0.036544,0
0.485966,0.038127,2.050511,-0.023203,0.100516,0.97625,0.981685,-0.005786,0.075854,-0.029323,0
0.527546,0.04158,2.049126,-0.046899,0.096389,0.994283,1.000045,-0.014007,0.073952,-0.038584,0
0.572639,0.045094,2.047086,-0.035051,0.098088,0.995989,1.001421,0.002973,0.027098,-0.037118,0
0.614304,0.041664,2.044753,-0.022215,0.098574,0.999401,1.004496,-0.003376,0.015906,-0.050728,0
0.659833,0.04553,2.041795,-0.03357,0.094446,1.059594,1.064324,0.017702,-0.001779,-0.061587,0
0.701481,0.041648,2.039492,-0.035297,0.091533,0.999157,1.003962,0.005582,-0.064952,-0.019697,0
0.755747,0.054266,2.038445,-0.044924,0.091776,0.997207,1.002429,-0.043131,-0.043302,-0.022048,0
0.805031,0.049284,2.038364,-0.046899,0.091776,0.99209,0.997429,-0.04441,-0.023242,-0.008529,0
0.843064,0.038033,2.038257,-0.032582,0.092018,0.98551,0.990333,-0.00485,0.009063,-0.015272,0
0.892064,0.049,2.037687,-0.039741,0.094932,1.005981,1.011231,-0.046853,0.011212,-0.025141,0
0.930399,0.038335,2.036856,-0.043937,0.094689,1.058863,1.063996,0.034114,-0.064652,-0.011205,0
0.979079,0.04868,2.037696,-0.032582,0.10343,0.995014,1.000906,-0.010212,-0.08533,0.052266,0
1.017197,0.038118,2.041136,-0.047639,0.1078,1.060081,1.066613,-0.066197,-0.049661,0.087424,0
1.065907,0.048711,2.044886,-0.051589,0.099545,0.978199,0.984604,-0.066418,0.001011,0.076314,0
1.104043,0.038136,2.04775,-0.062696,0.084977,0.98551,0.991152,-0.032375,-0.002478,0.047822,0
1.152675,0.048632,2.048553,-0.043443,0.084977,0.998913,1.003462,0.006854,-0.01181,0.011429,0
1.190824,0.038149,2.048646,-0.037025,0.083035,0.990871,0.995034,0.014808,0.028659,0.021526,0
1.232413,0.041589,2.048939,-0.052823,0.089105,1.003544,1.008875,-0.016638,-0.00818,0.026094,0
1.27861,0.046197,2.048746,-0.044924,0.086677,0.998426,1.003188,0.007577,-0.023469,0.000303,0
1.320551,0.041941,2.048273,-0.044184,0.091776,0.994039,0.999244,-0.003328,-0.012421,-0.009832,0
1.362464,0.041914,2.047493,-0.037519,0.088862,0.997207,1.001862,0.007276,-0.0118,0.002371,0
1.408243,0.045779,2.046675,-0.036285,0.087163,0.993308,0.997785,0.022933,-0.017016,0.000827,0
1.458572,0.050329,2.045807,-0.02888,0.086191,0.997695,1.001827,0.000123,0.03588,0.004735,0
1.502346,0.043773,2.04485,-0.045665,0.08522,0.999644,1.004309,0.00611,0.024875,-0.007573,0
1.541624,0.039279,2.043479,-0.032089,0.091047,0.99867,1.003325,0.007059,-0.006642,-0.019925,0
1.589454,0.04783,2.041493,-0.035051,0.092747,0.995989,1.000912,0.032945,-0.009911,-0.010703,0
1.643923,0.054469,2.040716,-0.038506,0.093475,0.997695,1.002804,-0.016131,-0.007133,0.018605,0
1.687522,0.043599,2.040835,-0.031348,0.08959,0.99867,1.00317,-0.039285,-0.029791,0.026966,0
1.730844,0.043322,2.040535,-0.030854,0.09129,0.990628,0.995304,-0.009201,-0.015852,0.000816,0
1.774872,0.044028,2.03968,-0.030361,0.087891,0.991602,0.995953,0.004136,0.010956,0.002738,0
1.826002,0.05113,2.039703,-0.028633,0.090804,1.002569,1.00708,-0.011805,-0.012198,0.022452,0
1.876848,0.050846,2.040229,-0.026411,0.087163,0.993796,0.99796,0.025681,0.001351,0.024936,0
1.923058,0.046209,2.040084,-0.028139,0.087405,0.991602,0.995845,0.014224,0.02964,0.025552,0
1.966309,0.043251,2.040273,-0.035791,0.088862,0.999157,1.003739,-0.008275,-0.006036,0.040451,0
2.00976,0.043452,2.040698,-0.041715,0.083035,0.990384,0.994734,-0.029766,-0.013645,0.024327,0
2.05581,0.04605,2.040882,-0.035791,0.07915,0.995258,0.999042,0.018992,0.032585,0.024671,0
2.103253,0.047442,2.041125,-0.04838,0.088134,1.001107,1.006142,-0.003888,-0.003684,0.003691,0
2.147475,0.044223,2.040397,-0.035791,0.082549,0.991602,0.995676,0.024561,0.00846,-0.030804,0
2.191665,0.04419,2.038585,-0.030854,0.084006,0.995745,0.999759,0.013979,0.020631,-0.008367,0
2.242161,0.050495,2.037989,-0.035297,0.089105,1.006224,1.010778,0.008285,-0.034489,0.018768,0
2.286627,0.044466,2.038025,-0.042949,0.086434,0.981855,0.986587,0.001608,0.034563,0.00356,0
2.338578,0.051952,2.03905,-0.03357,0.099788,1.000376,1.0059,0.011239,0.025458,0.032301,0
2.38215,0.043572,2.040251,-0.03826,0.082792,0.990871,0.99506,0.053033,0.108478,0.002898,0
2.425491,0.043341,2.040367,-0.054551,0.082307,1.001838,1.006692,0.018111,0.06132,-0.002426,0
2.468566,0.043075,2.040472,-0.037025,0.099302,1.006224,1.01179,0.026381,-0.042323,-0.001285,0
2.511729,0.043163,2.040973,-0.043196,0.079879,0.991602,0.995752,-0.017868,0.005633,0.005586,0
2.565936,0.054207,2.042032,-0.033076,0.08692,0.983317,0.987705,-0.029965,0.04173,0.021824,0
2.609521,0.043585,2.042952,-0.047639,0.084249,1.0033,1.007957,0.00177,-0.001558,0.021342,0
2.653325,0.043804,2.043302,-0.036532,0.09129,0.99672,1.001558,0.006458,0.018754,-0.001417,0
2.697023,0.043698,2.042663,-0.048627,0.082792,1.005737,1.01031,-0.040206,0.017164,0.016155,0
2.740862,0.04384,2.042444,-0.04912,0.087405,0.995258,1.000295,0.010279,0.008696,-0.024184,0
2.789129,0.048266,2.040682,-0.060968,0.085463,0.99867,1.004172,-0.055422,-0.0095,-0.013106,0
2.832765,0.043637,2.038993,-0.061462,0.100031,0.999157,1.006031,-0.054218,-0.019286,-0.053463,0
2.876209,0.043444,2.03677,-0.035791,0.093232,0.986485,0.991527,-0.025117,-0.008421,4.3e-05,0
2.921251,0.045042,2.037049,-0.033076,0.081093,0.990628,0.994491,-0.007561,0.010363,0.016112,0
2.964719,0.043468,2.037361,-0.049614,0.086434,0.991359,0.996356,0.065085,0.011155,0.017289,0
3.008171,0.043452,2.038845,-0.077753,0.067254,0.995014,1.000311,0.03785,0.028863,0.045873,0
3.051532,0.043361,2.040314,-0.088861,0.050015,0.991359,0.996589,-0.046302,0.083511,0.007608,0
3.094974,0.043442,2.040186,-0.057019,0.050744,1.041804,1.044596,-0.062921,0.110454,0.003433,0
3.136961,0.041986,2.04144,-0.031595,0.064583,1.008417,1.010977,-0.155881,-0.014401,0.057797,0
3.180828,0.043867,2.044217,-0.035051,0.094932,1.014997,1.02003,-0.069347,-0.093531,0.032691,0
3.224569,0.043741,2.044937,-0.056032,0.058513,0.999401,1.002679,-0.009526,-0.030953,-0.03033,0
3.268431,0.043862,2.043044,-0.062943,0.038847,0.982829,0.985609,-0.020495,0.043613,-0.05424,0
3.311985,0.043553,2.039002,-0.081703,0.021609,0.984048,0.98767,-0.063476,0.012316,-0.173286,0
3.36626,0.054275,2.032416,-0.045418,0.05997,0.972594,0.975499,-0.023464,0.01476,-0.064858,0
3.411047,0.044787,2.039378,-0.060968,0.114113,1.256745,1.263387,-2.269921,-0.595495,0.19476,1
3.457273,0.046227,2.055475,-0.062203,-0.109758,0.88462,0.89357,0.687889,-0.061904,0.260123,0
3.516934,0.059661,2.066191,-0.056772,0.135721,1.178762,1.187907,0.155825,-0.060682,0.108934,0
3.56358,0.046646,2.084445,-0.022215,0.123096,0.97235,0.980363,0.076718,0.234061,0.600375,0
3.624219,0.060639,2.115261,-0.050848,0.093718,0.955048,0.960981,-0.085161,0.585613,0.506607,0
3.676448,0.052229,2.144881,0.022305,0.063369,0.999888,1.002142,-0.12334,0.657696,0.575024,0
3.720231,0.043783,2.169355,-0.029373,0.106829,1.055451,1.06125,-0.028656,0.214513,0.442466,0
3.768923,0.048692,2.19212,0.006304,0.157815,0.93872,0.951914,-0.115705,0.13113,0.451324,0
3.815912,0.046989,2.214844,0.016001,0.151017,0.937258,0.949481,-0.165795,0.243529,0.694143,0
3.865831,0.049918,2.248982,0.041458,0.120911,0.944325,0.952937,-0.261396,0.474741,0.686201,0
3.915262,0.049431,2.278278,-0.091576,0.042974,0.998913,1.004022,-0.1548,0.249638,0.382296,0
3.971615,0.056353,2.294532,-0.032089,0.061912,1.00793,1.01034,-0.128838,0.101808,0.24027,0
4.02831,0.056695,2.301573,0.027396,0.111199,1.132947,1.13872,-0.20764,-0.271125,0.235383,0
4.070951,0.042641,2.306666,0.045095,0.061912,1.180224,1.182707,-0.114788,-0.377721,-0.138467,1
4.137846,0.066895,2.294449,-0.177969,0.060213,1.300366,1.313869,-0.099517,-0.073205,0.031659,0
4.19967,0.061823,2.298606,-0.301139,-0.008684,1.069829,1.111438,0.148189,-0.361228,0.046625,0
4.256857,0.057187,2.286381,-0.245601,0.009226,0.883888,0.917423,-0.048204,-0.583583,-0.257585,0
4.309347,0.05249,2.267648,-0.045418,-0.061513,0.768376,0.772171,0.050145,0.019952,-0.111589,0
4.360188,0.050841,2.265906,-0.085158,-0.106139,0.787628,0.799297,0.254174,-0.324881,0.412839,0
4.415229,0.055041,2.281304,-0.009627,-0.049451,0.897535,0.898948,0.292964,0.240475,0.615952,0
4.461179,0.04595,2.304059,-0.123418,0.03302,0.997207,1.005358,-0.212221,0.435646,0.733849,0
4.509814,0.048635,2.331199,-0.130082,-0.06103,0.930922,0.941946,-0.307822,0.601801,0.489197,0
4.558259,0.048444,2.339771,-0.146867,-0.055241,0.894367,0.908028,-0.169155,0.27957,0.183765,0
4.613372,0.055114,2.334956,-0.069114,-0.04125,0.93604,0.939494,-0.237572,0.273461,-0.194666,0
4.662057,0.048685,2.323118,-0.064424,-0.092872,0.979661,0.98616,-0.218941,0.331188,-0.008352,0
4.713025,0.050967,2.31482,-0.056032,-0.081776,1.057157,1.061795,-0.063043,-0.112969,-0.053177,0
4.766361,0.053336,2.304207,-0.061462,-0.048969,1.179005,1.181621,-0.17168,-0.101741,-0.343161,1
4.808424,0.042064,2.279422,-0.14662,-0.096008,1.15561,1.168824,0.023797,-0.409617,-0.584147,0
4.861863,0.053438,2.249275,-0.170563,-0.103968,1.136358,1.153781,0.129477,-0.28103,-0.51237,0
4.904351,0.042489,2.222182,-0.153532,-0.104933,1.085182,1.101001,0.164296,-0.053177,-0.284823,0
4.957974,0.053623,2.209056,-0.170563,-0.134122,0.976737,1.000548,0.257148,-0.139309,-0.191361,0
5.000023,0.042049,2.195412,-0.200184,-0.041973,0.869998,0.893718,0.004555,-0.068754,-0.415243,0
5.045545,0.045522,2.17377,-0.191791,-0.093354,0.817603,0.84497,0.253788,-0.344865,-0.349575,0
5.094641,0.049097,2.164662,-0.152791,-0.008684,0.888031,0.901122,0.349694,-0.412366,0.161719,0
5.141351,0.04671,2.174465,-0.106633,0.052929,0.995014,1.00211,-0.138082,0.049143,0.180656,0
5.190074,0.048723,2.173948,-0.162171,-0.06103,0.889981,0.906692,-0.237959,0.110535,-0.097288,0
5.23616,0.046086,2.166986,-0.090589,-0.055,0.812729,0.819609,-0.119145,-0.001864,-0.134856,0
5.278214,0.042054,2.155338,-0.042703,-0.03932,0.827351,0.829385,-0.010717,-0.012249,-0.262527,0
5.323979,0.045765,2.141597,-0.033323,-0.027017,0.883645,0.884685,0.017078,-0.090745,-0.274438,0
5.367002,0.043023,2.129425,-0.055291,-0.029188,0.950661,0.952715,0.015856,-0.175044,-0.427155,0
5.415094,0.048092,2.106855,-0.032582,-0.028706,1.038636,1.039543,0.021965,-0.025688,-0.495266,0
5.454123,0.039029,2.087088,-0.105399,-0.049934,1.132459,1.138449,0.089771,-0.187262,-0.478467,0
5.496076,0.041953,2.056758,-0.156741,-0.009408,1.163896,1.174441,-0.212608,-0.007362,-0.892329,0
5.541904,0.045828,2.017123,-0.106633,-0.079605,1.095661,1.103712,-0.140526,0.283715,-0.763436,0
5.590541,0.048637,1.989137,-0.121443,-0.194911,1.038392,1.063483,0.400701,0.106564,-0.503208,0
5.636206,0.045665,1.965018,-0.223139,-0.068026,1.070804,1.09592,0.521958,-0.17932,-0.657146,0
5.677881,0.041675,1.935236,-0.117741,-0.018092,1.01451,1.02148,0.260813,0.178952,-0.692881,0
5.722944,0.045063,1.909904,-0.031348,-0.124473,0.920687,0.929591,0.232102,0.207663,-0.316283,0
5.764434,0.04149,1.903689,-0.061956,-0.117477,0.935065,0.94445,0.267532,0.113589,0.04932,0
5.802623,0.038189,1.905279,-0.106386,-0.056688,0.953342,0.960933,0.006388,0.194529,-0.014515,0
5.851825,0.049202,1.90167,-0.10688,-0.031118,0.877552,0.884584,-0.146634,0.122752,-0.149822,0
5.898734,0.04691,1.895347,-0.086392,-0.057894,0.869023,0.875224,0.103528,-0.185542,-0.075068,0
5.947265,0.048531,1.893018,-0.020241,-0.027982,0.896317,0.896982,0.109332,-0.257013,-0.025588,0
5.993234,0.045969,1.894428,0.025699,0.001457,0.968208,0.96855,-0.057953,-0.103684,0.001787,0
6.034693,0.041458,1.895661,0.004606,0.00437,0.971863,0.971884,-0.058649,-0.135154,0.098426,0
6.079732,0.045039,1.902716,-0.012835,-0.031359,1.034006,1.034561,0.062874,-0.23627,0.248,0
6.12134,0.041608,1.913443,-0.096266,-0.060789,1.129535,1.135258,0.010166,-0.128696,0.087976,0
6.166636,0.045296,1.913121,-0.222893,-0.016403,1.126123,1.148087,0.093549,-0.097848,-0.185386,0
6.208254,0.041618,1.909483,-0.191051,-0.033048,1.202157,1.217692,0.188233,-0.052338,0.217785,1
6.246253,0.037998,1.937082,-0.149582,-0.110481,1.269417,1.282965,0.161661,0.14375,0.760539,0
6.295882,0.049629,1.960827,-0.335203,0.036419,1.094442,1.145204,-0.015185,-0.080132,0.166778,0
6.34155,0.045669,1.97197,-0.156494,0.026464,0.909477,0.923222,0.070642,-0.168402,0.549485,0
6.383114,0.041564,2.011092,-0.070595,0.033748,0.884376,0.887831,0.006196,0.083274,0.829567,0
6.435088,0.051975,2.042895,-0.128848,0.086191,0.822477,0.836958,-0.195084,0.235379,0.495423,0
6.47767,0.042582,2.060991,-0.106386,0.0017,0.724267,0.732041,-0.010298,-0.08899,0.343623,0
6.523603,0.045933,2.075607,0.004606,-0.036184,0.742788,0.743683,0.127758,0.021271,0.306055,0
6.565249,0.041646,2.088347,0.013577,-0.033772,0.854157,0.854933,0.108516,0.008443,0.353092,0
6.603207,0.037957,2.100074,0.004849,-0.008925,0.920199,0.920255,0.009695,0.02722,0.195506,0
6.651759,0.048553,2.103809,-0.016785,-0.030877,0.999644,1.000262,0.029553,-0.128107,-0.103937,0
6.689686,0.037927,2.095455,-0.003949,-0.005789,1.031569,1.031593,-0.013208,-0.291208,-0.337899,0
6.731184,0.041497,2.079762,0.050186,-0.013991,1.105896,1.107123,0.021917,-0.271355,-0.266733,0
6.77619,0.045006,2.070906,-0.059981,-0.014474,1.210442,1.212014,-0.225483,-0.224319,-0.355308,1
6.817647,0.041457,2.048625,-0.189817,0.037876,1.196308,1.211865,-0.28657,0.102494,-0.636917,0
6.862867,0.04522,2.029584,-0.14193,-0.176577,1.244803,1.265251,0.123015,-0.016624,-0.001006,0
6.904519,0.041652,2.028838,-0.24412,0.000971,1.195577,1.220246,-0.096896,0.144339,-0.443578,0
6.942471,0.037952,2.005227,-0.175994,-0.010855,0.964796,0.980777,0.192043,-0.065799,-0.536124,0
6.991005,0.048534,1.992588,-0.052823,-0.050416,0.8873,0.8903,0.377441,-0.146739,-0.105464,0
7.029444,0.038439,1.996456,-0.008146,0.008498,0.875603,0.875682,0.039021,0.252462,0.032897,0
7.077919,0.048475,1.999735,-0.124899,0.007284,0.876578,0.885461,0.123173,0.023615,-0.175823,0
7.11606,0.03814,1.996783,-0.086639,0.003642,0.835636,0.840124,0.12073,-0.126047,-0.253708,0
7.157469,0.041409,1.993275,-0.03431,-0.010855,0.826132,0.826916,0.147913,-0.192325,-0.097937,0
7.202444,0.044975,1.996015,-0.025177,-0.000724,0.837586,0.837965,0.190979,-0.244249,0.016294,0
7.244042,0.041599,2.003145,0.04364,0.019909,0.940182,0.941405,-0.120792,0.147132,0.091637,0
7.289046,0.045004,2.012203,-0.020734,-0.007478,0.930678,0.930939,-0.065033,-0.081903,0.091012,0
7.330449,0.041403,2.019002,-0.01012,-0.025811,0.960166,0.960566,0.211573,-0.230445,0.165373,0
7.36877,0.038321,2.031343,-0.021722,0.016024,1.177056,1.177365,0.002657,-0.041382,0.097262,0
7.417439,0.048669,2.033046,-0.120703,0.062883,1.161947,1.16989,-0.098283,0.122255,-0.266154,0
7.455801,0.038362,2.027754,-0.110089,0.01044,1.114913,1.120384,0.091696,0.159213,-0.098777,0
7.505192,0.049391,2.034965,-0.088614,0.009469,1.168039,1.171434,0.202873,0.182731,0.373728,0
7.550307,0.045115,2.056215,-0.165627,0.052929,1.138552,1.151752,0.158586,0.008635,0.360288,0
7.591946,0.041639,2.070486,-0.187101,0.090804,1.017922,1.03895,0.114603,-0.115066,0.250333,0
7.637309,0.045363,2.085474,-0.041222,0.053414,0.937258,0.939683,0.074286,-0.035653,0.578367,0
7.67906,0.041751,2.116135,-0.019747,0.070167,0.904846,0.907778,-0.305977,0.323536,0.742385,0
7.724169,0.045109,2.145164,-0.125886,0.023794,0.788116,0.798461,-0.089731,0.174484,0.48521,0
7.765737,0.041568,2.161076,-0.098981,-0.020987,0.790309,0.79676,-0.053079,-0.095823,0.33341,0
7.811075,0.045338,2.168605,-0.013823,0.002914,0.813704,0.813826,-0.043772,0.103148,0.097845,0
7.853216,0.042141,2.16869,0.011395,-0.034737,0.852452,0.853235,0.024023,-0.11815,0.023817,0
7.898566,0.04535,2.1665,0.067642,-0.055482,0.952611,0.95662,0.010113,-0.258912,0.079231,0
7.940163,0.041598,2.1645,0.082432,-0.013267,1.046191,1.049517,-0.206744,-0.0277,-0.153203,0
7.985475,0.045312,2.154016,0.049217,-0.012303,1.087619,1.088802,-0.212853,-0.136434,-0.166948,0
8.02743,0.041954,2.146264,0.040488,-0.018333,1.169258,1.170102,-0.263555,-0.20424,-0.152287,0
8.072552,0.045123,2.133759,-0.007158,0.065797,1.197526,1.199354,-0.378092,0.281704,-0.428092,1
8.114444,0.041891,2.112001,-0.059981,-0.023158,1.106627,1.108494,0.100826,0.220312,-0.355094,0
8.159515,0.045071,2.09899,-0.114285,-0.072127,1.171694,1.179462,0.381824,-0.049996,-0.124798,0
8.201051,0.041536,2.087659,-0.205367,0.008012,1.121249,1.13993,0.168633,0.167472,-0.590583,0
8.246029,0.044978,2.062967,-0.167601,-0.087806,0.912157,0.931575,0.262706,-0.019758,-0.435423,0
8.287518,0.041489,2.051525,-0.130823,-0.091907,0.870973,0.885525,0.392209,-0.129409,-0.099752,0
8.32551,0.037992,2.049105,-0.107374,-0.015197,0.91167,0.918097,0.185431,0.221533,-0.107388,0
8.374741,0.049231,2.046422,-0.149829,-0.02557,0.902166,0.91488,0.117014,-0.050302,-0.218566,0
8.413375,0.038635,2.035658,-0.104165,-0.00989,0.841485,0.847965,0.115487,0.061487,-0.436645,0
8.455804,0.042428,2.024099,-0.046899,-0.017127,0.872678,0.874105,0.215669,-0.078401,-0.198713,0
8.50039,0.044586,2.023269,0.004122,0.027436,0.890225,0.890657,0.167,-0.075282,0.041864,0
8.543366,0.042976,2.030467,0.025942,0.05827,0.918981,0.921192,-0.007243,0.084688,0.111105,0
8.586959,0.043593,2.039308,0.033942,0.029135,0.928972,0.930049,-0.05594,0.049859,0.149697,0
8.630752,0.043793,2.048952,0.055035,0.006798,0.988434,0.989989,0.052374,0.027422,0.170058,0
8.674615,0.043863,2.059453,0.001212,0.008741,1.094442,1.094478,0.136062,-0.186686,0.122716,0
8.71812,0.043505,2.06252,-0.000987,0.031077,1.191678,1.192083,0.048711,-0.148211,-0.212437,1
8.7616,0.043479,2.049989,-0.08812,0.038118,1.184367,1.188252,0.036494,-0.119806,-0.427156,0
8.805395,0.043796,2.039178,-0.025177,0.023794,1.216778,1.217271,0.091166,0.193263,0.051762,0
8.853977,0.048581,2.053159,-0.117741,0.013354,1.201182,1.207012,0.053598,0.132482,0.359333,0
8.899309,0.045332,2.067881,-0.253747,0.069681,0.937502,0.973731,0.049004,-0.232016,0.095285,0
8.949979,0.05067,2.079822,-0.097253,0.05997,0.881451,0.888826,0.066108,-0.239346,0.530526,0
9.001911,0.051932,2.11004,-0.037272,0.089105,0.927267,0.932283,-0.135477,0.072806,0.888799,0
9.045405,0.043494,2.145711,-0.139462,0.087648,0.891687,0.906773,-0.225274,0.059978,0.796864,0
9.088912,0.043508,2.173104,-0.098241,0.040789,0.852452,0.859063,-0.160828,0.214221,0.638039,0
9.132949,0.044037,2.195052,-0.115766,0.017724,0.864393,0.87229,0.008076,-0.058225,0.297481,0
9.187528,0.054579,2.198075,-0.052823,0.047345,0.911426,0.914182,-0.077631,0.085886,-0.015689,0
9.231194,0.043665,2.192068,0.009213,0.009226,0.901191,0.901285,-0.127051,-0.020271,-0.011833,0
9.274785,0.043591,2.185816,0.034912,0.002185,0.917031,0.917698,-0.090982,-0.00912,-0.106229,0
9.318454,0.043669,2.175114,0.075401,-0.011579,0.970157,0.973152,-0.189942,0.063573,-0.207022,0
9.362392,0.043938,2.161054,0.094554,-0.045109,0.972838,0.978462,-0.211017,0.004625,-0.279409,0
9.413482,0.05109,2.144121,0.079522,-0.093596,1.008905,1.016353,-0.128855,-0.149313,-0.266886,0
9.457078,0.043596,2.128123,-0.0,-0.074298,1.174131,1.17648,-0.241255,-0.177718,-0.634016,0
9.500582,0.043504,2.085894,-0.111323,-0.055723,1.163409,1.17005,-0.098007,-0.121213,-1.029552,0
9.552903,0.052321,2.045303,-0.071829,-0.171512,1.225795,1.239818,0.282562,-0.258353,-0.279104,1
9.597187,0.044284,2.022426,-0.271272,-0.027017,1.238467,1.268117,-0.06838,-0.126406,-1.036577,0
9.648283,0.051097,1.968248,-0.219931,-0.04921,0.898998,0.926816,-0.020427,-0.016756,-0.926315,0
9.691774,0.043491,1.943097,-0.147855,-0.098661,0.897048,0.914489,0.230639,-0.252244,-0.370123,0
9.735261,0.043487,1.931023,-0.164146,-0.007719,0.958947,0.972925,0.085558,0.108472,-0.251615,0
9.778692,0.043431,1.926481,-0.184139,-0.026776,0.955292,0.973245,-0.098312,0.146956,-0.104396,0
9.822841,0.044149,1.922637,-0.20512,-0.03546,0.914351,0.937747,0.052556,0.036171,-0.183055,0
9.866749,0.043909,1.918199,-0.151557,-0.013267,0.962359,0.97431,0.131902,0.041903,-0.052508,0
9.910356,0.043607,1.925235,-0.070842,-0.008202,0.991115,0.993677,-0.069013,0.155843,0.407927,0
9.960955,0.050598,1.940031,-0.156247,0.03302,0.984535,0.997403,-0.093447,0.242281,0.131816,0
10.011794,0.050839,1.950984,-0.131317,-0.039561,0.919225,0.929399,0.111498,-0.072926,0.246353,0
10.065976,0.054183,1.962513,-0.084418,-0.024123,0.946762,0.950824,0.119745,0.012901,0.253989,0
10.109598,0.043622,1.974754,-0.077506,-0.048728,0.981611,0.985871,0.133795,-0.014893,0.258876,0
10.153282,0.043684,1.983932,-0.084171,-0.050899,0.99209,0.996954,0.269101,-0.14287,0.129067,0
10.196998,0.043716,1.992496,-0.046158,-0.052346,1.055938,1.058242,0.267574,0.006487,0.309883,0
10.240556,0.043558,2.007731,-0.064177,-0.026052,1.089325,1.091525,0.009484,0.14271,0.400291,0
10.2841,0.043544,2.022745,-0.10688,-0.015438,0.991359,0.997223,-0.054352,0.078874,0.302553,0
10.327779,0.04368,2.030066,-0.154272,-0.035701,0.931166,0.944534,0.048964,-0.199928,0.005277,0
10.378789,0.051009,2.027458,-0.060475,-0.038114,0.892905,0.895762,0.208705,-0.269872,-0.073525,0
10.429899,0.05111,2.025309,0.034185,-0.005789,0.952124,0.952755,0.172053,-0.042324,0.146997,0
10.473612,0.043714,2.033316,0.013092,0.003156,1.019871,1.01996,-0.010596,0.222486,0.292689,0
10.517505,0.043892,2.04313,-0.116506,-0.001206,1.034249,1.040792,-0.054261,0.087516,0.112995,0
10.559312,0.041808,2.041406,-0.114285,-0.0,0.997695,1.004219,-0.012063,0.00617,-0.114312,0
10.603244,0.043932,2.033612,-0.022709,-0.019298,0.962602,0.963064,0.146704,-0.085058,-0.149973,0
10.657493,0.054249,2.025855,0.026184,0.005099,1.008661,1.009014,0.117211,-0.020266,-0.12493,0
10.708197,0.050704,2.020499,0.007758,0.010683,1.038636,1.03872,-0.03326,0.051708,-0.001989,0
10.751835,0.043638,2.018882,-0.024437,-0.00386,0.993065,0.993373,-0.023199,0.047749,-0.04044,0
10.795957,0.044122,2.01641,-0.046158,0.010197,0.977955,0.979097,-0.011553,0.020974,-0.056772,0
10.839685,0.043727,2.014386,-0.003703,0.010683,0.975762,0.975828,0.01647,0.068752,-0.01301,0
10.890576,0.050891,2.015154,-0.025918,-0.000241,1.012317,1.012648,0.04279,-0.044771,0.047386,0
10.93419,0.043614,2.016489,-0.02419,-0.004342,1.017678,1.017975,-0.002498,-0.016051,-0.055717,0
10.978033,0.043844,2.015284,-0.050848,-0.016645,0.987703,0.989151,0.049314,-0.065038,-0.033266,0
11.022085,0.044052,2.012969,-0.044184,0.003399,0.937014,0.938062,-0.01728,-0.019801,-0.054028,0
11.065758,0.043674,2.011946,-0.007158,0.000486,0.96967,0.969696,0.017371,0.034238,0.029233,0
11.116593,0.050835,2.013443,-0.017525,0.002185,0.998913,0.999069,0.005103,-0.003307,0.023349,0
11.170689,0.054096,2.013036,-0.01876,-0.011579,0.995502,0.995746,0.038711,-0.010047,-0.055727,0
11.221272,0.050583,2.011883,-0.032582,0.001214,1.000376,1.000907,-0.022066,-0.005686,0.005167,0
11.264782,0.04351,2.012041,-0.012095,-0.012303,0.986729,0.986879,0.019071,-0.006731,0.016617,0
11.308329,0.043547,2.012702,-0.013082,0.000486,0.993552,0.993638,-0.005444,-0.022581,0.039192,0
11.35219,0.043861,2.01419,-0.016291,-0.005548,0.995502,0.99565,0.013728,0.015921,0.036727,0
11.395798,0.043608,2.015661,-0.016291,-0.004101,1.001594,1.001735,0.017717,0.016687,0.027435,0
11.439578,0.04378,2.016551,-0.022956,-0.00796,0.999401,0.999696,0.012049,-0.025565,0.014334,0
11.483061,0.043483,2.01711,-0.019747,-0.018092,0.985997,0.986361,0.028608,-0.023127,-0.002642,0
11.526826,0.043766,2.016979,-0.01481,-0.014474,0.987703,0.98792,0.043755,-0.020199,-0.013661,0
11.571993,0.045167,2.016531,-0.012342,0.0017,0.999157,0.999235,-0.001203,0.004143,-0.004186,0
11.623583,0.051589,2.0172,-0.003949,-0.002895,1.058619,1.05863,0.012932,-0.017248,0.036725,0
11.666729,0.043146,2.01944,-0.013329,-0.003136,0.992577,0.992672,0.039555,-0.004195,0.047056,0
11.716888,0.050159,2.021762,-0.016785,-0.002412,0.997939,0.998083,0.023551,0.011972,0.013872,0
11.768111,0.051222,2.021404,-0.025177,-0.016403,0.994039,0.994494,0.027528,0.030462,-0.025063,0
11.812219,0.044108,2.019709,-0.032582,-0.016886,0.997939,0.998613,0.037945,-0.004538,-0.054634,0
11.856114,0.043895,2.017362,-0.016044,-0.006754,0.99672,0.996872,0.029357,-0.007641,-0.053752,0
11.907829,0.051715,2.015416,-0.002962,-0.061271,0.995502,0.99739,0.031866,-0.00481,-0.032128,0
11.95144,0.043611,2.01461,-0.017772,-0.007237,0.986485,0.986671,0.071493,-0.067398,-0.018589,0
11.995404,0.043963,2.013975,-0.015551,0.004613,1.006712,1.006842,-0.00711,-0.006213,-0.045384,0
12.039068,0.043664,2.012787,-0.016291,-0.001689,0.979418,0.979555,0.035723,0.027827,-0.045787,0
12.083271,0.044203,2.012805,-0.016044,0.015296,0.993796,0.994043,0.018848,0.032223,-0.019539,0
12.127501,0.04423,2.013456,-0.016291,0.007041,0.991846,0.992005,0.054192,-0.021589,-0.008132,0
12.178276,0.050775,2.013934,-0.028139,0.000728,0.980149,0.980553,0.10596,-0.038989,-0.00729,0
12.222108,0.043832,2.014665,-0.005924,0.020395,0.992334,0.992561,0.052604,0.006065,0.017199,0
12.265761,0.043653,2.016629,-0.017032,0.016267,0.987703,0.987984,0.033844,0.011477,0.041025,0
12.309411,0.04365,2.019873,-0.011601,0.019181,1.007443,1.007692,-0.022416,0.083733,0.052493,0
12.353396,0.043985,2.022446,-0.041222,0.002428,1.0033,1.004149,-0.006175,-0.004897,-0.012674,0
12.404462,0.051066,2.022399,-0.029127,-0.000241,0.992577,0.993005,0.016601,-0.044023,-0.046022,0
12.448012,0.04355,2.021594,-0.013576,0.018209,0.992577,0.992837,0.020711,-0.001502,-0.033794,0
12.491291,0.043279,2.022014,-0.011354,0.039332,0.998913,0.999752,-0.027242,0.013464,0.019963,0
12.545597,0.054306,2.025326,-0.0195,0.019423,0.998913,0.999292,-0.013179,-0.008096,0.034434,0
12.597896,0.052299,2.027844,-0.027646,0.011654,0.995502,0.995954,-0.026653,0.005808,0.01992,0
12.642262,0.044366,2.029762,-0.026165,0.008498,0.993065,0.993446,-0.021551,0.028164,0.013808,0
12.685631,0.043369,2.03125,-0.021475,0.023794,0.970157,0.970686,0.039841,0.012969,0.020155,0
12.729042,0.043411,2.033302,-0.021228,0.026707,1.011829,1.012404,-0.042492,0.020457,0.03392,0
12.772843,0.043801,2.033712,-0.017032,0.003399,0.984535,0.984688,0.039824,-0.006168,-0.016073,0
12.823828,0.050986,2.032838,-0.020734,0.002185,0.990384,0.990603,0.007886,0.02001,-0.047336,0
12.868107,0.044279,2.031492,-0.017772,0.012625,0.989165,0.989406,-0.004488,0.033616,-0.045118,0
12.916711,0.048604,2.030876,-0.02493,0.016753,1.0033,1.003749,0.005014,-0.001345,-0.026511,0
12.960114,0.043402,2.031549,-0.022956,0.028164,0.999157,0.999817,-0.00798,-0.003144,0.010452,0
13.00396,0.043847,2.033262,-0.028386,0.015539,0.992334,0.992861,0.004663,0.005065,0.021776,0
13.047501,0.04354,2.036064,-0.032829,0.008255,0.983804,0.984386,0.05428,-0.015858,0.046166,0
13.091304,0.043803,2.038821,-0.020981,0.029378,0.995502,0.996156,-0.069173,0.083264,0.016582,0
13.135041,0.043737,2.040572,-0.032089,0.009954,1.001594,1.002157,0.035872,0.028365,-0.015311,0
13.189057,0.054016,2.040709,-0.037519,0.013839,1.008661,1.009454,0.005459,-0.033107,-0.021347,0
13.23973,0.050673,2.040783,-0.032335,0.019666,1.000132,1.000848,0.02737,-0.060739,-0.017958,0
13.283564,0.043834,2.041254,-0.037766,0.019181,0.99867,0.999568,0.017989,-0.03985,-0.022343,0
13.327342,0.043777,2.040646,-0.03431,0.022337,0.990628,0.991473,0.019051,-0.019162,-0.080545,0
13.371434,0.044093,2.037765,-0.020241,0.027436,1.006955,1.007532,-0.024932,-0.068694,-0.06485,0
13.422549,0.051115,2.03761,-0.013329,0.046859,0.991359,0.992555,0.001381,-0.051987,0.011897,0
13.466003,0.043454,2.039926,-0.030854,0.027436,0.97625,0.977122,0.102881,0.020157,0.016923,0
13.509198,0.043195,2.042315,-0.037272,0.025736,0.990871,0.991906,0.174281,0.00255,0.002671,0
13.563474,0.054276,2.044271,-0.00938,0.040789,1.01256,1.013425,-0.014471,0.032616,0.009065,0
13.607989,0.044515,2.047459,-0.016538,0.048073,0.999644,1.000936,0.041454,-0.046423,-0.004527,0
13.658886,0.050898,2.049051,-0.021968,0.040789,0.936771,0.937916,-0.003387,-0.074171,-0.010157,0
13.709289,0.050402,2.050805,-0.010861,0.047102,0.98746,0.988642,-0.063378,0.003405,0.028454,0
13.763411,0.054122,2.054014,-0.01481,0.040061,0.999401,1.000313,-0.018459,-0.005361,0.033769,0
13.81434,0.05093,2.056331,-0.018019,0.035691,0.999644,1.000444,0.036705,-0.064417,0.002148,0
13.858314,0.043973,2.057139,-0.0195,0.039575,0.936771,0.937809,0.176359,-0.143858,-0.024494,0
13.903996,0.045683,2.055773,-0.01012,0.043217,0.988922,0.989917,0.079809,-0.107722,-0.076178,0
13.947302,0.043305,2.053644,-0.025424,0.03909,0.986485,0.987586,0.142423,-0.150178,-0.072818,0
