timestamp,dt,heading_rad,accel_x,accel_y,accel_z,accel_norm,step_event
0.002157,0.002157,2.117001,0.004364,0.076965,0.987216,0.990221,0
0.129549,0.127392,2.116834,-0.00469,0.087163,0.993065,0.996894,0
0.16331,0.033761,2.11642,0.000727,0.085463,0.990871,0.99455,0
0.190001,0.026692,2.116257,-0.000247,0.086677,0.994039,0.997811,0
0.218334,0.028332,2.11656,-0.001234,0.087648,0.994283,0.99814,0
0.25265,0.034317,2.116742,-0.005924,0.083278,0.995502,0.998996,0
0.2795,0.026849,2.116626,-0.006171,0.086434,0.995258,0.999023,0
0.313438,0.033939,2.116167,0.000485,0.083278,0.993308,0.996793,0
0.340518,0.02708,2.115489,-0.003456,0.083763,0.995989,0.999511,0
0.374675,0.034156,2.114717,0.000727,0.084492,0.990871,0.994467,0
0.401598,0.026924,2.113846,-0.001234,0.082307,0.994771,0.99817,0
0.435457,0.033859,2.112828,-0.005677,0.085463,0.995989,0.999665,0
0.462221,0.026764,2.111806,-0.006911,0.084735,0.994771,0.998397,0
0.496878,0.034657,2.111051,-0.001728,0.086434,0.996476,1.00022,0
0.539727,0.042849,2.110827,-0.001975,0.085706,0.993552,0.997244,0
0.566909,0.027182,2.110963,-0.001234,0.08692,0.995745,0.999533,0
0.601764,0.034856,2.111307,-0.001234,0.083278,0.993065,0.996551,0
0.632856,0.031092,2.111725,-0.006171,0.083763,0.993796,0.997339,0
0.65972,0.026863,2.112041,-0.003703,0.083035,0.995745,0.999208,0
0.686497,0.026778,2.111921,-0.001975,0.084249,0.993552,0.99712,0
0.720355,0.033858,2.111992,-0.001481,0.085949,0.995258,0.998963,0
0.747066,0.026711,2.112245,-0.000987,0.086434,0.993065,0.99682,0
0.773865,0.026798,2.112313,-0.000987,0.085706,0.995014,0.998699,0
0.807653,0.033788,2.112248,-0.002962,0.084977,0.994527,0.998155,0
0.834698,0.027045,2.11198,-0.002962,0.085463,0.993796,0.997468,0
0.868647,0.033949,2.111593,-0.003209,0.083035,0.996476,0.999935,0
0.895663,0.027016,2.111119,-0.002715,0.083521,0.993796,0.997303,0
0.929514,0.033851,2.110655,-0.003209,0.083278,0.994039,0.997527,0
0.956299,0.026785,2.110114,-0.000987,0.085706,0.993065,0.996757,0
0.990279,0.03398,2.109496,-0.002222,0.085949,0.995014,0.998722,0
1.019162,0.028883,2.109068,-0.003949,0.08522,0.994283,0.997936,0
1.053872,0.03471,2.108713,-0.002222,0.08692,0.995989,0.999777,0
1.080901,0.027029,2.108365,-0.002468,0.084492,0.994039,0.997627,0
1.111175,0.030273,2.108,-0.002715,0.085706,0.994527,0.998217,0
1.138141,0.026967,2.107595,-0.001234,0.084977,0.993552,0.99718,0
1.164921,0.02678,2.107299,-0.001728,0.084492,0.996964,1.000539,0
1.19891,0.033988,2.107162,-0.001728,0.084492,0.997451,1.001025,0
1.225764,0.026854,2.106936,-0.003209,0.084977,0.996964,1.000584,0
1.259737,0.033973,2.106708,-0.003949,0.084735,0.994527,0.998138,0
1.287184,0.027447,2.106596,-0.001728,0.086191,0.994527,0.998256,0
1.321145,0.033961,2.107114,-0.001481,0.084735,0.994527,0.998131,0
1.348123,0.026978,2.10755,-0.001481,0.08522,0.993552,0.997201,0
1.38215,0.034027,2.107869,-0.002962,0.084735,0.99672,1.00032,0
1.409115,0.026964,2.108111,-0.001975,0.084735,0.995014,0.998618,0
1.43598,0.026866,2.1082,-0.003456,0.084492,0.99672,1.000301,0
1.462951,0.026971,2.108195,-0.002468,0.084977,0.995989,0.999611,0
1.496782,0.033831,2.108156,-0.001481,0.084492,0.994283,0.997868,0
1.523741,0.02696,2.108262,-0.001234,0.084249,0.996233,0.99979,0
1.55767,0.033929,2.108445,-0.003456,0.084735,0.994527,0.998136,0
1.584759,0.027088,2.108361,-0.001975,0.08522,0.997207,1.000844,0
1.61923,0.034472,2.108138,-0.003456,0.08522,0.99672,1.000363,0
1.646411,0.027181,2.107857,-0.002962,0.084977,0.995989,0.999612,0
1.676563,0.030152,2.107935,-0.001975,0.084492,0.995989,0.999568,0
1.703355,0.026792,2.10839,-0.001728,0.084735,0.995258,0.99886,0
1.729872,0.026517,2.108595,-0.002468,0.084006,0.995745,0.999286,0
1.756503,0.02663,2.108552,-0.001728,0.084249,0.995745,0.999305,0
1.790128,0.033625,2.108537,-0.002222,0.083763,0.997451,1.000965,0
1.816735,0.026607,2.108485,-0.001728,0.084492,0.997207,1.000782,0
1.843648,0.026913,2.108357,-0.002468,0.084249,0.994771,0.998335,0
1.87744,0.033792,2.108947,-0.001481,0.08522,0.99672,1.000358,0
1.905155,0.027714,2.10977,-0.001234,0.084977,0.995014,0.998637,0
1.933011,0.027856,2.110634,-0.001975,0.085463,0.997451,1.001108,0
1.965054,0.032043,2.111516,-0.002715,0.084977,0.994527,0.998154,0
1.992519,0.027465,2.112505,-0.003456,0.085949,0.995258,0.998968,0
2.019484,0.026965,2.113404,-0.001975,0.084249,0.995502,0.999062,0
2.046822,0.027338,2.114022,-0.002222,0.085463,0.995258,0.998923,0
2.077068,0.030246,2.114349,-0.003209,0.084006,0.997451,1.000988,0
2.10449,0.027422,2.114255,-0.000741,0.084735,0.995745,0.999344,0
2.131114,0.026623,2.113913,-0.001728,0.084006,0.995258,0.998798,0
2.165103,0.03399,2.11336,-0.002468,0.08522,0.996233,0.999874,0
2.19172,0.026617,2.112761,-0.002222,0.08522,0.996476,1.000116,0
2.225534,0.033815,2.112187,-0.001975,0.084249,0.995014,0.998577,0
2.253209,0.027674,2.111749,-0.002222,0.085949,0.996964,1.000664,0
2.277524,0.024315,2.111354,-0.001728,0.084735,0.994527,0.998132,0
2.304558,0.027034,2.111296,-0.001975,0.084006,0.996476,1.000013,0
2.331616,0.027058,2.111299,-0.002468,0.085463,0.994771,0.998438,0
2.358453,0.026837,2.111305,-0.002468,0.085463,0.995989,0.999652,0
2.385383,0.02693,2.111158,-0.001975,0.084492,0.997207,1.000782,0
2.419192,0.03381,2.110883,-0.001975,0.084735,0.995014,0.998618,0
2.446232,0.027039,2.110576,-0.001234,0.084735,0.997695,1.001287,0
2.47999,0.033758,2.110211,-0.001481,0.08522,0.996233,0.999872,0
2.506804,0.026814,2.109906,-0.001481,0.084977,0.995745,0.999366,0
2.533553,0.026749,2.109742,-0.001234,0.084249,0.995014,0.998575,0
2.567393,0.03384,2.109689,-0.002468,0.084977,0.996233,0.999853,0
2.594205,0.026812,2.109618,-0.002962,0.084735,0.995502,0.999106,0
2.628139,0.033934,2.109406,-0.001975,0.084735,0.995014,0.998618,0
2.654876,0.026737,2.109157,-0.002222,0.084492,0.995502,0.999083,0
2.688785,0.033909,2.108791,-0.002468,0.084735,0.995258,0.998862,0
2.715508,0.026723,2.108415,-0.001728,0.084735,0.99672,1.000317,0
2.742279,0.02677,2.108184,-0.002222,0.085949,0.995014,0.998722,0
2.776113,0.033834,2.107969,-0.002468,0.08522,0.995258,0.998903,0
2.802882,0.026769,2.107744,-0.001234,0.084006,0.995989,0.999526,0
2.836927,0.034045,2.1074,-0.001975,0.086191,0.995502,0.999228,0
2.863898,0.026972,2.106923,-0.002468,0.084249,0.99672,1.000277,0
2.897732,0.033833,2.106516,-0.002962,0.086434,0.993552,0.997309,0
2.924526,0.026794,2.106122,-0.001234,0.085463,0.994283,0.99795,0
2.951387,0.026861,2.105749,-0.002715,0.084006,0.995014,0.998558,0
2.98208,0.030693,2.105488,-0.002962,0.084492,0.99209,0.995686,0
3.009003,0.026923,2.105281,-0.000741,0.084249,0.997939,1.001489,0
3.035717,0.026714,2.105093,-0.001481,0.084735,0.992577,0.996189,0
3.069541,0.033824,2.104865,-0.003209,0.083763,0.99867,1.002181,0
3.096571,0.02703,2.104685,-0.001481,0.083763,0.991115,0.994649,0
3.130375,0.033804,2.104481,-0.004196,0.084735,0.998913,1.00251,0
3.157082,0.026707,2.104352,-0.001975,0.084249,0.992821,0.996391,0
3.183771,0.026689,2.104306,-0.002962,0.086434,0.996233,0.99998,0
3.217517,0.033746,2.104375,-0.000987,0.084492,0.992334,0.995925,0
3.244227,0.02671,2.104436,-0.002222,0.083763,0.996233,0.99975,0
3.270885,0.026659,2.104614,-0.001234,0.084735,0.98746,0.991089,0
3.305862,0.034976,2.104589,-0.029127,0.116298,1.037905,1.044806,0
3.334121,0.028259,2.104522,0.074673,0.072595,0.964308,0.969916,0
3.365774,0.031653,2.104309,-0.058006,0.113141,1.01451,1.022446,0
3.394155,0.028382,2.103118,0.03273,0.096146,1.036686,1.04165,0
3.429282,0.035127,2.103022,0.008486,0.091047,0.99209,0.996295,0
3.464324,0.035042,2.103085,-0.023203,0.078908,1.046434,1.049661,0
3.496121,0.031797,2.103199,-0.022709,0.10173,0.985023,0.990522,0
3.524482,0.028361,2.103203,0.013092,0.091776,0.999157,1.003449,0
3.560621,0.036138,2.103426,-0.011354,0.089348,0.985023,0.989132,0
3.592471,0.031851,2.103702,-0.010367,0.091047,0.999157,1.00335,0
3.620625,0.028153,2.10403,0.008001,0.075751,0.983804,0.986749,0
3.652519,0.031895,2.104393,-0.006911,0.083763,0.995014,0.998558,0
3.680556,0.028037,2.104807,-0.01876,0.080122,0.992577,0.995982,0
3.708631,0.028075,2.105026,0.001212,0.084735,0.994283,0.997888,0
3.74037,0.031739,2.105131,-0.000247,0.082064,0.99209,0.995478,0
3.768424,0.028054,2.105083,-0.007652,0.082549,0.997207,1.000648,0
3.803753,0.035329,2.104927,-0.000741,0.084735,0.989165,0.992788,0
3.83567,0.031917,2.104684,-0.000741,0.085949,0.998913,1.002604,0
3.863982,0.028312,2.104466,-0.013082,0.083521,0.989409,0.993014,0
3.899623,0.035641,2.104195,0.000242,0.085706,0.992577,0.996271,0
3.931213,0.03159,2.104017,-0.001234,0.085706,0.995014,0.998699,0
3.959398,0.028184,2.103876,-0.003703,0.087163,0.992577,0.996404,0
3.987618,0.02822,2.103707,-0.000741,0.085706,0.989653,0.993357,0
4.019306,0.031688,2.103411,-0.003456,0.084735,0.995258,0.998864,0
4.047275,0.027969,2.103021,-0.011601,0.085706,0.993796,0.997552,0
4.079051,0.031776,2.102559,-0.000987,0.084492,0.992334,0.995925,0
4.107295,0.028244,2.099437,0.010425,0.096389,0.984048,0.988812,0
4.14267,0.035375,2.0984,-0.005924,0.12868,0.953829,0.962489,0
4.177988,0.035318,2.097949,0.018911,0.099059,0.987216,0.992354,0
4.209773,0.031785,2.097671,-0.015304,0.081578,0.989897,0.99337,0
4.238131,0.028358,2.097398,0.010425,0.102944,0.995502,1.000864,0
4.273412,0.035281,2.096956,-0.0,0.099545,1.012804,1.017684,0
4.305926,0.032515,2.097771,0.003394,0.079879,0.993308,0.996521,0
4.333946,0.028019,2.100248,-0.010367,0.07915,0.977468,0.980722,0
4.369426,0.03548,2.100805,0.013819,0.145676,0.954073,0.965229,0
4.401171,0.031745,2.101646,0.076855,0.087648,1.008661,1.015375,0
4.428897,0.027726,2.102115,-0.087873,0.000728,1.002325,1.00617,0
4.456579,0.027682,2.101225,0.022063,0.105615,0.987947,0.993821,0
4.488236,0.031657,2.100543,0.006788,0.095903,0.985023,0.989704,0
4.516704,0.028468,2.099886,0.015517,0.120425,0.963821,0.971439,0
4.548866,0.032161,2.098998,0.019881,0.091776,1.018653,1.022972,0
4.577256,0.028391,2.097451,0.014789,0.098088,0.991602,0.996552,0
4.612549,0.035293,2.096085,0.043883,0.058756,0.977224,0.979972,0
4.647811,0.035262,2.091737,0.034427,0.066525,0.999157,1.001961,0
4.679269,0.031457,2.088742,0.024487,0.031077,0.971132,0.971938,0
4.707806,0.028537,2.082518,0.064491,0.03132,0.935796,0.938538,0
4.743271,0.035465,2.079179,0.032003,0.032777,0.987947,0.989009,0
4.775738,0.032467,2.079541,0.040004,0.12261,0.958216,0.966856,0
4.803884,0.028146,2.079436,0.031518,0.09736,0.972594,0.977963,0
4.839645,0.035761,2.07628,0.052611,0.050015,1.004031,1.006652,0
4.871676,0.032032,2.075942,0.018183,0.068953,0.99014,0.992705,0
4.907064,0.035388,2.075082,-0.015797,0.081578,0.973813,0.977351,0
4.935082,0.028017,2.072783,0.016244,0.073081,1.011098,1.013866,0
4.967208,0.032126,2.071726,0.03176,0.041518,1.008417,1.009771,0
4.995595,0.028387,2.069735,0.01091,0.063369,0.975275,0.977392,0
5.027366,0.031771,2.066367,0.053096,0.070167,1.007443,1.011278,0
5.055547,0.028181,2.064643,0.022063,0.093475,0.991115,0.995758,0
5.083637,0.02809,2.063138,0.025942,0.066282,0.991602,0.994154,0
5.115283,0.031646,2.055232,-0.003949,0.048559,1.021333,1.022495,0
5.150239,0.034956,2.055103,-0.007405,0.054143,0.968208,0.969749,0
5.185183,0.034943,2.055722,0.009455,0.0522,0.986729,0.988154,0
5.213417,0.028234,2.055721,0.006061,0.051715,0.985754,0.987128,0
5.245238,0.031821,2.053601,0.029336,0.052929,0.999401,1.001231,0
5.273493,0.028255,2.051234,0.013819,0.039575,1.048871,1.049709,0
5.31174,0.038247,2.157847,0.015759,0.016995,0.875846,0.876153,0
5.345302,0.033562,2.188979,0.452889,-0.143047,1.225795,1.314589,1
5.377591,0.032289,2.235438,-0.13181,0.289894,0.48057,0.576507,0
5.412388,0.034797,2.222223,-0.193025,-0.27934,1.109795,1.160575,0
5.454505,0.042118,2.201847,-0.11231,-0.011579,0.972594,0.979126,0
5.491019,0.036514,2.182234,0.029336,-0.000482,0.928241,0.928705,0
5.517799,0.02678,2.175242,0.015274,0.008498,1.009149,1.0093,0
5.550915,0.033115,2.174753,0.09019,0.134507,0.988922,1.002094,0
5.585909,0.034994,2.175606,0.048732,0.108771,1.001838,1.008903,0
5.61521,0.029301,2.176133,-0.004443,0.060455,1.001107,1.00294,0
5.645988,0.030778,2.175474,0.024002,0.061669,0.984535,0.986757,0
5.687411,0.041424,2.175439,0.003394,0.099545,0.997939,1.002897,0
5.720101,0.03269,2.171042,-0.035051,0.010197,0.946031,0.946735,0
5.753355,0.033254,2.167041,-0.04369,0.016995,0.981611,0.98273,0
5.788491,0.035136,2.171914,0.023517,0.075023,0.95651,0.959736,0
5.838886,0.050394,2.183444,0.04267,0.145918,1.013535,1.024874,0
5.866991,0.028106,2.187742,-0.000494,0.088619,1.042048,1.045809,0
5.90135,0.034359,2.188136,0.002909,0.052929,0.999157,1.000562,0
5.935148,0.033797,2.188766,-0.039,0.136692,0.946275,0.956892,0
5.974995,0.039847,2.189768,0.032245,0.073081,0.973082,0.976355,0
6.015998,0.041003,2.189932,0.068855,0.127952,1.009149,1.019556,0
6.05546,0.039462,2.185647,0.044125,0.098331,1.046922,1.052455,0
6.087789,0.032328,2.172491,-0.027399,0.090319,1.02767,1.031995,0
6.121172,0.033383,2.159512,0.010425,0.114355,0.999644,1.006218,0
6.16005,0.038878,2.161271,0.015759,0.187436,1.062518,1.079039,0
6.217294,0.057244,2.151144,-0.035791,0.147132,0.997451,1.008879,0
6.259207,0.041913,2.143892,-0.013823,0.070895,1.025233,1.027774,0
6.285568,0.026362,2.138631,0.000242,0.054628,1.151468,1.152763,0
6.31669,0.031122,2.123382,0.015274,0.031563,1.144157,1.144694,0
6.348866,0.032176,2.111162,-0.003209,0.166313,1.195333,1.206852,1
6.378193,0.029327,2.104877,0.039761,0.081093,1.221409,1.224743,0
6.418068,0.039876,2.088132,0.001455,0.155873,1.212636,1.222613,0
6.463896,0.045827,2.085291,0.040731,0.057785,1.155367,1.157528,0
6.49234,0.028445,2.070429,0.063763,0.043217,1.277459,1.279779,0
6.527935,0.035595,2.068124,0.038549,0.185251,1.110527,1.126531,0
6.564337,0.036402,2.063771,-0.002468,0.11824,1.128804,1.134982,0
6.597318,0.032981,2.056744,0.054065,0.131351,1.197283,1.205679,0
6.637851,0.040533,2.056493,0.008001,0.155144,1.076653,1.087803,0
6.675198,0.037346,2.05933,0.055035,0.146161,1.101753,1.112768,0
6.713079,0.037881,2.043792,-0.008886,0.171169,1.029375,1.043548,0
6.742305,0.029226,2.03149,0.021093,0.239879,1.013291,1.041512,0
6.771603,0.029298,2.036558,0.071764,0.180152,1.068854,1.086303,0
6.807895,0.036292,2.021943,0.052853,0.188893,1.024745,1.043349,0
6.84109,0.033195,2.028857,0.104009,0.288438,1.030107,1.074771,0
6.883255,0.042165,2.012638,0.077583,0.163399,0.980149,0.9967,0
6.916194,0.032939,1.986884,0.030063,0.233324,0.8873,0.917957,0
6.945004,0.028811,1.966136,0.053338,0.171412,0.791284,0.811392,0
6.978657,0.033652,1.95215,0.033215,0.16,0.718906,0.737244,0
7.013146,0.03449,1.942209,0.050914,0.083521,0.74425,0.75065,0
7.046347,0.033201,1.91873,0.042428,0.062883,0.68625,0.69043,0
7.074788,0.028441,1.900308,-0.022215,0.025736,0.661393,0.662267,0
7.110849,0.036061,1.880534,-0.078494,0.106586,0.657494,0.670686,0
7.144768,0.033918,1.872931,-0.102437,0.048559,0.725729,0.73453,0
7.176997,0.03223,1.859278,-0.030361,0.005341,0.806637,0.807225,0
7.205424,0.028427,1.850763,-0.026658,0.025979,0.927023,0.92777,0
7.238794,0.03337,1.851268,-0.085405,0.111927,0.942619,0.953076,0
7.26834,0.029546,1.85798,-0.000987,0.122367,0.948712,0.956571,0
7.293174,0.024835,1.867013,-0.021722,0.146647,0.930435,0.942171,0
7.325651,0.032476,1.876844,-0.000741,0.097603,0.94993,0.954932,0
7.363029,0.037379,1.890429,-0.001481,0.160486,0.973325,0.986468,0
7.394385,0.031355,1.905708,0.033458,0.159029,0.998913,1.012046,0
7.421338,0.026953,1.91394,0.039034,0.109257,0.976737,0.983603,0
7.448287,0.02695,1.924013,0.033458,0.150289,0.946762,0.9592,0
7.4754,0.027112,1.933957,0.049944,0.157087,0.95188,0.966047,0
7.509703,0.034303,1.940382,0.074431,0.108528,0.999401,1.008028,0
7.5366,0.026896,1.943526,0.053338,0.100516,1.015972,1.022325,0
7.570572,0.033973,1.946679,0.0337,0.129408,1.032544,1.041167,0
7.597482,0.02691,1.946227,0.026669,0.098817,1.01914,1.024267,0
7.631554,0.034071,1.94385,0.049459,0.107072,0.986972,0.993994,0
7.658442,0.026889,1.945125,0.078552,0.127223,0.941645,0.953442,0
7.689162,0.03072,1.94848,-0.002222,0.107314,0.981367,0.98722,0
7.716061,0.026899,1.94697,0.070552,0.185008,0.990628,1.010222,0
7.742966,0.026904,1.935858,0.15759,0.163399,1.026207,1.051016,0
7.776931,0.033965,1.919463,0.14571,0.138392,1.052283,1.0713,0
7.803856,0.026925,1.908214,0.075886,0.15126,0.991846,1.006179,0
7.837836,0.03398,1.902719,0.108373,0.158058,0.921418,0.941136,0
7.864922,0.027086,1.882751,0.141831,0.110228,0.96114,0.977782,0
7.89906,0.034138,1.872034,0.058429,0.15563,0.889737,0.905134,0
7.926055,0.026995,1.865819,0.048974,0.109257,0.897779,0.905728,0
7.953195,0.027139,1.857875,0.093827,0.08085,0.929947,0.938159,0
7.980107,0.026912,1.844178,0.040246,0.058756,0.900947,0.903758,0
8.013944,0.033838,1.835476,0.016244,-0.006513,0.963821,0.96398,0
8.040641,0.026697,1.827335,0.038549,0.011654,1.02572,1.02651,0
8.067336,0.026695,1.815499,-0.016538,-0.011338,1.088594,1.088778,0
8.101056,0.03372,1.809353,-0.00469,0.115812,1.165358,1.171108,0
8.127919,0.026864,1.798609,-0.041962,0.085706,1.04546,1.049806,0
8.161686,0.033767,1.796747,0.032488,0.064826,1.021821,1.02439,0
8.188507,0.02682,1.79567,-0.04838,0.025008,1.001838,1.003317,0
8.21538,0.026873,1.794277,0.002424,0.088862,1.10419,1.107763,0
8.249325,0.033945,1.8022,-0.04912,-0.007719,1.015728,1.016945,0
8.276301,0.026976,1.813288,-0.088614,0.022337,0.973569,0.977849,0
8.310444,0.034144,1.819256,0.017941,0.132079,0.96309,0.97227,0
8.344249,0.033804,1.812325,-0.125393,0.047587,1.004275,1.013191,0
8.371349,0.0271,1.814448,-0.097994,0.020637,0.947981,0.953256,0
8.405217,0.033869,1.833223,-0.054057,0.016995,0.979174,0.980812,0
8.432117,0.0269,1.859333,-0.015304,0.02258,0.977468,0.977849,0
8.45931,0.027193,1.892456,0.042186,0.13912,1.031812,1.042003,0
8.490805,0.031495,1.914705,0.024729,0.147375,1.018897,1.029797,0
8.518534,0.027729,1.926665,-0.063684,0.075023,1.008905,1.013693,0
8.546285,0.027752,1.927334,-0.131563,0.033263,1.01646,1.025478,0
8.577616,0.031331,1.917856,-0.072817,0.013354,0.986729,0.989502,0
8.605302,0.027686,1.901081,-0.055044,-0.02943,0.941157,0.943225,0
8.637563,0.032262,1.900919,-0.059734,0.006313,0.952855,0.954746,0
8.664201,0.026637,1.898443,-0.120456,-0.005307,0.857082,0.865521,0
8.690886,0.026685,1.891347,-0.110829,0.041032,0.861468,0.869537,0
8.717571,0.026686,1.885567,-0.050601,0.024036,0.881939,0.883716,0
8.751255,0.033683,1.88998,-0.014316,0.017238,0.912157,0.912432,0
8.777949,0.026695,1.895157,-0.043443,0.011654,0.861712,0.862885,0
8.804713,0.026764,1.892794,-0.022709,0.108528,0.876334,0.883321,0
8.838454,0.03374,1.896378,-0.008639,0.037633,0.917031,0.917844,0
8.865168,0.026714,1.903883,-0.047146,-0.110723,0.899729,0.907741,0
8.898905,0.033738,1.912572,-0.057513,-0.037872,0.961872,0.964333,0
8.925726,0.026821,1.92433,-0.030114,-0.042215,1.053258,1.054533,0
8.952419,0.026692,1.934827,-0.116506,0.081093,1.13977,1.148576,0
8.986102,0.033684,1.936658,-0.027399,0.062883,1.19972,1.201679,1
9.012833,0.026731,1.927441,-0.057266,0.013596,1.170476,1.171955,0
9.039518,0.026685,1.92141,-0.07726,-0.016886,1.157316,1.160015,0
9.073277,0.03376,1.926546,-0.177722,-0.089254,1.105165,1.122916,0
9.100085,0.026808,1.937665,-0.230544,0.043217,1.100535,1.125254,0
9.134002,0.033917,1.93842,-0.216228,0.107314,1.07909,1.10576,0
9.160999,0.026996,1.934558,-0.10688,0.019181,1.000132,1.00601,0
9.187671,0.026673,1.935949,-0.018019,-0.052587,0.870241,0.872015,0
9.214559,0.026888,1.950154,-0.037519,-0.11603,0.810779,0.819899,0
9.241295,0.026736,1.974702,-0.118975,0.056085,0.868779,0.87868,0
9.268147,0.026853,1.990132,-0.000247,0.16607,0.889981,0.905343,0
9.301881,0.033734,1.998469,0.048004,0.060698,0.918493,0.921748,0
9.336201,0.03432,2.000159,0.001212,0.030592,0.877796,0.87833,0
9.363213,0.027011,1.999078,-0.001234,-0.008684,0.843922,0.843968,0
9.394295,0.031082,1.99958,0.001455,-0.071644,0.830519,0.833605,0
9.421084,0.026789,2.006749,-0.001234,-0.091425,0.926535,0.931036,0
9.447776,0.026692,2.005837,0.024972,0.04176,0.8873,0.888633,0
9.474417,0.026641,1.99678,0.018911,0.054386,0.904603,0.906433,0
9.50818,0.033763,1.991899,0.075401,-0.01182,0.925804,0.928945,0
9.534804,0.026624,1.987523,0.046307,-0.039561,0.895342,0.897411,0
9.561534,0.026731,1.983519,0.006061,0.012625,0.972107,0.972208,0
9.595318,0.033783,1.976376,0.148619,0.048559,1.0323,1.044073,0
9.622179,0.026861,1.973371,0.257962,-0.056206,1.130997,1.161403,0
9.65585,0.033671,1.975347,0.120253,0.023308,1.176568,1.182927,1
9.682583,0.026733,1.968808,0.022547,0.114841,1.189241,1.194985,0
9.709234,0.026651,1.939586,-0.070842,0.027678,1.13977,1.142305,0
9.742983,0.033749,1.907866,0.082917,-0.064649,1.21093,1.215486,0
9.769677,0.026694,1.898767,0.117829,-0.209143,1.24456,1.267499,0
9.796388,0.026711,1.901387,-0.022709,-0.060789,1.146106,1.147942,0
9.830136,0.033747,1.890698,-0.05381,0.02865,1.059594,1.061346,0
9.856788,0.026653,1.874216,-0.062449,0.058756,0.964552,0.968356,0
9.883566,0.026778,1.877383,-0.0,-0.092148,0.987216,0.991507,0
9.917327,0.033762,1.879688,-0.01876,0.055842,0.922636,0.924515,0
9.944054,0.026727,1.864808,-0.07257,0.086434,0.931897,0.938706,0
9.977735,0.033681,1.856786,-0.021228,0.034962,0.932872,0.933768,0
10.004425,0.02669,1.852723,0.028609,-0.047039,0.874384,0.876116,0
10.031159,0.026735,1.849764,0.065218,-0.007478,0.828569,0.831166,0
10.06486,0.033701,1.84888,-0.070101,0.006555,0.845872,0.848797,0
10.091477,0.026617,1.845113,-0.09676,0.03302,0.83783,0.844045,0
10.118412,0.026935,1.832899,-0.049614,0.022337,0.810536,0.81236,0
10.15233,0.033918,1.817924,-0.004196,-0.060548,0.788847,0.791178,0
10.179077,0.026748,1.807628,-0.002715,-0.008925,0.802737,0.802792,0
10.212946,0.033868,1.80928,-0.013329,-0.077434,0.765939,0.769959,0
10.239848,0.026903,1.818431,0.039034,-0.016886,0.832712,0.833797,0
10.273719,0.033871,1.826061,0.034427,-0.008925,0.949199,0.949865,0
10.300978,0.027259,1.83234,0.060611,0.075266,1.101266,1.105498,0
10.334721,0.033743,1.835843,0.044852,0.073323,1.188997,1.1921,1
10.361567,0.026846,1.836659,-0.015551,0.082792,1.218241,1.22115,0
10.388879,0.027312,1.835393,-0.095032,0.142276,1.239198,1.250954,0
10.415878,0.026998,1.828681,0.129709,0.057299,1.269173,1.27707,0
10.442891,0.027014,1.836349,-0.03357,-0.014715,1.268198,1.268728,0
10.473217,0.030326,1.872327,-0.274728,0.021366,1.232375,1.262806,0
10.500283,0.027066,1.888363,-0.281146,0.318544,1.100535,1.179699,0
10.527733,0.02745,1.8723,-0.195494,0.250076,1.037418,1.084892,0
10.55532,0.027587,1.869208,-0.168589,-0.028465,0.945544,0.960877,0
10.589905,0.034585,1.885978,-0.15057,0.016995,0.83588,0.849503,0
10.623997,0.034093,1.890308,-0.08738,0.232595,0.818821,0.855689,0
10.652055,0.028058,1.893183,0.042186,0.129408,0.845141,0.856031,0
10.683835,0.03178,1.902733,0.024002,0.089105,0.846359,0.851375,0
10.718551,0.034716,1.90662,-0.045171,0.094932,0.861225,0.867618,0
10.753407,0.034856,1.910982,-0.00938,0.026707,0.879746,0.880201,0
10.788823,0.035416,1.915166,0.029094,0.020637,0.888762,0.889478,0
10.817295,0.028472,1.922458,0.072491,0.090804,0.899972,0.907442,0
10.849449,0.032154,1.926528,0.086068,0.108771,0.892662,0.903373,0
10.877731,0.028281,1.93321,0.068612,0.072595,0.908258,0.913734,0
10.909625,0.031894,1.937306,0.092372,0.067496,0.912157,0.919304,0
10.937437,0.027812,1.936151,0.033458,0.116783,0.941157,0.948965,0
10.965327,0.027889,1.927936,0.136012,0.059241,1.006468,1.017343,0
10.996968,0.031641,1.925991,0.120738,-0.016403,1.098829,1.105564,0
11.032369,0.035402,1.935605,-0.069361,0.035691,1.17803,1.18061,1
11.060246,0.027877,1.925069,-0.078,0.198119,1.187047,1.205992,0
11.093777,0.033531,1.896989,0.020365,0.038361,1.236761,1.237524,0
11.120604,0.026827,1.894133,0.061581,-0.158485,1.304265,1.315302,0
11.155783,0.035179,1.909039,-0.008639,-0.006754,1.172669,1.17272,0
11.188576,0.032793,1.913851,-0.137734,0.044674,1.008661,1.019001,0
11.223553,0.034976,1.909405,-0.145386,-0.003618,0.970645,0.981479,0
11.251788,0.028235,1.904248,-0.048873,-0.014956,0.946519,0.947897,0
11.283493,0.031705,1.907645,0.029821,-0.018092,0.914594,0.915259,0
11.311558,0.028066,1.914491,-0.051095,0.064826,0.901191,0.904963,0
11.339853,0.028294,1.916728,-0.0975,0.134993,0.880233,0.895846,0
11.371878,0.032025,1.902587,-0.04838,0.115569,0.836855,0.846182,0
11.407312,0.035435,1.88765,0.014547,0.024279,0.86951,0.869971,0
11.442715,0.035403,1.890731,-0.012095,-0.03739,0.857569,0.858469,0
11.474759,0.032043,1.897831,0.022063,0.001214,0.879258,0.879536,0
11.503246,0.028488,1.900152,0.030306,0.072595,0.903628,0.907046,0
11.538366,0.03512,1.905469,0.073946,0.013839,0.997451,1.000284,0
11.573211,0.034845,1.91221,0.041701,0.023794,0.958216,0.959418,0
11.608719,0.035508,1.917433,-0.0,0.003642,0.997695,0.997702,0
11.640548,0.031829,1.918867,0.013335,0.113384,1.038392,1.044649,0
11.668568,0.02802,1.914791,0.051156,0.060698,1.0903,1.093186,0
11.704142,0.035574,1.911883,0.045822,0.02695,1.196064,1.197245,1
11.736129,0.031987,1.918296,-0.028633,0.032777,1.25772,1.258472,0
11.764317,0.028188,1.923737,-0.148595,0.059241,1.266492,1.276555,0
11.799646,0.035329,1.923181,-0.290032,0.132079,1.129779,1.173867,0
11.831383,0.031736,1.928191,-0.189817,0.069439,1.086644,1.105282,0
11.859778,0.028396,1.942286,0.005819,0.1061,1.031569,1.037027,0
11.89513,0.035352,1.954983,0.028609,0.11654,0.97893,0.986258,0
11.926897,0.031767,1.969404,-0.061215,0.044917,0.883888,0.887144,0
11.955125,0.028228,1.976977,-0.135019,0.105615,0.830519,0.848025,0
11.991021,0.035896,1.977193,-0.013823,0.069439,0.856351,0.859273,0
12.022661,0.03164,1.976251,0.024972,-0.006996,0.823452,0.82386,0
12.050499,0.027838,1.969562,0.048732,-0.053552,0.849771,0.85285,0
12.078255,0.027756,1.966333,0.104979,-0.149801,0.825158,0.84519,0
12.113173,0.034917,1.976566,-0.000247,-0.056688,0.897292,0.899081,0
12.145284,0.032111,1.979676,-0.000494,0.119454,0.885594,0.893615,0
12.173707,0.028423,1.972738,0.073704,0.115812,0.976493,0.986095,0
12.205656,0.031949,1.969727,0.048489,0.06434,0.938477,0.941928,0
12.232398,0.026742,1.965274,0.033215,0.078665,0.952367,0.956188,0
12.260212,0.027814,1.961985,-0.053317,-0.012544,1.059106,1.060522,0
12.295277,0.035065,1.956972,-0.103671,0.056328,1.177787,1.183682,1
12.330354,0.035077,1.942019,-0.040234,0.032534,1.094442,1.095665,0
12.362032,0.031678,1.935921,0.041458,-0.095043,1.182173,1.186712,0
12.390019,0.027987,1.936886,0.000727,-0.034978,1.139039,1.139576,0
12.418836,0.028816,1.9324,-0.084171,0.06871,1.046922,1.052545,0
12.451936,0.0331,1.914986,-0.051835,0.074295,0.973569,0.977775,0
12.484397,0.032461,1.89784,-0.01481,0.034962,0.958216,0.958968,0
12.512716,0.028319,1.888783,0.018668,0.008012,0.990628,0.990836,0
12.547791,0.035075,1.887131,0.011637,0.0017,0.937745,0.937819,0
12.582596,0.034805,1.884922,-0.089108,0.068468,0.957972,0.964541,0
12.617785,0.035189,1.876383,-0.132798,0.11387,0.940426,0.956558,0
12.649699,0.031914,1.869065,-0.062943,0.008498,0.945544,0.947675,0
12.677793,0.028094,1.869074,-0.019994,0.020152,0.876334,0.876794,0
12.713175,0.035383,1.874092,-0.053563,0.045159,0.912645,0.91533,0
12.74479,0.031615,1.880181,-0.058747,0.07478,0.917275,0.922191,0
12.773326,0.028536,1.884818,-0.00469,0.056813,0.925073,0.926828,0
12.808718,0.035393,1.891282,0.001455,0.00607,0.920443,0.920464,0
12.840454,0.031735,1.901267,-0.001481,-0.029671,0.941157,0.941626,0
12.869014,0.02856,1.909869,-0.032089,-0.034737,0.943838,0.945022,0
12.897131,0.028117,1.914705,-0.085405,0.044188,1.022796,1.027306,0
12.930485,0.033353,1.916659,-0.091082,0.049287,1.172182,1.176748,0
12.965375,0.03489,1.90872,-0.057019,0.04783,1.138552,1.140981,0
13.000559,0.035184,1.905478,-0.105399,0.016995,1.124174,1.129232,0
13.032732,0.032173,1.911088,-0.08812,0.117997,1.138795,1.148278,0
13.061291,0.02856,1.927979,-0.05307,0.184765,1.178762,1.194334,1
13.093499,0.032207,1.936184,-0.066892,0.308347,1.044972,1.091567,0
13.122149,0.02865,1.93196,-0.052823,0.153931,0.995745,1.008957,0
13.154396,0.032248,1.934128,-0.031101,0.031806,0.96772,0.968742,0
13.182548,0.028152,1.947794,-0.041715,0.013839,0.888031,0.889118,0
13.217839,0.035291,1.956768,-0.09207,0.111199,0.923124,0.934344,0
13.249591,0.031751,1.959832,-0.081949,0.064583,0.925804,0.931665,0
13.278108,0.028518,1.966625,-0.043937,0.057299,0.943838,0.946596,0
13.314881,0.036773,1.969798,-0.12243,0.045888,0.935552,0.944644,0
13.346651,0.03177,1.962375,-0.143905,0.083035,0.924098,0.938915,0
13.375113,0.028462,1.946947,-0.078987,0.071138,0.970401,0.976206,0
13.406562,0.031449,1.938156,-0.000987,0.053414,1.001107,1.002531,0
13.438247,0.031685,1.92999,0.048489,0.089105,0.936283,0.941763,0
13.467208,0.028961,1.923622,-0.000741,0.104644,0.975275,0.980873,0
13.495675,0.028467,1.912294,-0.002468,0.115569,0.966258,0.973148,0
13.530466,0.034791,1.902755,-0.011848,0.098331,0.965283,0.970351,0
13.557991,0.027525,1.8933,0.026184,0.048316,0.962115,0.963683,0
13.589016,0.031025,1.882935,-0.000247,0.059484,0.956998,0.958844,0
13.617357,0.028342,1.867133,-0.013576,0.026464,0.874872,0.875377,0
13.650057,0.0327,1.853675,-0.012342,-0.02364,0.943594,0.943971,0
13.67849,0.028433,1.85245,-0.04912,-0.004342,1.062031,1.063175,0
13.713605,0.035115,1.852129,-0.04838,0.055357,1.022552,1.025191,0
13.748595,0.034989,1.84265,-0.000741,0.055114,0.988434,0.98997,0
13.780128,0.031533,1.847154,-0.044677,-0.050175,1.050577,1.052723,0
13.808082,0.027954,1.856245,-0.118975,0.059484,1.061787,1.070087,0
13.836252,0.028171,1.85334,-0.14662,0.190592,1.010611,1.038825,0
13.868253,0.032001,1.829542,-0.100709,0.099059,0.938964,0.949531,0
13.903993,0.035739,1.814405,-0.065165,-0.038837,0.956023,0.959028,0
13.932471,0.028478,1.809339,-0.046652,-0.025087,1.011098,1.012485,0
13.964091,0.03162,1.807398,-0.027152,0.009712,1.030107,1.03051,0
13.999701,0.03561,1.80807,-0.081949,0.049287,1.024989,1.02944,0
14.027738,0.028038,1.813559,-0.073557,0.076237,1.078602,1.083792,0
14.059769,0.032031,1.821346,-0.037272,0.042489,1.00525,1.006837,0
14.094883,0.035114,1.827786,-0.078,0.000486,0.956023,0.9592,0
14.123211,0.028328,1.834789,-0.095279,-0.017851,0.930435,0.935471,0
14.15478,0.031569,1.839169,-0.090095,-0.015438,0.954561,0.958927,0
14.182636,0.027856,1.84219,-0.032089,-0.00386,0.978443,0.978976,0
14.210532,0.027895,1.850599,-0.013576,0.005584,1.067148,1.067249,0
14.242096,0.031564,1.86881,-0.049367,0.068468,1.0903,1.093562,0
14.270273,0.028177,1.887355,-0.020241,0.156844,0.985754,0.998359,0
14.30531,0.035037,1.904871,0.064733,0.068953,0.84246,0.847752,0
14.336956,0.031646,1.919179,-0.03357,-0.009167,0.864393,0.865093,0
14.365229,0.028273,1.927466,-0.087133,-0.018092,0.989409,0.993403,0
14.393769,0.028539,1.923525,-0.02888,0.042246,1.004518,1.005821,0
14.429858,0.03609,1.916716,-0.060475,0.050501,1.021333,1.024368,0
14.461849,0.031991,1.916314,-0.015551,0.081578,1.007686,1.011103,0
14.496915,0.035066,1.919559,0.063278,0.152717,1.016703,1.030054,0
14.528431,0.031515,1.925901,0.153226,0.087648,1.012073,1.027352,0
14.556181,0.02775,1.921776,0.030791,0.134021,0.944082,0.954044,0
14.583811,0.02763,1.915025,0.06837,0.060455,0.949199,0.953577,0
14.620179,0.036368,1.919512,0.164378,0.070167,1.083476,1.098119,0
14.65227,0.032091,1.920145,0.272752,0.255903,1.088107,1.150589,0
14.680288,0.028018,1.915679,0.015759,0.092018,0.975518,0.979976,0
14.711898,0.03161,1.906774,-0.151063,0.066282,0.973569,0.987446,0
14.739566,0.027668,1.907652,0.122678,0.045402,1.009636,1.018075,0
14.767306,0.027741,1.912952,0.129224,0.000486,0.986972,0.995396,0
14.798606,0.0313,1.914348,0.086311,0.046373,1.008174,1.012924,0
14.827611,0.029005,1.907683,0.045822,0.105858,1.02109,1.027584,0
14.859397,0.031786,1.904429,0.051641,0.054628,1.021333,1.024096,0
14.887846,0.028449,1.899361,0.014547,0.043217,0.951392,0.952485,0
14.922969,0.035123,1.890866,-0.011848,0.041518,0.966258,0.967222,0
14.957947,0.034978,1.889458,0.028609,0.025008,0.983317,0.984051,0
14.989656,0.031709,1.888681,0.090432,0.038847,0.977224,0.982168,0
15.01761,0.027954,1.887706,0.048004,0.056571,0.956754,0.959626,0
15.045981,0.028372,1.886349,0.076613,0.068468,0.984292,0.98964,0
15.077679,0.031698,1.882641,0.06837,0.124553,1.017678,1.027549,0
15.113191,0.035511,1.884597,0.055278,0.117269,1.024745,1.032914,0
15.141485,0.028294,1.903178,0.068127,0.084249,1.029863,1.035547,0
15.173522,0.032037,1.928358,0.102797,0.089105,0.986485,0.995821,0
15.208851,0.035329,1.945565,0.180622,0.082307,0.943107,0.963768,0
15.236744,0.027894,1.954369,0.087281,0.070167,1.000132,1.006382,0
15.268783,0.032039,1.950521,0.037822,0.013111,0.937502,0.938356,0
15.296834,0.028051,1.941752,0.174804,0.000243,0.968695,0.98434,0
15.332264,0.035429,1.924181,0.106191,0.042731,0.992577,0.999156,0
15.364638,0.032375,1.914103,0.190805,0.028407,0.874872,0.895887,0
15.390443,0.025805,1.900937,0.210201,0.070167,0.949199,0.974724,0
15.418711,0.028267,1.878397,0.083401,0.216328,0.802006,0.834846,0
15.454625,0.035914,1.852556,0.136497,0.184522,0.946275,0.973713,0
15.486473,0.031848,1.837051,-0.031348,0.07915,0.89193,0.895984,0
15.514701,0.028228,1.807332,0.014789,0.026222,1.120274,1.120679,0
15.549579,0.034878,1.788818,-0.130576,0.086677,1.034737,1.046539,0
15.584376,0.034796,1.787559,-0.041222,0.247891,1.022308,1.052741,0
15.622714,0.038338,1.800211,-0.009133,0.032291,0.958703,0.959291,0
15.65115,0.028436,1.819193,0.026184,-0.072609,0.966014,0.969093,0
15.679071,0.027921,1.831819,0.003152,0.04176,0.985997,0.986886,0
15.70717,0.028099,1.842021,-0.036779,0.01481,1.02377,1.024538,0
15.739063,0.031892,1.862177,-0.072323,-0.024605,0.971376,0.974375,0
15.775,0.035937,1.889529,-0.024684,-0.123266,0.98746,0.99543,0
15.810319,0.035319,1.922137,-0.001975,-0.100591,1.002325,1.007362,0
15.842069,0.03175,1.949402,-0.053563,-0.109517,0.980636,0.988185,0
15.870106,0.028037,1.970532,0.028366,-0.107828,0.896561,0.903467,0
15.897934,0.027828,1.993517,-0.028139,-0.116753,1.081283,1.087932,0
15.929664,0.03173,2.01019,-0.022215,0.039818,1.122711,1.123637,0
15.95789,0.028226,2.027641,0.082189,0.046373,0.881939,0.886973,0
15.993063,0.035173,2.041157,0.027154,0.093961,0.877796,0.883228,0
16.028154,0.035091,2.04609,0.029336,0.019181,1.039611,1.040201,0
16.060476,0.032322,2.038904,-0.076272,-0.03353,1.065199,1.068452,0
16.088687,0.028211,2.031887,-0.129589,0.04783,1.046191,1.05527,0
16.124768,0.036081,2.026967,-0.14193,-0.053552,0.997207,1.00868,0
16.15639,0.031622,2.020456,-0.106386,0.014082,0.960897,0.966871,0
16.182177,0.025787,2.015445,-0.104658,0.115084,0.94993,0.962583,0
16.211446,0.029269,2.010926,-0.042456,0.089105,0.953098,0.958196,0
16.243207,0.031761,2.010863,-0.001234,-0.013026,0.987216,0.987303,0
16.27163,0.028423,2.008439,-0.025424,-0.068267,1.046922,1.049453,0
16.306632,0.035002,2.009974,-0.026165,0.153688,1.078602,1.089811,0
16.338202,0.03157,2.011024,-0.14119,0.005827,1.00988,1.019718,0
16.366163,0.027961,1.982456,-0.026905,-0.056206,0.951392,0.953431,0
16.399639,0.033476,1.960032,-0.080468,0.030106,0.894855,0.89897,0
16.427676,0.028037,1.925138,-0.094291,-0.060789,0.879258,0.886387,0
16.46346,0.035784,1.888952,-0.098734,-0.006272,0.96309,0.968158,0
16.495648,0.032188,1.867376,-0.068373,-0.030877,0.98088,0.983745,0
16.520786,0.025138,1.841992,-0.054798,0.030592,0.937745,0.939843,0
16.548412,0.027626,1.816946,-0.046405,0.15126,0.991359,1.003905,0
16.576291,0.027879,1.791937,-0.009873,0.042489,0.952611,0.953609,0
16.611184,0.034893,1.77855,-0.021722,0.038361,0.936527,0.937564,0
16.643259,0.032075,1.777302,-0.084418,0.086434,1.004275,1.011516,0
16.671262,0.028003,1.776519,-0.091576,0.093475,1.040342,1.048539,0
16.705026,0.033764,1.784352,-0.050108,0.020152,1.050333,1.051721,0
16.741281,0.036255,1.790061,-0.075285,0.11387,0.96967,0.979231,0
16.776096,0.034815,1.793217,-0.015057,0.101245,1.058132,1.063071,0
16.8141,0.038004,1.799471,-0.081209,0.096389,0.938233,0.946661,0
16.844218,0.030118,1.805318,-0.011848,0.107557,0.982342,0.988284,0
16.872206,0.027988,1.806467,0.007273,0.109742,1.015972,1.021908,0
16.906645,0.034439,1.807558,-0.051342,0.074295,0.820771,0.825724,0
16.940418,0.033773,1.810773,-0.049367,0.137178,0.875603,0.887657,0
16.967316,0.026898,1.819001,-0.10219,0.050986,1.017678,1.024066,0
16.993952,0.026636,1.836511,-0.116753,0.049287,0.908989,0.917781,0
17.027726,0.033774,1.853001,-0.102437,0.11654,1.071048,1.082228,0
17.054551,0.026824,1.868012,-0.095525,0.054628,1.107359,1.112813,0
17.081249,0.026698,1.87755,-0.080962,0.035933,1.111258,1.114782,0
17.1151,0.033851,1.879639,-0.064671,0.058999,0.981855,0.985749,0
17.14195,0.02685,1.868184,-0.123171,0.083521,0.922636,0.934561,0
17.175621,0.033671,1.858211,0.014789,-0.035943,0.878283,0.879143,0
17.202819,0.027199,1.839938,-0.204627,-0.019057,0.966989,0.988586,0
17.236519,0.0337,1.827827,-0.076272,-0.029188,1.025964,1.029209,0
17.263268,0.026749,1.836587,-0.067633,0.019909,1.031569,1.033975,0
17.297311,0.034042,1.851789,0.114434,0.059727,1.051064,1.058961,0
17.324179,0.026869,1.864836,0.083159,0.09129,1.0323,1.03966,0
17.350874,0.026695,1.878694,0.037094,0.148346,1.057401,1.0684,0
17.384649,0.033775,1.884023,0.065703,0.155873,1.002569,1.016739,0
17.411342,0.026693,1.883645,0.093099,0.159515,1.024745,1.041257,0
17.445129,0.033787,1.880041,0.082432,0.142519,1.010367,1.023694,0
17.472663,0.027534,1.872779,0.065703,0.215843,1.024745,1.049289,0
17.503912,0.031249,1.865139,0.031518,0.121639,1.030107,1.037742,0
17.530737,0.026825,1.854166,-0.001481,0.076965,0.995989,0.998959,0
17.557549,0.026811,1.852881,-0.003209,0.11824,0.940913,0.948319,0
17.591363,0.033814,1.856146,-0.006665,0.142762,0.977955,0.988343,0
17.61825,0.026887,1.858167,0.027396,0.132808,0.985023,0.994313,0
17.652098,0.033849,1.858593,-0.031101,0.174082,0.944569,0.96098,0
17.678887,0.026788,1.860811,-0.000741,0.174325,0.988922,1.004169,0
17.712681,0.033795,1.859392,-0.000494,0.109014,1.021577,1.027377,0
17.739744,0.027062,1.854151,-0.010614,0.084006,1.009392,1.012938,0
17.766529,0.026785,1.852329,0.02085,0.138149,0.991359,1.001155,0
17.79333,0.026801,1.849742,0.016244,0.11824,0.98746,0.994646,0
17.820182,0.026852,1.848745,-0.045911,0.139849,0.951636,0.962952,0
17.846968,0.026786,1.848107,-0.082937,0.109985,0.964308,0.974098,0
17.880725,0.033757,1.846536,-0.07257,0.078179,0.983073,0.988843,0
17.907505,0.026779,1.846054,-0.052082,0.125524,0.968939,0.978423,0
17.941312,0.033807,1.848038,-0.037519,0.097603,1.005737,1.011158,0
17.968017,0.026705,1.850426,-0.02962,0.083763,0.937502,0.941702,0
17.994668,0.026651,1.853168,-0.046899,0.118968,0.988434,0.996672,0
18.028399,0.033731,1.855635,-0.026658,0.128437,0.984292,0.992994,0
18.055156,0.026757,1.857417,-0.000741,0.168741,0.959678,0.9744,0
18.081794,0.026638,1.85808,-0.001975,0.159515,0.963821,0.976934,0
18.115772,0.033978,1.858404,-0.021968,0.111442,0.970401,0.977026,0
18.142759,0.026987,1.856812,-0.029867,0.120911,0.951636,0.959751,0
18.17659,0.033832,1.855215,-0.053317,0.108285,0.967964,0.97546,0
18.203332,0.026742,1.859731,-0.061956,0.114598,0.993552,1.002056,0
18.237056,0.033724,1.863892,-0.056032,0.113384,0.999157,1.00713,0
18.263842,0.026785,1.867099,-0.055044,0.097117,1.024014,1.030081,0
18.290695,0.026854,1.872613,-0.036532,0.090562,0.94335,0.948391,0
18.324483,0.033787,1.877446,-0.051835,0.111199,0.979174,0.98683,0
18.35128,0.026798,1.882303,-0.041715,0.100031,0.966014,0.972075,0
18.385148,0.033867,1.885412,-0.03431,0.122367,0.960653,0.969023,0
18.41193,0.026782,1.885881,-0.019253,0.112899,1.055938,1.062131,0
18.445704,0.033774,1.885936,-0.032582,0.114598,1.013048,1.02003,0
18.472662,0.026959,1.883914,-0.019747,0.121882,0.936771,0.944873,0
18.50673,0.034068,1.883202,-0.025424,0.126495,0.993552,1.001895,0
18.53359,0.02686,1.883734,-0.037519,0.108771,1.058619,1.064854,0
18.560556,0.026966,1.883777,-0.035051,0.095417,0.99014,0.995345,0
18.594369,0.033813,1.882989,-0.036285,0.13912,0.962359,0.973039,0
18.621238,0.026868,1.882287,-0.040728,0.136449,0.962846,0.973319,0
18.655087,0.03385,1.882839,-0.042209,0.104158,0.983804,0.990203,0
18.681874,0.026787,1.882285,-0.042703,0.114598,0.977955,0.985572,0
18.71563,0.033756,1.88149,-0.038506,0.108043,0.989409,0.996035,0
18.742345,0.026714,1.88153,-0.041962,0.107314,0.998913,1.005537,0
18.769053,0.026708,1.883047,-0.031101,0.108043,1.060325,1.066269,0
18.803127,0.034074,1.883831,-0.030361,0.105129,0.992577,0.998591,0
18.829863,0.026736,1.884126,-0.031595,0.123339,0.975031,0.983309,0
18.863723,0.03386,1.884564,-0.03826,0.110713,0.978199,0.985188,0
18.890784,0.027061,1.885155,-0.035544,0.114113,0.974544,0.981845,0
18.924649,0.033865,1.885922,-0.03826,0.127223,0.97625,0.985248,0
18.951442,0.026793,1.888141,-0.035297,0.116298,1.000132,1.007489,0
18.985201,0.033759,1.889442,-0.026165,0.137178,1.004031,1.013697,0
19.012063,0.026862,1.889879,-0.027892,0.132565,1.009392,1.018442,0
19.038875,0.026813,1.891405,-0.027892,0.112413,1.003544,1.010205,0
19.072661,0.033786,1.894129,-0.035544,0.109499,0.991602,0.998263,0
19.099447,0.026786,1.896291,-0.03357,0.109985,0.970888,0.977675,0
19.133255,0.033809,1.898628,-0.029373,0.144462,0.959922,0.971176,0
19.159954,0.026698,1.901213,-0.036285,0.137663,0.9743,0.984646,0
19.186699,0.026746,1.901872,-0.034804,0.115812,0.985023,0.992418,0
19.220563,0.033864,1.900817,-0.047392,0.121639,0.975275,0.983973,0
19.247223,0.02666,1.901344,-0.054798,0.110228,0.986241,0.993894,0
19.281056,0.033833,1.902933,-0.054304,0.098574,1.001594,1.007897,0
19.307759,0.026703,1.904998,-0.047886,0.067496,1.010123,1.013508,0
19.334441,0.026682,1.905509,-0.016044,0.106586,0.983073,0.988964,0
19.368233,0.033792,1.906471,-0.016291,0.134507,0.98746,0.996712,0
19.394978,0.026745,1.908118,-0.017278,0.122853,0.985266,0.993046,0
19.421911,0.026934,1.907076,-0.017525,0.152717,0.976737,0.988759,0
19.455943,0.034032,1.90485,-0.038013,0.137421,0.981367,0.991671,0
19.482765,0.026822,1.903013,-0.036532,0.12261,0.975031,0.983389,0
19.513831,0.031067,1.902101,-0.037519,0.140091,0.962846,0.973707,0
19.540574,0.026743,1.9,-0.027399,0.136692,0.962602,0.972645,0
19.567242,0.026668,1.898029,-0.041468,0.095417,0.983317,0.988805,0
19.600915,0.033673,1.896659,-0.044677,0.098088,0.986729,0.992598,0
19.627784,0.026869,1.894392,-0.050848,0.117512,0.999644,1.007811,0
19.654464,0.02668,1.895587,-0.033076,0.116298,0.973082,0.980565,0
19.688208,0.033743,1.89863,-0.029867,0.146404,0.95651,0.96811,0
19.714853,0.026645,1.900744,-0.064177,0.142519,0.965527,0.978096,0
19.74859,0.033738,1.904695,0.009698,0.14349,1.000863,1.011143,0
19.775275,0.026684,1.904678,-0.056525,0.17821,0.951392,0.969588,0
19.80214,0.026865,1.902524,-0.047146,0.156116,0.976006,0.989536,0
19.835871,0.03373,1.900541,-0.048873,0.065068,0.988191,0.991536,0
19.862711,0.02684,1.898989,-0.039494,0.144947,0.974544,0.986055,0
19.88949,0.026779,1.896164,-0.050354,0.159758,0.971132,0.985472,0
19.916222,0.026732,1.89316,-0.065165,0.16607,0.956266,0.972765,0
19.942994,0.026772,1.888994,-0.089601,0.137906,0.974544,0.988323,0
19.969759,0.026764,1.883608,-0.088861,0.106586,1.00793,1.017438,0
20.003518,0.03376,1.879024,-0.078494,0.132808,1.010855,1.022559,0
20.03026,0.026742,1.872875,-0.110336,0.148103,0.999644,1.016562,0
20.064079,0.033819,1.871382,-0.154272,0.094446,1.032544,1.048268,0
20.090825,0.026746,1.870014,-0.195247,0.126495,0.965283,0.992922,0
20.11772,0.026896,1.876854,-0.218203,0.167527,1.027913,1.064088,0
20.15153,0.03381,1.884634,-0.132304,0.193991,0.967233,0.995327,0
20.178257,0.026727,1.885938,-0.067139,0.201518,0.9453,0.96887,0
20.212017,0.033759,1.883371,-0.124158,0.190592,0.942376,0.969439,0
20.238833,0.026816,1.881611,-0.131563,0.202246,0.928972,0.959793,0
20.265743,0.026909,1.876633,-0.115025,0.19302,0.928972,0.95576,0
20.299602,0.033859,1.870141,-0.158222,0.168498,0.917031,0.945712,0
20.326384,0.026782,1.861639,-0.188582,0.152474,0.902653,0.934663,0
20.360309,0.033925,1.858636,-0.231779,0.164128,0.901922,0.945581,0
20.387263,0.026954,1.85829,-0.219437,0.163399,0.915569,0.955572,0
20.420995,0.033732,1.858974,-0.206108,0.182823,0.957485,0.996334,0
20.447785,0.02679,1.860495,-0.221905,0.138635,1.031812,1.064471,0
20.474827,0.027043,1.863761,-0.187842,0.142519,1.11077,1.135521,0
20.505371,0.030543,1.866727,-0.156494,0.175539,1.201425,1.224225,1
20.534268,0.028898,1.869688,-0.11231,0.084977,1.320837,1.328324,0
20.561418,0.027149,1.889636,-0.113051,0.139606,1.419291,1.430614,0
20.595335,0.033918,1.910968,0.00097,0.092018,1.431963,1.434916,0
20.622249,0.026914,1.933803,0.171409,0.14956,1.290375,1.310274,0
20.656102,0.033853,1.945789,0.165348,0.195691,1.006955,1.039035,0
20.682771,0.026669,1.935297,-0.082443,0.25906,0.736696,0.785257,0
20.709461,0.02669,1.922632,-0.196481,0.109257,0.944082,0.97048,0
20.743171,0.03371,1.925173,-0.035051,0.076965,0.890712,0.894718,0
20.770218,0.027047,1.95723,-0.073804,0.040546,0.867561,0.871638,0
20.804138,0.03392,1.991099,-0.016538,0.120182,0.879015,0.887347,0
20.831017,0.02688,2.014374,0.035882,0.152959,0.84246,0.856985,0
20.864811,0.033793,2.022158,0.012607,0.2156,0.753754,0.784084,0
20.891676,0.026865,2.017963,-0.051835,0.188893,0.721343,0.747464,0
20.925609,0.033933,2.010092,-0.157234,0.162428,0.696242,0.732023,0
20.952388,0.026779,2.00673,-0.207342,0.175053,0.71988,0.769326,0
20.979175,0.026787,2.007297,-0.191791,0.202003,0.810536,0.857063,0
21.013043,0.033867,2.005999,-0.207836,0.117754,0.8293,0.863018,0
21.039925,0.026882,1.995048,-0.263867,0.126252,0.886813,0.933811,0
21.073789,0.033864,1.984033,-0.259918,0.101245,0.964552,1.004076,0
21.100512,0.026723,1.976826,-0.301139,0.096874,1.004518,1.053151,0
21.134473,0.033961,1.973935,-0.240665,0.177724,1.138308,1.176967,0
21.161074,0.026601,1.972102,-0.18488,0.156601,1.304509,1.326819,1
21.187711,0.026637,1.962404,-0.134032,0.157087,1.28014,1.296687,0
21.22171,0.033999,1.958833,-0.203886,0.181123,1.339114,1.366602,0
21.248417,0.026707,1.975449,-0.070101,0.102944,1.389559,1.39513,0
21.282272,0.033854,1.986018,0.025214,0.046131,1.281358,1.282436,0
21.309043,0.026771,1.988097,0.032488,0.109985,1.040586,1.046886,0
21.335742,0.0267,1.988435,-0.088367,0.191806,1.047409,1.068487,0
21.369354,0.033611,1.990389,-0.115766,0.037876,0.909477,0.917597,0
21.404253,0.0349,1.994426,-0.100709,0.074295,0.853183,0.862312,0
21.430952,0.026698,2.003031,-0.055785,0.093475,0.758872,0.76664,0
21.457628,0.026676,2.012002,-0.07257,0.134021,0.7752,0.79004,0
21.491319,0.033691,2.01535,-0.052576,0.202003,0.744494,0.773202,0
21.518119,0.026799,2.008735,-0.058994,0.204189,0.761796,0.79089,0
21.552477,0.034358,2.004116,-0.082937,0.155387,0.869998,0.887648,0
21.579202,0.026725,2.004078,-0.101449,0.126252,0.835636,0.851187,0
21.612845,0.033643,2.00771,-0.127367,0.124553,0.831981,0.85084,0
21.639631,0.026786,2.008326,-0.1755,0.105858,0.850746,0.875085,0
21.666229,0.026598,2.008177,-0.18957,0.006313,0.889737,0.90973,0
21.69986,0.033631,2.011707,-0.192285,0.069196,0.875846,0.899371,0
21.726434,0.026573,2.015346,-0.215734,0.167041,0.884863,0.925974,0
21.753061,0.026628,2.016799,-0.239677,0.155144,0.948712,0.990742,0
21.786669,0.033608,2.02436,-0.161184,0.109499,1.126611,1.143338,0
21.814244,0.027575,2.024263,-0.034804,0.198604,1.23798,1.254292,1
21.847923,0.033679,2.012872,-0.144646,0.151745,1.163896,1.182626,0
21.874803,0.026881,2.004765,-0.270285,0.033263,1.334728,1.362225,0
21.908518,0.033715,2.010728,0.039519,0.013596,1.274778,1.275463,0
21.936838,0.02832,2.012743,0.068855,0.068468,1.109308,1.11355,0
21.968587,0.031749,2.003111,-0.028633,0.153688,1.002081,1.014203,0
22.004158,0.035571,1.999364,-0.030854,-0.073333,0.993308,0.996489,0
22.032137,0.027978,2.00706,-0.108608,-0.063442,0.962115,0.970302,0
22.063462,0.031326,2.022164,-0.034557,0.047587,0.859762,0.861772,0
22.091457,0.027995,2.034356,-0.082196,0.067496,0.771788,0.779082,0
22.120619,0.029161,2.037694,-0.085405,0.061669,0.750586,0.757943,0
22.145026,0.024408,2.03467,-0.165874,0.082307,0.703797,0.727749,0
22.176662,0.031635,2.034944,-0.171798,0.069196,0.717444,0.740964,0
22.204491,0.027829,2.035864,-0.171304,0.034234,0.797376,0.816288,0
22.232243,0.027752,2.03462,-0.160937,0.000971,0.873897,0.888593,0
22.26362,0.031377,2.036727,-0.16538,0.074537,0.912888,0.930737,0
22.29188,0.02826,2.037819,-0.152791,0.111199,1.042291,1.059284,0
22.327326,0.035446,2.031591,-0.146374,0.128437,1.005981,1.024655,0
22.359096,0.03177,2.022833,-0.2145,0.044431,1.092493,1.114238,0
22.387465,0.028369,2.012944,-0.256462,0.066282,1.078602,1.110653,0
22.415323,0.027858,2.005324,-0.191051,0.094689,1.245535,1.263655,1
22.446764,0.031441,1.997265,-0.075038,0.150774,1.20898,1.220654,0
22.474413,0.027648,1.982233,-0.201912,0.218513,1.164871,1.202265,0
22.502211,0.027798,1.968132,-0.271766,0.228953,1.179249,1.231627,0
22.535446,0.033235,1.962687,-0.124405,0.109499,1.147325,1.159233,0
22.573973,0.038528,1.963122,-0.065905,0.108285,1.090543,1.097886,0
22.606153,0.03218,1.973299,-0.05381,0.075751,1.000863,1.005167,0
22.637853,0.0317,1.980536,-0.057513,0.078422,0.910451,0.915631,0
22.665492,0.027638,1.982347,-0.064918,0.158786,0.82662,0.844232,0
22.693193,0.027702,1.984416,-0.046652,0.193506,0.8293,0.852854,0
22.724773,0.03158,1.983298,0.000727,0.177239,0.850258,0.868535,0
22.752989,0.028216,1.978094,-0.051589,0.164128,0.830763,0.84839,0
22.781369,0.02838,1.978073,-0.06862,0.160729,0.827351,0.845607,0
22.813204,0.031835,1.977867,-0.112063,0.148103,0.837099,0.857454,0
22.841198,0.027994,1.975647,-0.098734,0.111442,0.845872,0.858875,0
22.873344,0.032146,1.975785,-0.081209,0.149075,0.867317,0.883774,0
22.901422,0.028078,1.968667,-0.129095,0.180638,0.882426,0.90993,0
22.936561,0.035139,1.961139,-0.196728,0.095417,0.947006,0.971919,0
22.971453,0.034893,1.956982,-0.190804,0.141305,0.920199,0.950337,0
23.002849,0.031395,1.953999,-0.218943,0.208316,0.944813,0.991969,0
23.030809,0.027961,1.946447,-0.268557,0.110471,1.05472,1.093966,0
23.058792,0.027982,1.938024,-0.247082,0.008498,1.145619,1.171992,0
23.090604,0.031812,1.931028,-0.174019,0.220698,1.163652,1.197112,1
23.118767,0.028163,1.905807,-0.134525,0.32947,1.165115,1.218253,0
23.153978,0.035211,1.876015,-0.18019,0.07478,1.29403,1.308654,0
23.185524,0.031546,1.863909,-0.110582,0.018695,1.243829,1.248875,0
23.213519,0.027995,1.866053,0.042186,0.118483,1.140501,1.147415,0
23.241503,0.027984,1.873106,0.009455,0.178938,0.937014,0.953994,0
23.273144,0.031641,1.871876,-0.109101,0.084249,0.953342,0.963256,0
23.301273,0.028128,1.876771,-0.137241,-0.035219,1.014266,1.024115,0
23.336473,0.0352,1.895463,-0.053317,0.009954,0.932384,0.93396,0
23.371606,0.035134,1.912603,-0.079481,0.099059,0.753267,0.763899,0
23.403309,0.031703,1.924395,-0.12169,0.077694,0.810536,0.823294,0
23.431347,0.028038,1.933654,-0.106386,0.046616,0.840267,0.848257,0
23.459366,0.028019,1.944285,-0.115272,0.051472,0.805906,0.815733,0
23.491141,0.031775,1.953275,-0.111323,0.054143,0.87341,0.882139,0
23.519495,0.028354,1.953478,-0.106139,0.109499,0.813704,0.82787,0
23.551373,0.031878,1.946377,-0.16069,0.116298,0.813947,0.837769,0
23.580006,0.028633,1.93731,-0.254981,0.087648,0.922393,0.960992,0
23.615006,0.035,1.92875,-0.255969,0.056813,0.949687,0.985217,0
23.646506,0.0315,1.920548,-0.242393,0.048559,1.057888,1.086388,0
23.674235,0.027729,1.914207,-0.221165,0.11217,1.091031,1.118858,0
23.701954,0.027719,1.915138,-0.20438,0.141062,1.126854,1.153893,0
23.736895,0.034941,1.928049,-0.14193,0.146647,1.070804,1.090078,0
23.77192,0.035025,1.936691,-0.1365,0.367102,1.02572,1.097952,0
23.803543,0.031622,1.932636,-0.080715,0.33214,1.152442,1.202063,1
23.831474,0.027931,1.92995,0.076613,0.191806,1.2894,1.305837,0
23.85942,0.027946,1.922181,0.085099,0.170683,1.124905,1.140958,0
23.891117,0.031698,1.915509,0.104009,0.260031,1.027182,1.064677,0
23.919204,0.028087,1.899719,0.010183,0.194962,1.037174,1.055388,0
23.954332,0.035128,1.880869,0.017699,0.11994,0.889006,0.897235,0
23.98943,0.035098,1.874241,-0.028139,0.113384,0.900216,0.907765,0
24.021021,0.03159,1.870274,-0.029867,0.141062,0.840023,0.852308,0
24.049001,0.02798,1.860878,-0.057019,0.119454,0.83588,0.846295,0
24.07705,0.028049,1.84632,-0.080962,0.110713,0.82004,0.831431,0
24.108546,0.031495,1.841708,-0.097006,0.100273,0.868048,0.879189,0
24.136649,0.028104,1.845828,-0.083677,0.076965,0.88462,0.891895,0
24.171779,0.03513,1.849619,-0.086886,0.113384,0.874384,0.885976,0
24.206892,0.035113,1.848832,-0.133785,0.100516,0.889006,0.904618,0
24.238528,0.031636,1.850387,-0.174266,0.067496,0.912401,0.931343,0
24.266912,0.028385,1.855238,-0.195988,0.108771,0.904846,0.932196,0
24.295031,0.028118,1.862264,-0.197962,0.149803,0.944082,0.976176,0
24.326607,0.031576,1.870865,-0.19426,0.098331,1.102972,1.124257,0
24.361674,0.035067,1.872332,-0.098981,0.104401,1.211904,1.220413,1
24.389743,0.028069,1.873521,-0.088861,0.166798,1.067392,1.083995,0
24.421143,0.0314,1.874149,-0.117247,0.218756,1.129535,1.156482,0
24.449067,0.027924,1.880706,-0.159456,0.120182,1.159997,1.177057,0
24.477056,0.027989,1.893449,-0.071582,0.03132,1.17535,1.177944,0
24.508627,0.031571,1.900625,-0.056279,0.073323,1.116619,1.120438,0
24.536587,0.02796,1.90988,0.036609,0.035448,1.119543,1.120703,0
24.564645,0.028058,1.924378,0.02376,0.059484,0.990384,0.992453,0
24.598614,0.033969,1.931559,-0.061956,0.115326,0.867317,0.877142,0
24.623842,0.025228,1.936658,-0.124158,0.04953,0.921661,0.931305,0
24.651269,0.027428,1.948634,-0.092563,-0.008443,0.955779,0.960288,0
24.682118,0.030849,1.959173,-0.030608,0.011897,0.847578,0.848214,0
24.709494,0.027376,1.969987,-0.096266,0.153688,0.76399,0.785218,0
24.744625,0.035131,1.976878,-0.12712,0.112413,0.833931,0.851021,0
24.773262,0.028637,1.988213,-0.111323,0.101487,0.875603,0.888466,0
24.805326,0.032064,1.995254,-0.152791,0.181609,0.843678,0.876425,0
24.83375,0.028424,1.993807,-0.158715,0.189621,0.887788,0.921582,0
24.865428,0.031678,1.994184,-0.161431,0.126009,0.961384,0.982953,0
24.893572,0.028144,1.993518,-0.132304,0.139849,0.983317,1.001985,0
24.928731,0.035159,1.990906,-0.055538,0.110713,1.033762,1.041156,0
24.96383,0.035099,1.987811,-0.118728,0.064097,1.074459,1.082898,0
24.995397,0.031566,1.976574,-0.085899,0.013111,1.077384,1.080882,0
25.02369,0.028294,1.966726,-0.001481,0.078908,1.068367,1.071278,0
25.051951,0.02826,1.959869,-0.016291,0.077936,1.087132,1.090043,0
25.08358,0.031629,1.947553,-0.039741,0.031806,1.049846,1.051079,0
25.119582,0.036002,1.937441,0.006788,0.02088,1.042779,1.04301,0
25.147423,0.02784,1.929705,0.061581,0.037876,0.994039,0.996665,0
25.17869,0.031267,1.923581,0.027154,0.035448,0.936283,0.937347,0
25.206358,0.027668,1.913363,-0.116753,0.010197,0.96114,0.968259,0
25.234327,0.02797,1.909758,-0.079975,0.006555,0.942863,0.946272,0
25.265852,0.031525,1.913179,-0.053317,0.181366,0.86488,0.885299,0
25.293993,0.02814,1.908235,-0.109842,0.177967,0.89851,0.922528,0
25.329177,0.035184,1.904954,-0.154272,0.076237,0.969182,0.984341,0
25.360765,0.031588,1.915485,-0.142918,0.021123,1.008417,1.018714,0
25.388974,0.028209,1.927862,-0.083677,0.085706,0.971863,0.979217,0
25.416988,0.028014,1.938568,-0.050848,0.142762,0.947737,0.959777,0
25.448773,0.031785,1.945582,-0.052329,0.08959,0.982342,0.987806,0
25.477145,0.028372,1.956486,-0.095032,0.06604,0.982829,0.989619,0
25.508545,0.0314,1.968393,-0.116013,0.02695,0.971619,0.978892,0
25.537068,0.028522,1.981794,-0.086886,0.08692,0.96114,0.968966,0
25.565302,0.028234,1.997961,-0.027152,0.153202,0.957729,0.970285,0
25.598922,0.03362,2.007783,-0.007899,0.107314,0.988922,0.994759,0
25.631207,0.032285,2.014046,-0.037025,0.084492,0.962359,0.96677,0
25.65878,0.027573,2.023969,-0.112063,0.047345,1.033275,1.040412,0
25.686279,0.027498,2.034725,-0.093551,0.091047,1.013048,1.021424,0
25.717396,0.031118,2.045301,-0.0975,0.172868,0.988922,1.008641,0
25.745451,0.028055,2.057629,-0.048133,0.086191,1.036443,1.041134,0
25.773787,0.028335,2.062068,-0.023203,0.034234,0.913376,0.914312,0
25.805684,0.031898,2.061635,-0.103918,0.094689,0.88267,0.893796,0
25.841016,0.035331,2.066473,-0.069361,-0.001206,1.048628,1.05092,0
25.869164,0.028148,2.067738,-0.053317,0.092504,0.980149,0.985947,0
25.900973,0.031808,2.061043,-0.073557,0.091533,0.929947,0.937332,0
25.929158,0.028186,2.053559,-0.105399,0.094932,0.904115,0.915175,0
25.965572,0.036413,2.056393,-0.105152,-0.030394,1.022796,1.028636,0
25.996913,0.031342,2.081394,-0.150323,0.148832,0.979418,1.002001,0
26.02507,0.028157,2.089266,-0.031101,0.041518,0.923367,0.924823,0
26.05714,0.03207,2.088811,-0.060475,0.126738,0.948956,0.959289,0
26.085563,0.028423,2.084619,-0.006418,-0.094561,1.198989,1.202729,1
26.120965,0.035402,2.073484,-0.054057,0.048559,1.018897,1.021484,0
26.152593,0.031627,2.063012,-0.031101,0.116055,0.976006,0.983374,0
26.180655,0.028063,2.050434,-0.043443,0.079879,0.909233,0.913768,0
26.208733,0.028077,2.034656,-0.065411,-0.022434,0.967233,0.969702,0
26.241318,0.032586,2.015096,-0.053317,-0.049451,0.983804,0.986488,0
26.277363,0.036045,2.00772,-0.075038,-0.108069,0.959435,0.968413,0
26.312447,0.035084,1.997512,-0.0195,-0.052828,0.847578,0.849446,0
26.343698,0.031251,1.982721,-0.073063,-0.010373,0.947493,0.950363,0
26.372684,0.028986,1.972156,-0.06393,0.000971,0.875115,0.877448,0
26.40626,0.033576,1.969633,-0.085899,-0.054035,0.896073,0.901801,0
26.433945,0.027685,1.968838,-0.08343,0.036904,0.881695,0.886402,0
26.46884,0.034896,1.950971,-0.140449,-0.119648,0.862443,0.881958,0
26.503784,0.034944,1.937159,-0.026411,-0.006754,0.836368,0.836812,0
26.538759,0.034974,1.925345,-0.0585,-0.000724,0.912157,0.914032,0
26.570676,0.031918,1.917612,-0.123665,-0.038114,0.801275,0.811657,0
26.599406,0.02873,1.914885,-0.082443,0.004613,0.835636,0.839706,0
26.632465,0.033059,1.915489,0.028851,-0.074056,0.950661,0.953978,0
26.660252,0.027787,1.921314,0.029094,-0.099868,0.857082,0.863371,0
26.695033,0.034782,1.911351,0.059642,-0.135087,0.88072,0.893014,0
26.727153,0.03212,1.900222,0.083159,-0.150766,0.827595,0.845316,0
26.754892,0.027739,1.881211,0.134315,-0.072368,1.026207,1.037487,0
26.783071,0.028179,1.838133,0.140376,0.002671,1.143182,1.151771,0
26.820769,0.037698,1.828776,0.009698,-0.087806,1.091274,1.094844,0
26.850185,0.029416,1.826796,0.13383,0.045159,1.071779,1.081046,0
26.878502,0.028318,1.829696,0.200503,0.028164,1.053501,1.072781,0
26.909638,0.031136,1.83908,0.095281,-0.012785,1.046434,1.050841,0
26.937211,0.027573,1.848554,0.230324,-0.017851,1.09298,1.117127,0
26.96471,0.027499,1.852756,0.171409,-0.026294,1.015728,1.030426,0
26.999562,0.034852,1.852466,0.152741,0.04176,1.096636,1.108009,0
27.034658,0.035096,1.85188,0.199048,0.077451,1.041317,1.062995,0
27.066508,0.03185,1.849858,0.148619,0.013839,1.048628,1.059197,0
27.09493,0.028422,1.854352,0.168742,0.047345,1.045216,1.059807,0
27.130854,0.035924,1.849526,0.109586,0.107072,1.089812,1.100529,0
27.162432,0.031578,1.849837,0.160742,0.064097,1.130266,1.143437,0
27.190424,0.027992,1.857595,0.165106,0.040061,1.18461,1.196732,1
27.22541,0.034985,1.869657,0.196139,0.103672,1.060569,1.083524,0
27.260504,0.035094,1.879981,0.122435,0.062398,1.05472,1.063634,0
27.292385,0.031881,1.88717,0.115162,0.072838,1.041073,1.049953,0
27.32075,0.028365,1.88921,0.104737,0.082307,1.177299,1.184811,0
27.34881,0.028059,1.894076,0.083401,0.042003,1.087619,1.09162,0
27.380918,0.032108,1.911985,0.00994,0.176996,1.033762,1.048852,0
27.408584,0.027666,1.926855,0.145225,-0.005548,1.296224,1.304345,0
27.443727,0.035143,1.938159,0.091887,0.05997,1.003544,1.009524,0
27.475431,0.031704,1.938708,0.149589,0.11824,0.884863,0.905174,0
27.503479,0.028048,1.933395,0.004364,0.058756,1.036199,1.037873,0
27.531625,0.028147,1.927082,0.068612,0.031563,1.019628,1.022421,0
27.563186,0.031561,1.917479,0.133103,0.074537,0.97625,0.988097,0
27.601556,0.03837,1.902943,0.102555,0.054386,0.924586,0.931845,0
27.635649,0.034094,1.899955,0.127042,-0.002412,1.048384,1.056056,0
27.666477,0.030828,1.919333,-0.017772,0.155387,1.016947,1.028903,0
27.693833,0.027356,1.942667,0.191775,0.092747,0.915082,0.93955,0
27.729281,0.035447,1.95922,0.15565,0.138635,0.922149,0.945413,0
27.757416,0.028136,1.962489,0.120011,0.11654,1.099804,1.112454,0
27.789212,0.031795,1.970124,0.119526,0.117512,0.941888,0.956686,0
27.817868,0.028656,1.973381,0.147165,0.026707,0.899241,0.911595,0
27.849533,0.031666,1.978836,0.093827,-0.059583,1.01646,1.022518,0
27.877361,0.027827,1.982397,0.039276,0.02525,1.05277,1.053805,0
27.905412,0.028052,1.985494,0.135285,0.018452,0.977468,0.986958,0
27.937023,0.03161,1.986371,0.160742,0.009954,1.12393,1.13541,0
27.965036,0.028013,2.004887,0.05552,-0.087565,0.981367,0.986829,0
28.000223,0.035187,2.022668,0.100373,0.038361,1.015972,1.021639,0
28.031768,0.031545,2.041231,0.114677,0.059727,1.072997,1.08076,0
28.059898,0.02813,2.058164,0.030306,0.002671,1.020359,1.020812,0
28.088035,0.028137,2.075705,0.107404,-0.000965,0.991359,0.99716,0
28.119708,0.031673,2.099189,0.002424,0.114355,0.878283,0.8857,0
28.148508,0.0288,2.113306,-0.094044,0.011654,1.028401,1.032758,0
28.180412,0.031904,2.116531,-0.033076,0.147618,1.149031,1.158946,0
28.208557,0.028145,2.11991,0.061096,0.006555,0.944082,0.946079,0
28.243754,0.035197,2.123275,0.025942,0.019909,1.038149,1.038664,0
28.275614,0.03186,2.126725,0.04267,0.036176,0.983073,0.984663,0
28.303806,0.028193,2.129618,0.031518,0.0522,0.997695,0.999557,0
28.33933,0.035523,2.137491,0.026669,0.018695,1.01256,1.013084,0
28.374551,0.035221,2.142644,0.021093,0.013111,0.99672,0.997029,0
28.406552,0.032001,2.142781,0.039276,0.054386,0.954317,0.956672,0
28.434698,0.028146,2.146288,0.038791,0.040061,0.937014,0.938672,0
28.469983,0.035285,2.147555,0.024487,0.049287,0.962359,0.963931,0
28.505099,0.035116,2.147375,-0.000987,-0.008443,1.012073,1.012109,0
28.536695,0.031596,2.149825,0.039034,0.020395,0.956023,0.957037,0
28.565095,0.028401,2.152155,0.022063,0.07478,1.000132,1.003166,0
28.60015,0.035055,2.154485,0.051641,0.003642,0.99209,0.99344,0
28.634101,0.033951,2.156777,0.000727,0.043945,0.990384,0.991359,0
28.662369,0.028267,2.159038,0.043398,0.026707,1.00793,1.009217,0
28.693628,0.031259,2.161341,0.006304,0.011168,0.99867,0.998752,0
28.721168,0.02754,2.163304,0.017214,0.042731,0.981855,0.982935,0
28.748771,0.027603,2.164931,0.032003,0.012625,0.937258,0.937889,0
28.77993,0.031159,2.166467,0.031518,0.024279,0.990628,0.991426,0
28.807726,0.027796,2.167948,0.028851,0.036419,0.998426,0.999506,0
28.835371,0.027646,2.169328,0.041943,0.022094,0.991602,0.992735,0
28.867351,0.03198,2.170759,0.020365,0.033991,0.994771,0.995559,0
28.895619,0.028268,2.172166,0.014789,0.030835,1.060081,1.060633,0
28.923625,0.028006,2.173338,0.024002,0.024036,0.991115,0.991697,0
28.955147,0.031522,2.174361,0.032488,0.026464,0.997695,0.998574,0
28.982796,0.027649,2.175406,0.026427,0.024036,0.992577,0.99322,0
29.010574,0.027778,2.176564,0.032245,0.024765,0.993552,0.994384,0
29.041882,0.031308,2.177743,0.030306,0.030349,0.994527,0.995451,0
29.070112,0.02823,2.17879,0.018668,0.032777,1.060081,1.060752,0
29.105181,0.035069,2.179764,0.024487,0.031806,0.995502,0.996311,0
29.137562,0.03238,2.180816,0.026427,0.029863,0.997939,0.998735,0
29.16532,0.027758,2.181877,0.028366,0.02695,0.994283,0.995053,0
29.193047,0.027727,2.182768,0.026911,0.028407,0.993796,0.994566,0
29.224151,0.031104,2.183609,0.031033,0.022337,0.995989,0.996723,0
29.252342,0.028191,2.184571,0.019638,0.032534,0.994771,0.995496,0
29.280389,0.028047,2.185562,0.023032,0.030835,0.997695,0.998437,0
29.312136,0.031747,2.186514,0.025699,0.030106,0.993796,0.994584,0
29.347159,0.035024,2.187421,0.025942,0.03132,0.994039,0.994871,0
29.375401,0.028242,2.188275,0.023032,0.026222,0.993552,0.994165,0
29.407169,0.031768,2.189172,0.038549,0.029621,0.997451,0.998635,0
29.435216,0.028047,2.18986,0.018183,0.029863,1.057888,1.058466,0
29.470932,0.035716,2.190619,0.025214,0.020637,0.997939,0.99847,0
29.502743,0.031811,2.191474,0.028124,0.027436,0.995745,0.99652,0
29.531269,0.028525,2.192186,0.018668,0.032049,0.993796,0.994488,0
29.56643,0.035161,2.192847,0.029336,0.023551,0.994527,0.995238,0
29.597922,0.031492,2.193326,0.026669,0.038118,0.994527,0.995614,0
29.628501,0.030579,2.193797,0.017699,0.035448,0.999157,0.999942,0
29.660794,0.032293,2.191685,0.032488,0.027678,0.998182,0.999094,0
29.688617,0.027824,2.19569,0.075158,0.002671,0.974544,0.977441,0
29.720949,0.032332,2.197751,-0.021968,0.059241,1.004518,1.006504,0
29.756266,0.035317,2.194921,0.057217,0.017238,0.959435,0.961294,0
29.784383,0.028117,2.19323,0.007516,-0.031601,0.969426,0.96997,0
29.817809,0.033425,2.193251,0.031276,0.056085,0.936283,0.938483,0
29.845732,0.027924,2.203678,0.0337,0.036176,0.938233,0.939535,0
29.877748,0.032015,2.204268,-0.007405,-0.024605,1.031569,1.031889,0
29.913573,0.035825,2.201267,0.036609,-0.001206,1.04546,1.046101,0
29.941902,0.028329,2.20502,0.007273,0.036176,1.002325,1.003004,0
29.97399,0.032088,2.209596,0.029821,0.037147,0.983073,0.984227,0
30.002282,0.028292,2.221026,0.050671,0.03739,0.982342,0.984358,0
30.034075,0.031793,2.22565,0.011395,0.009226,0.988678,0.988787,0
30.062178,0.028103,2.225177,0.008486,0.01651,0.943594,0.943777,0
30.094128,0.03195,2.225059,0.001212,0.053172,0.99867,1.000085,0
30.122283,0.028155,2.226321,-0.000247,0.015782,0.993308,0.993434,0
30.150573,0.028291,2.230567,-0.002962,0.050501,0.986972,0.988268,0
30.182457,0.031884,2.22988,0.025457,0.029378,1.000376,1.00113,0
30.210481,0.028023,2.229457,-0.024437,0.027436,0.991846,0.992526,0
30.242124,0.031643,2.231074,-0.04838,0.065797,0.973082,0.976503,0
30.271603,0.029479,2.232611,0.126314,0.046131,0.958216,0.967606,0
30.303683,0.03208,2.23292,-0.001728,0.013354,0.999888,0.999979,0
30.332407,0.028724,2.232712,0.005334,0.053414,0.999644,1.001085,0
30.364614,0.032208,2.235299,0.080007,0.038361,0.997939,1.001875,0
30.393239,0.028624,2.2379,-0.003209,0.054871,0.982829,0.984365,0
30.42537,0.032132,2.238618,0.002909,0.051958,0.994527,0.995887,0
30.453336,0.027966,2.23897,0.013092,0.030106,0.999157,0.999696,0
30.48845,0.035114,2.239006,0.028366,0.20953,0.969913,0.992693,0
30.520114,0.031664,2.23747,0.014304,0.018452,1.007443,1.007713,0
30.548321,0.028206,2.237723,0.02182,0.031077,0.959435,0.960186,0
30.576595,0.028275,2.23723,-0.000987,0.033748,1.015972,1.016533,0
30.608407,0.031812,2.235514,0.013335,0.040789,0.977955,0.978897,0
30.644493,0.036086,2.235711,0.030791,0.025736,0.977468,0.978291,0
30.680208,0.035715,2.235491,0.005091,0.082549,1.010611,1.013989,0
30.712342,0.032134,2.23677,0.005091,0.122853,0.985023,0.992667,0
30.741012,0.02867,2.240638,-0.012835,0.115326,1.020846,1.02742,0
30.772474,0.031461,2.24254,0.007758,0.034477,0.98088,0.981516,0
30.800131,0.027657,2.241876,0.004122,0.055842,1.026207,1.027734,0
30.827879,0.027749,2.237875,-0.011848,0.053657,1.016947,1.01843,0
30.862932,0.035053,2.237927,0.042428,0.097117,0.994283,0.999915,0
30.894494,0.031561,2.237946,-0.000741,0.096146,1.006468,1.01105,0
30.922671,0.028177,2.238781,-0.005677,0.088862,0.937258,0.941478,0
30.950583,0.027912,2.239703,0.02182,0.083521,0.968695,0.972534,0
30.981922,0.031339,2.240191,-0.030608,0.090319,0.979905,0.984534,0
31.009898,0.027976,2.242366,-0.003949,0.070653,1.059594,1.061954,0
31.037826,0.027928,2.244257,0.012122,0.035205,1.045947,1.046609,0
31.070237,0.032411,2.245385,-0.0195,0.048801,0.984292,0.985694,0
31.099071,0.028834,2.243545,-0.026165,0.0522,0.949199,0.950993,0
31.131144,0.032073,2.241556,0.008243,0.028407,0.999401,0.999838,0
31.159222,0.028078,2.237532,-0.016291,0.042246,0.971619,0.972674,0
31.190873,0.031651,2.235855,0.024245,0.024036,0.965283,0.965887,0
31.218721,0.027848,2.236663,0.043155,-0.024123,1.031081,1.032266,0
31.246766,0.028045,2.243047,0.057217,0.021609,1.006712,1.008568,0
31.278689,0.031923,2.247777,-0.015057,0.072352,0.949199,0.952072,0
31.307737,0.029048,2.247223,-0.023203,0.083035,0.983804,0.987575,0
31.33955,0.031813,2.246724,-0.001234,-0.006513,1.010611,1.010633,0
31.367373,0.027823,2.245987,-0.041468,0.041032,1.013535,1.015213,0
31.398834,0.031461,2.245045,0.009698,0.065068,0.963577,0.96582,0
31.426887,0.028053,2.244329,0.023032,-0.032083,1.00135,1.002129,0
31.455236,0.02835,2.244909,0.033942,0.0017,1.029619,1.03018,0
31.486905,0.031668,2.244861,-0.000247,0.084006,0.969182,0.972816,0
31.512251,0.025347,2.245539,0.008243,0.043945,0.961872,0.96291,0
31.540175,0.027924,2.247605,0.024002,-0.011338,0.992334,0.992689,0
31.568038,0.027863,2.250099,0.015032,0.010926,1.009149,1.00932,0
31.599327,0.031289,2.253913,-0.022215,0.117754,0.986241,0.993494,0
31.627164,0.027837,2.263813,0.044368,0.055842,0.986485,0.98906,0
31.661474,0.034309,2.272453,0.026669,-0.012303,1.000619,1.00105,0
31.690006,0.028533,2.280155,-0.018513,0.001457,0.992334,0.992507,0
31.721699,0.031692,2.283472,0.016971,-0.012061,1.009636,1.009851,0
31.74989,0.028191,2.282844,0.075158,-0.034495,1.000376,1.003788,0
31.784997,0.035107,2.283111,-0.025918,0.126009,0.964796,0.973335,0
31.819986,0.034989,2.28651,0.018183,0.094446,1.014997,1.019544,0
31.851904,0.031918,2.288784,0.024972,-0.01375,1.041073,1.041463,0
31.880013,0.028109,2.292893,0.018911,0.032291,0.957729,0.958459,0
31.915856,0.035843,2.296159,0.064976,-0.024605,1.001594,1.004001,0
31.947945,0.032089,2.296176,-0.005677,0.029135,1.075434,1.075844,0
31.987134,0.03919,2.287414,0.056732,0.001214,0.961384,0.963057,0
32.018139,0.031005,2.283559,-0.003703,0.068225,0.970157,0.97256,0
32.046232,0.028093,2.284716,0.061339,0.072838,1.043997,1.048331,0
32.080819,0.034587,2.283705,-0.010861,0.016995,0.963577,0.963788,0
32.128098,0.047278,2.287463,0.011153,-0.054517,1.060569,1.062028,0
32.19968,0.071583,2.290869,0.014304,0.03909,0.969426,0.970319,0
32.241477,0.041796,2.288675,0.012365,0.011168,0.861712,0.861873,0
32.283846,0.04237,2.283976,0.014062,-0.038114,1.037418,1.038213,0
32.317418,0.033572,2.290423,0.006788,0.00437,0.894124,0.89416,0
32.363258,0.04584,2.294594,-0.008392,-0.022193,0.970888,0.971178,0
32.397805,0.034546,2.295332,0.028124,0.045402,1.040829,1.042199,0
32.428253,0.030448,2.29573,0.083886,-0.099385,0.944082,0.952998,0
32.457961,0.029708,2.297761,0.073704,-0.043421,0.879015,0.883167,0
32.483126,0.025165,2.294837,-0.026905,0.144704,0.982829,0.993789,0
32.511402,0.028276,2.27795,-0.021968,-0.045592,1.017434,1.018692,0
32.55415,0.042747,2.275594,0.118314,-0.011579,1.028888,1.035733,0
32.586094,0.031944,2.27439,0.032973,0.003399,0.995989,0.99654,0
32.622406,0.036313,2.274251,0.036124,0.002914,1.003056,1.003711,0
32.65393,0.031524,2.277756,0.096493,-0.006031,0.995745,1.000428,0
32.694175,0.040245,2.278331,-0.034063,0.017238,0.974544,0.975291,0
32.72259,0.028415,2.278854,-0.011108,0.014082,0.983073,0.983237,0
32.751966,0.029377,2.27846,0.024487,0.000971,0.998182,0.998483,0
32.794042,0.042075,2.27681,-0.011354,0.050258,1.013779,1.015087,0
32.828584,0.034543,2.27838,-0.005184,0.000728,0.96772,0.967734,0
32.862426,0.033842,2.277764,0.042428,0.008741,1.020846,1.021765,0
32.892944,0.030518,2.275927,0.052853,-0.032324,1.030838,1.032698,0
32.925858,0.032914,2.264371,0.073461,-0.065855,1.029132,1.03385,0
32.959878,0.03402,2.24584,0.01285,0.005584,0.974056,0.974157,0
32.992212,0.032333,2.231148,-0.012342,0.014325,0.989165,0.989346,0
33.021144,0.028932,2.221606,-0.065411,0.102701,0.949687,0.957461,0
33.052254,0.03111,2.220733,-0.036038,0.117269,1.03888,1.046098,0
33.079939,0.027685,2.22017,0.020365,0.040546,1.064712,1.065678,0
33.108563,0.028625,2.219449,0.002182,0.057785,0.962115,0.963851,0
33.141896,0.033333,2.218782,0.009698,0.040546,0.939939,0.940863,0
33.17795,0.036053,2.217796,0.010425,0.03909,1.000863,1.00168,0
33.210877,0.032927,2.216943,0.016729,0.038118,1.002081,1.002946,0
33.238738,0.027861,2.216486,0.011395,0.036904,0.999157,0.999903,0
33.270543,0.031804,2.215885,0.011153,0.042003,0.998913,0.999858,0
33.304092,0.033549,2.214988,0.013819,0.03739,1.000376,1.001169,0
33.332894,0.028802,2.213726,0.005334,0.044188,0.996964,0.997957,0
33.359724,0.02683,2.212353,0.008001,0.037876,0.999401,1.00015,0
33.393628,0.033904,2.210851,0.012607,0.041275,0.996233,0.997167,0
33.42054,0.026912,2.20931,0.012365,0.038604,0.93604,0.936917,0
33.447335,0.026795,2.207903,0.015759,0.041275,0.994283,0.995264,0
33.481163,0.033828,2.20656,0.012122,0.038604,0.936771,0.937644,0
33.508945,0.027783,2.205441,0.00897,0.03739,0.997451,0.998192,0
33.539395,0.030449,2.204372,0.010183,0.040304,0.998426,0.999291,0
33.566243,0.026848,2.203237,0.007516,0.038361,0.998426,0.999191,0
33.592877,0.026634,2.202098,0.012607,0.038361,0.996476,0.997294,0
33.626648,0.033772,2.20088,0.012122,0.038118,0.999157,0.999957,0
33.653315,0.026667,2.199793,0.018668,0.038604,0.982586,0.983521,0
33.690574,0.037259,2.198752,0.028366,0.044431,1.013048,1.014418,0
33.714164,0.023591,2.197809,0.001697,0.036176,0.994771,0.99543,0
33.741798,0.027634,2.196713,0.014062,0.03302,0.986972,0.987625,0
33.768705,0.026907,2.195613,-0.000987,0.040061,0.946519,0.947366,0
33.802495,0.03379,2.194453,-0.000987,0.034477,0.997939,0.998534,0
33.829176,0.026681,2.193399,0.008728,0.046373,0.936527,0.937715,0
33.855969,0.026793,2.192458,0.017214,0.038361,0.993065,0.993954,0
33.891276,0.035307,2.191625,0.024245,0.042731,0.992577,0.993792,0
33.921622,0.030346,2.190882,0.007758,0.043945,0.997451,0.998449,0
33.948446,0.026824,2.190137,0.015517,0.042246,1.001107,1.002118,0
33.97531,0.026864,2.189482,0.00097,0.042731,0.999157,1.000071,0
34.009128,0.033818,2.188771,-0.000741,0.038361,0.999401,1.000137,0
34.035974,0.026846,2.187989,0.004122,0.034962,0.995014,0.995637,0
34.062797,0.026823,2.188573,0.046792,0.000971,0.939695,0.94086,0
34.096529,0.033732,2.186482,0.01285,-0.06103,1.091031,1.092812,0
34.123455,0.026925,2.18594,0.055035,-0.056688,0.869267,0.87285,0
34.15727,0.033816,2.182379,-0.026905,0.060941,1.084695,1.086738,0
34.184012,0.026742,2.181429,0.004606,0.120668,0.915569,0.923498,0
34.210727,0.026715,2.180743,-0.03431,0.14349,1.089325,1.09927,0
34.24468,0.033952,2.181418,0.027639,0.166556,0.974787,0.9893,0
34.271445,0.026765,2.182079,-0.031348,0.040061,0.998913,1.000208,0
34.305229,0.033784,2.182085,0.058429,0.065797,1.020846,1.024632,0
34.331968,0.02674,2.181863,0.001455,0.033748,0.959922,0.960516,0
34.358669,0.0267,2.181852,0.045822,0.007284,1.012804,1.013866,0
34.393277,0.034608,2.182774,-0.003703,0.056571,0.994527,0.996141,0
34.427129,0.033852,2.183545,-0.008146,0.068953,1.017191,1.019558,0
34.453993,0.026864,2.18584,0.031033,0.08085,0.997939,1.001689,0
34.487845,0.033852,2.187377,0.032488,0.082307,0.999888,1.003796,0
34.51501,0.027165,2.189439,0.008728,0.050258,0.987947,0.989263,0
34.548815,0.033806,2.191067,0.040004,0.036904,0.992577,0.994068,0
34.575589,0.026773,2.192398,0.008728,0.048316,0.998426,0.999632,0
34.600761,0.025172,2.194286,0.002909,0.087891,0.996964,1.000835,0
34.627572,0.026811,2.196657,-0.003209,0.122853,1.004275,1.011766,0
34.654419,0.026847,2.200075,0.019396,0.052443,0.990628,0.992204,0
34.68846,0.03404,2.202696,0.008728,0.060941,1.000376,1.002268,0
34.715768,0.027308,2.206642,0.039761,0.06264,0.994039,0.996804,0
34.751655,0.035887,2.209282,0.005091,0.0539,0.987947,0.989429,0
34.778412,0.026757,2.212805,0.000485,0.04953,1.002081,1.003305,0
34.812228,0.033816,2.215067,-0.006911,0.045888,0.993796,0.994879,0
34.839107,0.026878,2.217819,0.007758,0.054628,0.937258,0.938881,0
34.873085,0.033979,2.220354,0.013092,0.072595,0.999644,1.002362,0
34.906949,0.033864,2.222156,0.035155,0.06434,0.995745,0.998441,0
34.932024,0.025075,2.223942,0.005576,0.052929,0.994527,0.99595,0
34.959916,0.027892,2.225036,0.001455,0.035448,0.993065,0.993698,0
34.987013,0.027097,2.226007,-0.014563,0.041518,0.936771,0.937803,0
35.020762,0.03375,2.226297,-0.0,0.058756,0.99867,1.000397,0
35.047898,0.027136,2.226777,0.02279,0.061184,0.937258,0.939529,0
35.081799,0.033901,2.226586,0.002424,0.051472,0.996233,0.997565,0
35.109204,0.027406,2.226217,0.01188,0.042246,0.982342,0.983322,0
35.140504,0.0313,2.225306,0.000242,0.043703,0.999401,1.000356,0
35.168276,0.027771,2.224192,0.000242,0.052929,0.994771,0.996178,0
35.195252,0.026977,2.2229,-0.001481,0.062398,0.999157,1.001105,0
35.22302,0.027768,2.221514,0.016244,0.057299,0.994771,0.996552,0
35.254051,0.03103,2.220386,0.013335,0.057056,0.998426,1.000144,0
35.280037,0.025986,2.219521,0.015759,0.057056,0.995745,0.997503,0
35.308612,0.028575,2.218699,0.013335,0.04953,0.935796,0.937201,0
35.343861,0.035249,2.217777,0.001212,0.054628,0.999157,1.00065,0
35.375914,0.032053,2.217015,0.001697,0.050986,0.998182,0.999485,0
35.403769,0.027855,2.216182,0.015759,0.063369,1.059838,1.061847,0
35.438876,0.035108,2.215182,0.00994,0.041275,1.050821,1.051678,0
35.473002,0.034126,2.213751,0.005576,0.037633,0.992334,0.993063,0
35.501726,0.028724,2.212289,0.013335,0.049772,0.999157,1.000485,0
35.532912,0.031185,2.210966,0.004364,0.056328,0.999157,1.000753,0
35.567834,0.034922,2.209968,0.013335,0.060941,0.99014,0.992104,0
35.602294,0.03446,2.209068,0.008486,0.000971,0.999888,0.999925,0
35.629236,0.026942,2.20827,0.016486,0.055357,0.994283,0.995959,0
35.656145,0.026909,2.207646,0.013819,0.053657,0.997207,0.998746,0
35.682849,0.026704,2.207181,0.009213,0.052443,0.994527,0.995951,0
35.71874,0.035892,2.206952,0.00994,0.055357,0.996233,0.997819,0
35.751743,0.033003,2.207034,0.013092,0.056328,0.999157,1.000829,0
35.785372,0.033629,2.207288,0.012365,0.057056,0.999157,1.000861,0
35.820077,0.034705,2.20729,0.015274,0.055114,0.993796,0.99544,0
35.854106,0.034029,2.206943,0.00897,0.054143,0.99867,1.000177,0
