timestamp,dt,heading_rad,accel_x,accel_y,accel_z,accel_norm,step_event
0.009318,0.009318,1.939112,0.046065,0.087648,0.995502,1.000414,0
0.14068,0.131362,1.93909,0.041943,0.083521,0.995502,0.999879,0
0.17464,0.03396,1.939498,0.041458,0.07478,0.995014,0.998681,0
0.201312,0.026671,1.940071,0.044125,0.067982,0.994283,0.997581,0
0.234186,0.032874,1.94063,0.04558,0.075994,0.993796,0.997739,0
0.26213,0.027945,1.941277,0.046307,0.083035,0.993796,0.998333,0
0.290309,0.028179,1.942152,0.043398,0.086191,0.993308,0.997985,0
0.317025,0.026715,1.942993,0.041943,0.079879,0.993796,0.997883,0
0.351,0.033975,1.943687,0.044368,0.073566,0.993552,0.997259,0
0.377641,0.026642,1.944132,0.04461,0.073566,0.995258,0.99897,0
0.411895,0.034253,1.944413,0.046307,0.081578,0.99209,0.996515,0
0.440976,0.029081,1.944429,0.045822,0.084249,0.993796,0.998412,0
0.465348,0.024372,1.944442,0.045337,0.084249,0.995014,0.999603,0
0.49916,0.033812,1.944504,0.041701,0.075508,0.995989,0.999717,0
0.525824,0.026665,1.944511,0.043883,0.073566,0.993796,0.997481,0
0.559539,0.033715,1.944457,0.044125,0.07648,0.994039,0.997953,0
0.586255,0.026716,1.944239,0.04461,0.081336,0.994527,0.998844,0
0.612953,0.026698,1.943912,0.046307,0.084006,0.993796,0.998414,0
0.646621,0.033668,1.943518,0.043155,0.079879,0.995989,1.000119,0
0.673301,0.02668,1.943152,0.04267,0.075023,0.994527,0.998265,0
0.699948,0.026647,1.942854,0.04461,0.074052,0.993552,0.997306,0
0.733774,0.033826,1.942814,0.045095,0.077936,0.994527,0.998595,0
0.760519,0.026745,1.942848,0.045822,0.082549,0.994283,0.998756,0
0.794215,0.033696,1.942735,0.046792,0.082792,0.995502,1.000034,0
0.820856,0.026641,1.942635,0.043883,0.080122,0.995258,0.999442,0
0.847513,0.026657,1.942597,0.042428,0.076965,0.993796,0.997674,0
0.87442,0.026907,1.942636,0.04364,0.075751,0.994039,0.997876,0
0.908106,0.033686,1.942777,0.043155,0.07915,0.997207,1.001274,0
0.934779,0.026673,1.942853,0.044852,0.082792,0.994527,0.998974,0
0.968425,0.033646,1.942796,0.045337,0.081093,0.995014,0.999342,0
0.995089,0.026664,1.94252,0.044852,0.077694,0.994039,0.998079,0
1.021806,0.026717,1.942085,0.044368,0.077208,0.995502,0.999476,0
1.055504,0.033698,1.941552,0.04267,0.076722,0.995745,0.999608,0
1.082216,0.026711,1.941196,0.041701,0.080122,0.996476,1.000562,0
1.10886,0.026644,1.941019,0.044368,0.082064,0.993552,0.997922,0
1.14261,0.03375,1.941015,0.04558,0.079636,0.993796,0.998023,0
1.169456,0.026846,1.940995,0.044125,0.079636,0.994039,0.9982,0
1.203177,0.033721,1.940827,0.04364,0.076237,0.995014,0.998884,0
1.231396,0.028219,1.940535,0.04267,0.079636,0.993308,0.997409,0
1.263825,0.032429,1.940176,0.041943,0.079879,0.993552,0.99764,0
1.289575,0.02575,1.940094,0.045337,0.080607,0.993552,0.997847,0
1.323885,0.03431,1.940046,0.043398,0.079879,0.991115,0.995275,0
1.350668,0.026783,1.939933,0.046065,0.076965,0.992821,0.996865,0
1.377532,0.026863,1.939794,0.04364,0.078179,0.993552,0.997578,0
1.404193,0.026661,1.939665,0.04364,0.078422,0.994283,0.998325,0
1.430943,0.02675,1.939594,0.04364,0.079879,0.992821,0.996985,0
1.464709,0.033766,1.939534,0.04364,0.080364,0.993308,0.997509,0
1.4914,0.026691,1.93933,0.043398,0.078422,0.991846,0.995888,0
1.52512,0.03372,1.939143,0.045095,0.078665,0.993065,0.997196,0
1.551792,0.026672,1.939113,0.043883,0.078422,0.994283,0.998336,0
1.578517,0.026725,1.939141,0.04267,0.078179,0.992577,0.996565,0
1.612301,0.033784,1.939187,0.043155,0.07915,0.994039,0.998119,0
1.63908,0.026779,1.939193,0.04267,0.078908,0.994039,0.998079,0
1.665736,0.026656,1.939197,0.045095,0.079393,0.993065,0.997253,0
1.699484,0.033748,1.939226,0.04655,0.078908,0.993308,0.997524,0
1.72668,0.027196,1.939242,0.045337,0.079879,0.994283,0.998516,0
1.760583,0.033903,1.939288,0.044368,0.079393,0.993552,0.997706,0
1.787266,0.026684,1.939322,0.044368,0.079393,0.994039,0.998191,0
1.821084,0.033818,1.939355,0.043883,0.078422,0.994283,0.998336,0
1.847701,0.026617,1.939548,0.045095,0.077208,0.993552,0.997567,0
1.875597,0.027897,1.93983,0.04655,0.077936,0.994771,0.998904,0
1.905994,0.030396,1.94028,0.043883,0.079636,0.994771,0.998917,0
1.932732,0.026738,1.94079,0.044852,0.079879,0.993552,0.997767,0
1.959546,0.026814,1.941067,0.04558,0.079879,0.995258,0.999498,0
1.993218,0.033672,1.941234,0.042913,0.077936,0.994771,0.998741,0
2.020019,0.026801,1.941324,0.046307,0.078179,0.993796,0.997941,0
2.053712,0.033693,1.941312,0.047035,0.079879,0.994039,0.998352,0
2.080865,0.027153,1.941229,0.045095,0.07915,0.993065,0.997234,0
2.107846,0.02698,1.940953,0.045337,0.079393,0.994039,0.998235,0
2.134599,0.026753,1.94064,0.043883,0.078908,0.995258,0.999345,0
2.162772,0.028173,1.940473,0.043155,0.079879,0.995258,0.99939,0
2.192997,0.030226,1.940358,0.04364,0.077936,0.995745,0.999744,0
2.2199,0.026903,1.940318,0.046065,0.077936,0.994771,0.998882,0
2.247249,0.027349,1.940357,0.045095,0.079636,0.995502,0.999699,0
2.273963,0.026715,1.940449,0.04364,0.078422,0.995745,0.999782,0
2.308314,0.034351,1.940477,0.045095,0.078665,0.995502,0.999623,0
2.335079,0.026765,1.940466,0.042913,0.077936,0.997207,1.001168,0
2.361962,0.026883,1.940471,0.045337,0.077208,0.993796,0.997821,0
2.395672,0.03371,1.940648,0.044368,0.080607,0.996476,1.000715,0
2.422527,0.026854,1.940897,0.044368,0.080364,0.995502,0.999725,0
2.456284,0.033757,1.941159,0.04655,0.078665,0.995989,1.000175,0
2.483062,0.026778,1.941353,0.04655,0.079879,1.056426,1.060464,0
2.509769,0.026708,1.941379,0.040246,0.07915,0.936771,0.94097,0
2.543628,0.033858,1.941314,0.044125,0.081093,0.994527,0.998803,0
2.570743,0.027115,1.941182,0.047035,0.077694,0.994527,0.998665,0
2.601624,0.030881,1.941103,0.040488,0.08085,0.997451,1.001541,0
2.628979,0.027356,1.941133,0.044368,0.077451,0.991846,0.995854,0
2.656396,0.027417,1.941235,0.04655,0.078665,0.997695,1.001873,0
2.684833,0.028437,1.941238,0.043398,0.080607,0.999401,1.003585,0
2.716801,0.031967,1.941037,0.04267,0.076965,0.994527,0.998413,0
2.745401,0.0286,1.940759,0.047519,0.080364,0.997207,1.001568,0
2.776993,0.031592,1.940567,0.04461,0.078665,0.998913,1.002999,0
2.80494,0.027946,1.940582,0.040488,0.08085,0.995258,0.999357,0
2.839973,0.035033,1.940709,0.049459,0.080364,0.99672,1.001177,0
2.875805,0.035832,1.940794,0.040246,0.08085,0.997939,1.002017,0
2.907903,0.032098,1.94087,0.04461,0.078422,0.997695,1.001766,0
2.936105,0.028203,1.940857,0.046792,0.07915,0.99867,1.002894,0
2.968365,0.03226,1.940564,0.04364,0.078665,0.995502,0.999558,0
2.996281,0.027916,1.940234,0.039519,0.082792,1.060325,1.064286,0
3.028419,0.032138,1.940011,0.051399,0.076722,0.990628,0.994923,0
3.056377,0.027958,1.93977,-0.002962,0.112656,0.987947,0.994354,0
3.084537,0.02816,1.938331,0.102797,0.032291,1.010855,1.016581,0
3.11651,0.031973,1.931484,0.03273,0.077451,0.983073,0.986662,0
3.15198,0.03547,1.928417,0.051641,0.051229,1.033762,1.036318,0
3.179869,0.027888,1.934344,0.065703,0.127466,0.951149,0.961898,0
3.211578,0.03171,1.93892,0.040004,0.107557,0.966014,0.972806,0
3.239601,0.028023,1.941147,0.04364,0.115084,0.947981,0.955937,0
3.274944,0.035343,1.947462,0.016244,0.006798,1.059106,1.059253,0
3.309186,0.034242,1.948104,0.22596,0.09736,1.134165,1.160546,0
3.334827,0.025642,1.947949,0.04267,0.094932,0.901435,0.907423,0
3.362814,0.027987,1.944667,0.050671,0.155387,0.965771,0.979503,0
3.394059,0.031245,1.940941,0.040004,-0.024123,1.088838,1.089839,0
3.421814,0.027755,1.937351,0.031033,0.031077,0.947737,0.948754,0
3.449541,0.027726,1.931915,0.094311,0.003885,1.000132,1.004576,0
3.481553,0.032012,1.927272,0.053581,0.074537,0.978687,0.982982,0
3.509899,0.028347,1.924653,0.048247,0.018209,1.059106,1.060361,0
3.545105,0.035206,1.924208,0.071037,0.046616,0.982098,0.985767,0
3.577149,0.032044,1.923116,0.04364,0.050015,0.960653,0.962943,0
3.605373,0.028224,1.923162,0.081219,0.009226,1.002325,1.005653,0
3.637318,0.031945,1.92368,0.07831,-0.050899,0.997939,1.0023,0
3.66504,0.027722,1.923157,0.106676,0.017724,0.986485,0.992394,0
3.693044,0.028004,1.923183,0.109343,-0.016886,0.997207,1.003326,0
3.724488,0.031444,1.921587,0.09116,-0.015921,1.037905,1.042022,0
3.752059,0.027572,1.919413,0.087765,0.016995,1.009392,1.013343,0
3.780196,0.028136,1.911989,0.092372,-0.018333,1.034249,1.038528,0
3.811834,0.031638,1.905454,0.028609,0.11994,1.033031,1.040364,0
3.83973,0.027896,1.901054,0.046792,0.043217,1.059594,1.061507,0
3.867661,0.02793,1.898899,0.084614,0.042003,1.019384,1.023752,0
3.900957,0.033296,1.898125,0.093827,-0.014956,0.948956,0.9537,0
3.928836,0.027879,1.897836,0.135527,-0.00989,0.966745,0.976249,0
3.960637,0.031801,1.899103,0.11298,0.000971,0.991115,0.997534,0
3.99557,0.034934,1.90075,0.162439,-0.006031,0.963577,0.977192,0
4.02365,0.02808,1.902518,0.051156,0.013111,1.058375,1.059692,0
4.054991,0.031341,1.903627,0.062551,-0.023158,1.028888,1.031048,0
4.083186,0.028196,1.905095,0.067642,-0.023399,1.012317,1.014844,0
4.111439,0.028253,1.907474,0.051883,-0.057412,0.979418,0.98247,0
4.143191,0.031751,1.909584,0.124375,-0.016162,0.983804,0.991767,0
4.178501,0.035311,1.910535,0.103767,-0.007719,1.000376,1.005772,0
4.206227,0.027726,1.912795,0.131163,-0.027741,0.981855,0.990965,0
4.238567,0.03234,1.912487,0.009698,-0.017127,0.995989,0.996183,0
4.266963,0.028395,1.915788,0.04558,-0.404295,0.894855,0.983004,0
4.299798,0.032836,1.92039,-0.081209,-0.048004,0.854645,0.859836,0
4.34476,0.044962,1.924371,0.05746,-0.106139,0.991115,0.998437,0
4.370249,0.025488,1.926948,0.02376,-0.259559,0.912645,0.949134,0
4.397369,0.027121,1.927211,0.262326,0.082549,0.947006,0.986129,0
4.43032,0.03295,1.931574,0.194684,-0.299361,0.794452,0.871018,0
4.468579,0.038259,1.933201,0.038306,0.02088,1.033762,1.034682,0
4.501594,0.033016,1.941357,0.12292,-0.067784,1.103459,1.112352,0
4.541733,0.040139,1.945623,-0.030114,-0.101797,0.981855,0.987577,0
4.57099,0.029257,1.948528,0.035155,-0.059342,0.984535,0.986948,0
4.613606,0.042616,1.951307,0.111525,-0.017127,1.03035,1.03651,0
4.642837,0.029231,1.952847,0.052611,0.077208,1.052527,1.056665,0
4.677159,0.034322,1.952537,0.11395,0.03132,0.95651,0.963783,0
4.717653,0.040494,1.954935,0.184016,0.042731,0.918006,0.937242,0
4.761143,0.04349,1.956996,0.055035,-0.015921,0.943594,0.945332,0
4.792094,0.030951,1.982735,0.124132,0.042974,0.838073,0.848306,0
4.823428,0.031334,1.998404,-0.053563,0.150774,1.147812,1.158911,0
4.86123,0.037802,2.007574,0.080007,0.027921,1.019384,1.0229,0
4.89538,0.03415,2.003839,-0.039247,0.1061,1.019871,1.026126,0
4.929766,0.034386,2.018046,0.120496,-0.036666,0.918981,0.927572,0
4.968643,0.038877,2.025603,0.152256,0.019666,1.22677,1.236339,1
4.998219,0.029576,2.029703,0.023032,-0.016886,0.950661,0.95109,0
5.033889,0.035669,2.037068,0.080977,0.145918,1.060081,1.073136,0
5.074744,0.040856,2.039805,0.127284,0.034719,1.166821,1.174256,0
5.102479,0.027735,2.040213,0.11395,-0.025087,1.304265,1.309474,0
5.134655,0.032175,2.037915,0.098191,-0.003377,1.270392,1.274185,0
5.164006,0.029352,2.04313,0.209716,-0.104451,1.223602,1.24583,0
5.199559,0.035553,2.047699,0.110313,-0.020745,1.211904,1.217091,0
5.233392,0.033833,2.04637,0.092614,-0.018333,1.19777,1.201485,0
5.266753,0.033361,2.045906,0.144983,-0.005307,1.306703,1.314732,0
5.304964,0.038211,2.046789,0.136739,-0.021952,1.148056,1.156379,0
5.335842,0.030878,2.048669,0.087281,0.011897,1.1734,1.176702,0
5.368931,0.033089,2.045721,0.038064,-0.016645,1.127098,1.127863,0
5.396553,0.027622,2.04192,0.129224,-0.041732,1.069829,1.078413,0
5.431372,0.034819,2.045791,0.141588,0.030592,1.048384,1.058344,0
5.471443,0.040071,2.049407,0.072734,0.06264,1.061543,1.065875,0
5.503587,0.032144,2.050603,0.023032,0.052443,0.982342,0.98401,0
5.5362,0.032613,2.05461,0.107646,0.024279,0.929703,0.93623,0
5.574484,0.038284,2.050001,-0.082443,0.083521,0.836124,0.84432,0
5.605204,0.03072,2.043741,0.026184,0.108043,0.918737,0.925439,0
5.634091,0.028887,2.044404,0.133103,0.091776,0.850746,0.865972,0
5.666413,0.032322,2.039348,-0.015797,0.065068,0.731091,0.73415,0
5.698125,0.031712,2.028858,-0.043443,0.064826,0.856107,0.859656,0
5.727384,0.029259,2.018442,0.093827,0.074052,0.942132,0.949684,0
5.769185,0.0418,2.017972,0.095524,0.02258,0.926292,0.931478,0
5.798061,0.028877,2.005719,0.137224,-0.035943,0.618746,0.634799,0
5.834838,0.036777,1.996705,0.192017,0.099788,1.046678,1.068814,0
5.86837,0.033531,1.982831,-0.025671,0.08522,0.926292,0.930558,0
5.900668,0.032299,1.980538,-0.102437,0.036419,0.870241,0.877006,0
5.931781,0.031113,1.971204,0.192987,0.014082,0.933846,0.953683,0
5.961824,0.030043,1.961833,0.064976,-0.004342,0.966258,0.96845,0
5.993498,0.031674,1.951959,0.048732,0.04953,0.940182,0.942747,0
6.025665,0.032167,1.928394,0.18838,-0.106622,0.925073,0.950061,0
6.064213,0.038548,1.909753,0.107888,-0.067302,0.926048,0.934738,0
6.0919,0.027687,1.883269,0.203897,0.013111,0.945787,0.967605,0
6.119277,0.027377,1.842476,0.105949,0.064583,0.923611,0.931909,0
6.149853,0.030576,1.801342,-0.013823,0.038604,0.816872,0.8179,0
6.180753,0.0309,1.763582,-0.079481,0.135964,0.929947,0.943189,0
6.219715,0.038962,1.743181,-0.068127,-0.020987,0.879746,0.882629,0
6.254316,0.034602,1.745951,-0.00938,-0.069232,0.916056,0.918717,0
6.286166,0.031849,1.768528,-0.073063,-0.008202,0.925561,0.928476,0
6.320649,0.034483,1.805028,0.000485,0.003399,0.954804,0.95481,0
6.359722,0.039073,1.831348,0.036852,0.076722,0.982586,0.986265,0
6.395425,0.035703,1.851221,-0.081703,0.072595,0.903628,0.910214,0
6.423406,0.027981,1.871209,-0.055044,0.057542,0.995258,0.998438,0
6.45243,0.029024,1.8882,-0.030608,0.089833,0.971376,0.976001,0
6.482956,0.030527,1.900603,-0.013823,0.042489,0.955779,0.956823,0
6.510529,0.027573,1.909379,-0.013329,0.070653,0.99209,0.994692,0
6.537624,0.027095,1.91295,-0.017772,0.139363,0.999644,1.009469,0
6.564494,0.02687,1.909396,0.058914,0.044917,1.009636,1.01235,0
6.598513,0.03402,1.906641,-0.030361,0.000971,0.951149,0.951634,0
6.625438,0.026925,1.900896,-0.033323,0.035933,0.95651,0.957765,0
6.659314,0.033876,1.892902,0.102312,0.002428,0.999157,1.004385,0
6.686228,0.026914,1.879062,0.070309,0.001457,0.951392,0.953988,0
6.72057,0.034342,1.867532,-0.046652,-0.022675,0.976493,0.97787,0
6.75472,0.03415,1.845236,0.102555,0.161943,1.058132,1.075354,0
6.78183,0.02711,1.842258,-0.198456,-0.174889,1.055451,1.088094,0
6.82066,0.03883,1.839708,-0.03357,0.042246,0.967964,0.969467,0
6.851483,0.030823,1.842243,-0.044184,0.024765,1.007686,1.008959,0
6.877974,0.026491,1.856663,0.020608,-0.022675,1.023283,1.023742,0
6.909846,0.031872,1.87785,0.025214,0.054628,1.017678,1.019455,0
6.949013,0.039166,1.888274,-0.024684,0.135478,0.992334,1.001843,0
6.973024,0.024011,1.898973,-0.000247,0.082792,0.972107,0.975626,0
7.007127,0.034103,1.908116,-0.023203,0.092747,1.01256,1.017064,0
7.034024,0.026897,1.920249,0.002424,0.059727,0.967476,0.969321,0
7.068151,0.034127,1.932667,-0.017278,0.052929,0.960897,0.962508,0
7.095364,0.027213,1.951257,0.072734,0.042003,1.030107,1.033525,0
7.125883,0.030519,1.962846,0.021335,0.164613,1.048384,1.061443,0
7.154044,0.028162,1.97294,0.023032,0.13038,1.020115,1.028671,0
7.181094,0.02705,1.982985,-0.116506,0.084735,0.97235,0.982964,0
7.208474,0.027379,1.998975,-0.081209,0.148103,0.989409,1.003723,0
7.23883,0.030356,2.016534,-0.070101,0.212201,1.054233,1.077659,0
7.265702,0.026872,2.034355,0.035155,0.163642,1.038392,1.051795,0
7.292517,0.026815,2.042566,-0.04912,0.268043,0.970645,1.008172,0
7.327272,0.034755,2.03051,-0.056772,0.186465,0.951392,0.971154,0
7.354094,0.026822,2.022738,-0.012342,0.086434,1.0033,1.007092,0
7.382016,0.027923,2.021903,-0.044184,0.158544,0.974056,0.987863,0
7.415983,0.033967,2.034176,-0.022956,0.0539,0.915813,0.917685,0
7.4426,0.026617,2.072329,-0.048873,0.139363,1.164871,1.174195,0
7.476326,0.033725,2.109809,-0.033323,0.019909,1.144644,1.145302,0
7.502922,0.026597,2.14536,0.019396,0.069439,0.99014,0.992762,0
7.52954,0.026618,2.16745,0.089947,0.067496,1.004031,1.010309,0
7.55625,0.026711,2.201481,-0.01407,-0.063201,1.008905,1.01098,0
7.589878,0.033628,2.224519,0.055035,-0.082258,1.028888,1.033637,0
7.616514,0.026636,2.221455,0.06643,-0.003618,1.07909,1.081139,0
7.643734,0.027219,2.186742,-0.006418,-0.029671,0.957485,0.957966,0
7.676611,0.032877,2.154713,0.045337,0.056085,0.894611,0.897513,0
7.707488,0.030877,2.122923,0.032245,0.166313,0.91825,0.933746,0
7.735403,0.027915,2.08762,0.002909,0.290623,0.858057,0.905942,0
7.763629,0.028226,2.064492,-0.004443,0.301548,0.905821,0.954706,0
7.790554,0.026925,2.070342,-0.091329,0.40692,0.934577,1.023406,0
7.824402,0.033848,2.086773,-0.114532,0.401579,1.100291,1.17687,0
7.851174,0.026772,2.11364,-0.17476,0.266586,1.001107,1.05063,0
7.878047,0.026873,2.156833,-0.152051,0.21997,1.069342,1.10227,0
7.911847,0.0338,2.176948,0.04558,0.146161,0.953098,0.965317,0
7.938851,0.027004,2.145448,0.156135,0.03302,0.959922,0.973097,0
7.972674,0.033823,2.144439,0.10207,-0.035943,0.887057,0.893633,0
7.999404,0.02673,2.151578,0.079522,0.055842,0.972107,0.976951,0
8.033181,0.033777,2.153188,0.037822,0.059484,0.969182,0.971742,0
8.060642,0.027461,2.14821,-0.006171,0.096146,0.98551,0.990208,0
8.09439,0.033748,2.143314,0.003637,0.013596,0.951636,0.95174,0
8.121276,0.026886,2.136971,0.057217,0.055599,0.919956,0.923409,0
8.156378,0.035102,2.116965,-0.058747,0.167284,1.04351,1.058465,0
8.190295,0.033916,2.107502,-0.029127,0.084735,1.040342,1.044193,0
8.217726,0.027432,2.109346,-0.020734,0.063369,0.977712,0.979983,0
8.251498,0.033772,2.112288,0.007031,0.040304,0.88072,0.88167,0
8.278249,0.026751,2.119255,0.028366,0.052443,0.874141,0.876172,0
8.312048,0.033799,2.116026,-0.040481,0.093718,0.972107,0.977452,0
8.338946,0.026898,2.090981,-0.00543,0.100516,0.925317,0.930776,0
8.372721,0.033774,2.065445,-0.093798,-0.010614,0.988191,0.992689,0
8.399944,0.027224,2.021333,-0.07331,0.04176,1.040098,1.043515,0
8.431244,0.031299,1.996509,0.061581,-0.050657,1.0323,1.035375,0
8.458339,0.027095,2.008299,0.034912,0.124067,1.043023,1.050955,0
8.485198,0.026859,2.027684,-0.001728,0.152231,1.073241,1.083985,0
8.51199,0.026793,2.048113,0.098918,0.173111,0.995745,1.01551,0
8.538712,0.026722,2.076764,-0.049367,0.111199,1.149274,1.155696,0
8.565491,0.026779,2.080923,-0.168836,0.274356,1.108333,1.154201,0
8.599281,0.03379,2.082743,0.049217,0.232352,0.983804,1.012067,0
8.626096,0.026816,2.113308,0.067642,0.097117,1.033762,1.040515,0
8.659854,0.033758,2.12219,0.021093,0.169712,0.965527,0.980556,0
8.686617,0.026763,2.124862,0.030063,0.141791,0.928972,0.940212,0
8.71553,0.028912,2.131947,0.098675,0.191078,0.862199,0.888614,0
8.738886,0.023356,2.126344,0.033215,0.326313,0.931897,0.987935,0
8.773062,0.034176,2.104939,0.238567,0.056085,0.93214,0.963818,0
8.799887,0.026825,2.105568,0.104737,0.114113,1.037661,1.049158,0
8.83376,0.033872,2.10482,0.096251,0.017238,1.020359,1.025033,0
8.860554,0.026794,2.100193,0.085341,-0.036425,0.968451,0.972886,0
8.887266,0.026713,2.093793,0.025457,-0.002653,1.057401,1.05771,0
8.92099,0.033723,2.083458,-0.062449,0.091533,1.065443,1.071189,0
8.94774,0.02675,2.078555,0.014304,0.017967,1.063006,1.063254,0
8.974458,0.026718,2.074424,-0.013082,-0.040526,1.093955,1.094784,0
9.008438,0.03398,2.069274,-0.00543,0.045402,1.142207,1.143122,0
9.035046,0.026608,2.062213,0.031276,0.164371,1.235299,1.246579,1
9.068799,0.033752,2.063739,-0.167355,0.021366,1.261862,1.273091,0
9.095491,0.026693,2.071685,-0.158962,0.01214,1.208493,1.218963,0
9.122294,0.026803,2.069468,-0.067633,0.096146,1.165358,1.171272,0
9.15698,0.034686,2.063957,-0.138968,-0.083223,1.098585,1.110463,0
9.190961,0.033982,2.056758,-0.201665,-0.113135,1.013535,1.039578,0
9.218209,0.027248,2.056097,-0.025671,0.062398,0.935309,0.937739,0
9.248603,0.030394,2.053671,-0.012095,0.090804,0.813947,0.819086,0
9.275362,0.026759,2.045993,0.00994,0.062883,0.758141,0.760809,0
9.30199,0.026628,2.037593,-0.016291,0.018452,0.743519,0.743926,0
9.328702,0.026712,2.030912,0.108373,0.043217,0.725973,0.735288,0
9.36236,0.033658,2.033865,0.155893,0.015053,0.757166,0.773194,0
9.389043,0.026683,2.037512,0.128254,-0.013991,0.881208,0.890602,0
9.415185,0.026142,2.031601,0.027154,0.057785,0.899729,0.901991,0
9.441935,0.02675,2.024347,0.090917,0.046131,0.86951,0.875467,0
9.475765,0.03383,2.019594,0.136497,0.037876,0.859519,0.871113,0
9.502455,0.02669,2.013622,0.114919,0.016024,0.893149,0.900654,0
9.536158,0.033703,2.013878,0.168257,-0.0,0.946275,0.961117,0
9.562802,0.026644,2.015281,0.188623,0.016995,0.999401,1.017187,0
9.589469,0.026668,2.025901,0.197109,0.010926,1.114669,1.132015,0
9.623221,0.033751,2.046949,0.128011,-0.014956,1.197283,1.204199,1
9.649898,0.026677,2.050619,0.032488,0.140091,1.221409,1.229846,0
9.67662,0.026722,2.058373,0.042913,0.045159,1.169989,1.171646,0
9.710749,0.034129,2.063595,0.168985,0.112656,1.117106,1.135418,0
9.737768,0.027019,2.066785,0.08825,0.090804,1.180224,1.186997,0
9.771775,0.034008,2.057564,-0.153285,0.121153,1.212879,1.228516,0
9.798694,0.026919,2.04505,-0.195247,0.078665,1.062275,1.08293,0
9.832539,0.033845,2.038115,-0.028386,0.084006,0.973082,0.977113,0
9.859352,0.026813,2.03579,0.032245,0.172868,0.974787,0.990522,0
9.893106,0.033754,2.033716,0.008728,0.180152,0.920199,0.937709,0
9.919959,0.026853,2.035895,-0.078247,0.129166,0.892905,0.905586,0
9.946649,0.02669,2.042181,-0.041962,0.158301,0.801032,0.817601,0
9.980407,0.033758,2.038569,-0.006171,0.105858,0.759116,0.766486,0
10.007114,0.026706,2.038203,0.035155,0.058513,0.711351,0.714619,0
10.041194,0.03408,2.038824,0.05455,0.185494,0.777149,0.80084,0
10.06783,0.026636,2.035778,0.043883,0.150289,0.816628,0.831501,0
10.094548,0.026718,2.033828,0.105706,0.101002,0.817603,0.830572,0
10.12831,0.033762,2.030057,0.117829,0.112413,0.870485,0.885587,0
10.155644,0.027334,2.02381,0.157832,0.097117,0.940182,0.958272,0
10.182522,0.026878,2.022196,0.174561,0.065554,0.985997,1.003474,0
10.209583,0.027061,2.022042,0.171894,0.081336,1.100291,1.116604,0
10.243474,0.033891,2.019319,0.086311,0.131351,1.179493,1.189918,1
10.27038,0.026905,2.019955,0.049944,0.060698,1.173644,1.176273,0
10.30412,0.033741,2.017089,-0.031348,0.199575,1.205325,1.222138,0
10.330822,0.026702,2.011752,0.062066,0.186465,1.162434,1.178929,0
10.357796,0.026974,2.006792,0.065703,0.059484,1.183879,1.187192,0
10.391558,0.033762,2.001246,0.005819,0.015296,1.153417,1.153533,0
10.418598,0.02704,1.993031,-0.098981,0.007284,1.164384,1.168606,0
10.451161,0.032563,1.985547,-0.134772,0.000728,1.07251,1.080945,0
10.48489,0.033729,1.983059,-0.104905,-0.085635,0.994771,1.003946,0
10.511507,0.026617,1.980732,-0.057266,0.058513,0.950418,0.953938,0
10.53821,0.026703,1.975514,-0.067386,0.109499,0.924098,0.933,0
10.572112,0.033902,1.971671,-0.079234,0.012382,0.846847,0.850635,0
10.599975,0.027863,1.967084,-0.072817,0.072109,0.799569,0.80611,0
10.626608,0.026633,1.952281,-0.006665,0.228468,0.838073,0.868682,0
10.653259,0.026651,1.926156,0.017456,0.045888,0.813216,0.814697,0
10.687183,0.033924,1.919176,0.014547,-0.008202,0.885351,0.885508,0
10.714185,0.027002,1.920381,0.014304,0.050744,0.851233,0.852864,0
10.747977,0.033792,1.926714,0.05746,0.02525,0.885351,0.887573,0
10.774686,0.02671,1.938535,0.06934,0.080122,0.897048,0.903284,0
10.801613,0.026927,1.948425,0.091645,0.209287,0.912157,0.940335,0
10.835342,0.033729,1.95739,0.137224,0.117269,0.941157,0.958311,0
10.862186,0.026845,1.967041,0.146195,0.131594,0.955292,0.975332,0
10.895931,0.033745,1.97548,0.121223,0.177724,1.099316,1.120169,0
10.922681,0.02675,1.976413,0.052126,0.2139,1.236518,1.255964,1
10.949738,0.027057,1.957916,0.021335,0.145918,1.200451,1.209475,0
10.980136,0.030398,1.959111,0.049217,0.103187,1.194115,1.199575,0
11.00692,0.026784,1.975163,-0.007652,0.126738,1.341795,1.347789,0
11.033644,0.026724,1.986692,-0.242639,0.184765,1.3184,1.353215,0
11.06042,0.026776,1.993661,-0.231532,0.196662,1.055695,1.098533,0
11.094195,0.033776,1.996014,-0.001728,0.220213,0.994527,1.018617,0
11.12104,0.026845,2.002593,0.061581,0.143248,0.864393,0.878343,0
11.154872,0.033832,2.01796,-0.035544,0.177724,0.8583,0.877228,0
11.181872,0.027,2.034622,-0.084418,0.196662,0.826863,0.854111,0
11.215933,0.034061,2.043496,0.000727,0.164613,0.78909,0.806078,0
11.242813,0.02688,2.05466,0.03564,0.112899,0.731091,0.740614,0
11.276608,0.033795,2.062842,0.065703,0.174568,0.794452,0.816054,0
11.303369,0.026761,2.072108,0.06837,0.179909,0.884376,0.905076,0
11.330122,0.026753,2.089803,0.039034,0.148346,0.913863,0.926648,0
11.364012,0.03389,2.098901,0.069824,0.181609,0.926292,0.946506,0
11.390863,0.026851,2.100348,0.062793,0.188164,0.988191,1.007904,0
11.42483,0.033967,2.098861,0.057702,0.139849,0.955048,0.966956,0
11.452575,0.027746,2.098048,0.065945,0.143976,0.965771,0.978668,0
11.48012,0.027545,2.091026,0.061339,0.165827,0.989897,1.005563,0
11.513971,0.033851,2.082081,0.104009,0.143248,0.988434,1.004162,0
11.540674,0.026703,2.061363,0.097948,0.109257,0.985754,0.996615,0
11.574592,0.033919,2.045028,0.03564,0.112656,1.083964,1.090385,0
11.601217,0.026624,2.030843,0.02085,0.141548,1.105165,1.114388,0
11.62794,0.026723,2.009752,0.11395,0.202003,1.122224,1.145939,0
11.661945,0.034005,2.001997,0.110555,0.094446,1.246509,1.254961,1
11.688719,0.026774,1.997287,-0.049861,0.17651,1.23993,1.253422,0
11.722904,0.034185,1.991752,-0.11157,0.073081,1.112476,1.120443,0
11.749821,0.026917,1.985316,-0.158468,-0.025329,1.052527,1.064691,0
11.783703,0.033881,1.977974,-0.173772,0.029378,1.011829,1.027063,0
11.81064,0.026937,1.967192,-0.107867,0.072595,0.979418,0.98801,0
11.844396,0.033756,1.959901,-0.163652,0.11387,0.994771,1.014552,0
11.871263,0.026867,1.952208,-0.167355,0.105858,0.881208,0.903184,0
11.905167,0.033905,1.949558,-0.030854,0.138392,0.886813,0.898076,0
11.931996,0.026829,1.949061,-0.011108,0.161457,0.902166,0.916567,0
11.958743,0.026747,1.951626,-0.061215,0.121639,0.995502,1.004772,0
11.992694,0.033951,1.955511,-0.08812,0.096874,0.953098,0.962053,0
12.019442,0.026748,1.965031,-0.079728,0.134507,0.975518,0.98797,0
12.05338,0.033938,1.975529,-0.064918,0.14519,0.960653,0.973729,0
12.080119,0.026739,1.989357,-0.074051,0.150774,0.960166,0.974748,0
12.114101,0.033982,1.999468,-0.042209,0.112413,0.956998,0.964501,0
12.140842,0.026741,2.017936,0.07831,0.06871,0.945544,0.951266,0
12.175127,0.034285,2.033401,-0.032829,0.148832,1.082989,1.09366,0
12.201957,0.02683,2.050667,-0.104905,0.102458,1.101266,1.110986,0
12.236374,0.034417,2.059978,-0.145386,0.119697,0.986972,1.004778,0
12.263208,0.026833,2.061851,-0.052576,0.132079,0.915813,0.926781,0
12.29731,0.034102,2.06402,0.056975,0.094689,0.869267,0.876263,0
12.324142,0.026832,2.064768,0.065218,0.104401,0.858788,0.867565,0
12.358133,0.033991,2.066164,0.098191,0.098088,0.899241,0.909889,0
12.384878,0.026744,2.06819,0.036124,0.120668,1.043754,1.051326,0
12.4187,0.033822,2.067989,-0.140449,0.094204,1.110283,1.123089,0
12.445316,0.026616,2.065125,-0.177228,0.07478,1.001107,1.01942,0
12.472475,0.027159,2.061723,-0.074051,0.086677,0.962846,0.969572,0
12.502892,0.030417,2.061249,0.00194,0.13912,0.967476,0.97743,0
12.529649,0.026757,2.063721,0.011637,0.11994,0.939695,0.94739,0
12.556282,0.026633,2.066376,0.050914,0.184765,0.96772,0.986515,0
12.582893,0.026611,2.067902,0.028609,0.127223,1.02572,1.033976,0
12.616574,0.033682,2.068183,-0.010861,0.119697,1.051064,1.057914,0
12.643264,0.02669,2.064626,-0.060968,0.10173,1.039367,1.046112,0
12.670189,0.026925,2.061,-0.000247,0.058999,0.979905,0.98168,0
12.696878,0.026689,2.060136,0.053096,0.081336,0.938964,0.943975,0
12.724298,0.02742,2.06741,0.095039,0.083278,0.949443,0.957815,0
12.758063,0.033765,2.074307,0.035155,0.129651,0.978687,0.987863,0
12.784786,0.026722,2.08011,0.001212,0.104158,1.003056,1.00845,0
12.818494,0.033708,2.079684,-0.060475,0.083278,1.012317,1.017535,0
12.84521,0.026716,2.076752,-0.03826,0.062398,1.012073,1.014716,0
12.87192,0.02671,2.073072,-0.012342,0.05827,0.992334,0.99412,0
12.905529,0.033609,2.070442,0.032245,0.088862,0.966014,0.970629,0
12.932221,0.026692,2.068939,0.043155,0.081821,0.969426,0.97383,0
12.958992,0.026771,2.070365,0.051156,0.101973,0.964552,0.971276,0
12.992614,0.033621,2.070454,0.027881,0.09299,0.970645,0.975487,0
13.01929,0.026676,2.070505,0.016001,0.053414,1.01451,1.016041,0
13.045929,0.026639,2.069147,-0.015057,0.077694,1.028888,1.031927,0
13.079726,0.033797,2.069672,0.000485,0.078908,1.018653,1.021705,0
13.106347,0.026621,2.068991,0.014304,0.089833,0.936527,0.940934,0
13.1333,0.026953,2.067583,0.03176,0.073809,0.975762,0.979065,0
13.167248,0.033947,2.067196,0.024729,0.077936,0.979418,0.982825,0
13.193939,0.026691,2.067404,0.028366,0.09129,0.981611,0.986255,0
13.227873,0.033935,2.068779,0.030791,0.083035,0.981124,0.985112,0
13.254595,0.026721,2.070858,0.023517,0.073081,0.976981,0.979992,0
13.288379,0.033784,2.073123,0.069097,0.07915,0.985023,0.99061,0
13.315079,0.0267,2.075061,0.00994,0.060941,1.006468,1.00836,0
13.341819,0.02674,2.075305,0.005334,0.072352,1.006712,1.009322,0
13.375473,0.033654,2.0748,-0.000247,0.065797,0.999157,1.001321,0
13.40221,0.026737,2.074068,0.015274,0.084735,0.990871,0.994605,0
13.429058,0.026848,2.074274,0.021578,0.083035,0.975518,0.979284,0
13.463124,0.034066,2.074961,0.013577,0.089833,0.999401,1.003522,0
13.489882,0.026757,2.074867,0.006304,0.098574,0.989897,0.994812,0
13.523133,0.033252,2.074939,0.017941,0.103187,0.985023,0.990575,0
13.550031,0.026898,2.075465,0.008728,0.095175,0.989653,0.994257,0
13.576783,0.026752,2.076307,0.008486,0.084492,0.936527,0.940369,0
13.610473,0.03369,2.076913,0.003879,0.08959,0.99672,1.000746,0
13.637208,0.026734,2.077195,0.012365,0.08522,0.983561,0.987323,0
13.663942,0.026734,2.077833,0.021578,0.08959,0.99209,0.996361,0
13.697692,0.033751,2.078468,0.015759,0.091533,0.992334,0.996671,0
13.725899,0.028207,2.078554,0.020608,0.089348,0.99209,0.996318,0
13.756158,0.030258,2.078839,0.009213,0.075508,0.992821,0.995731,0
13.782942,0.026784,2.07934,0.01285,0.077936,0.988922,0.992071,0
13.809651,0.026709,2.079514,0.015517,0.083521,0.989165,0.992807,0
13.843536,0.033885,2.079028,-0.002468,0.071381,0.993065,0.99563,0
13.870254,0.026718,2.078212,0.002667,0.084249,0.979661,0.983281,0
13.904067,0.033813,2.077767,0.001697,0.089348,0.986485,0.990524,0
13.930808,0.026741,2.077548,0.004849,0.092504,0.984048,0.988398,0
13.957541,0.026733,2.077357,-0.0,0.098331,0.988678,0.993556,0
13.991299,0.033758,2.077623,0.016971,0.103187,0.985997,0.991527,0
14.018018,0.026718,2.079622,0.011395,0.125281,0.999157,1.007045,0
14.051836,0.033818,2.082259,0.01285,0.153202,1.001838,1.013565,0
14.078737,0.026901,2.085801,0.032003,0.148589,0.998426,1.009929,0
14.105616,0.026879,2.093732,0.033942,0.119211,0.999401,1.007058,0
14.13947,0.033854,2.101226,0.007031,0.13305,1.008174,1.01694,0
14.16645,0.026981,2.11233,0.016729,0.145676,0.999888,1.010583,0
14.200352,0.033902,2.122802,0.024002,0.130137,0.999157,1.007882,0
14.227409,0.027056,2.136169,0.012607,0.140334,0.994039,1.003976,0
14.261415,0.034007,2.146534,0.029094,0.140091,0.99014,1.000425,0
14.288269,0.026853,2.160937,0.023275,0.137421,0.98088,0.990733,0
14.322129,0.03386,2.172156,0.025942,0.137906,0.981611,0.99159,0
14.348858,0.026729,2.187361,0.006788,0.101487,0.989653,0.994866,0
14.383982,0.035124,2.201331,0.012365,0.099788,0.994283,0.999355,0
14.419244,0.035262,2.211806,0.020365,0.096874,0.99867,1.003564,0
14.447742,0.028498,2.226846,0.019638,0.079393,0.992821,0.996184,0
14.479549,0.031807,2.24569,0.027154,0.100273,0.990871,0.996302,0
14.518038,0.038489,2.261308,0.024487,0.099788,1.000376,1.005638,0
14.550563,0.032525,2.282845,-0.010367,0.093232,1.00793,1.012286,0
14.585304,0.034742,2.299103,-0.013823,0.099545,0.998913,1.003956,0
14.612745,0.02744,2.321027,-0.001481,0.104886,0.98551,0.991077,0
14.643662,0.030917,2.341179,0.00897,0.087891,0.975275,0.979268,0
14.671599,0.027937,2.362611,0.007516,0.055599,0.997695,0.999271,0
14.699917,0.028318,2.392452,-0.015797,0.056085,1.008174,1.009856,0
14.733275,0.033358,2.426911,-0.013329,0.067011,0.997939,1.000275,0
14.769071,0.035796,2.456357,0.008728,0.069924,0.983073,0.985595,0
14.800597,0.031527,2.482564,0.031276,0.07648,0.971132,0.974641,0
14.828753,0.028155,2.509608,0.030063,0.062883,0.970401,0.972901,0
14.856681,0.027928,2.543012,0.020123,0.064097,0.990871,0.993146,0
14.888419,0.031738,2.58127,-0.007405,0.069924,1.001838,1.004302,0
14.923332,0.034913,2.621231,-0.02419,0.047345,1.003544,1.004951,0
14.959077,0.035745,2.650979,-0.032089,0.044674,0.992334,0.993857,0
14.988186,0.029109,2.673682,-0.046899,0.051715,1.010123,1.012533,0
15.01282,0.024634,2.707452,-0.035544,0.063854,0.983561,0.986272,0
15.044252,0.031432,2.735311,-0.003456,0.070653,0.962846,0.965441,0
15.072579,0.028327,2.7748,0.00194,0.038361,0.957972,0.958742,0
15.107568,0.034989,2.814654,-0.015057,0.057785,0.988191,0.989993,0
15.142591,0.035022,2.848586,-0.035791,0.094204,1.023039,1.027991,0
15.174728,0.032138,2.872123,-0.087873,0.095903,1.026451,1.03466,0
15.202624,0.027896,2.903624,-0.108114,0.110713,0.937014,0.949706,0
15.238195,0.035571,2.931519,-0.021475,0.080607,0.956754,0.960384,0
15.27344,0.035245,2.952698,-0.001481,0.070167,0.983804,0.986304,0
15.30494,0.0315,2.966583,-0.014563,0.071867,1.010855,1.013511,0
15.333107,0.028168,2.980072,-0.028386,0.054871,1.016703,1.018578,0
15.361196,0.028089,2.996258,-0.047886,0.044917,1.012317,1.014444,0
15.392723,0.031527,3.004281,-0.067633,0.018938,0.97625,0.978773,0
15.420644,0.027921,3.014886,-0.027646,0.023551,0.994527,0.99519,0
15.457094,0.03645,3.018066,0.017941,0.109014,0.950174,0.956575,0
15.488968,0.031873,3.021964,0.029821,0.108528,0.976006,0.982474,0
15.524322,0.035354,3.024268,-0.007158,0.120911,1.024258,1.031395,0
15.557339,0.033017,3.021127,-0.015551,0.1078,1.029863,1.035606,0
15.585232,0.027893,3.015755,-0.000741,0.044917,1.009392,1.010392,0
15.61297,0.027738,3.008998,0.026911,0.026464,0.994283,0.994999,0
15.644257,0.031286,3.001658,0.02085,0.030592,1.00525,1.005931,0
15.671911,0.027654,2.993149,0.033942,0.046616,1.007443,1.009092,0
15.699838,0.027927,2.987906,0.020123,0.081578,0.996476,1.000013,0
15.736404,0.036566,2.976912,0.048004,0.099059,0.956754,0.963065,0
15.761792,0.025388,2.966068,0.077583,0.101973,0.982342,0.990663,0
15.793087,0.031295,2.954226,0.065945,0.094204,0.985754,0.992438,0
15.821576,0.028489,2.943759,0.025942,0.082549,0.987216,0.991001,0
15.85428,0.032704,2.931057,0.014789,0.090076,1.001107,1.00526,0
15.889034,0.034753,2.914358,0.013819,0.072352,1.00135,1.004056,0
15.923783,0.034749,2.894578,-0.001728,0.067254,0.983561,0.985859,0
15.958337,0.034555,2.873552,0.03176,0.099059,0.95846,0.964088,0
15.991999,0.033661,2.854067,0.035882,0.113384,0.966989,0.974275,0
16.018775,0.026776,2.832267,0.034912,0.120911,0.979418,0.98747,0
16.045448,0.026673,2.806698,0.042428,0.116055,0.998426,1.006043,0
16.079144,0.033695,2.787046,0.041458,0.078422,0.999401,1.00333,0
16.105872,0.026728,2.767013,-0.005924,0.087405,0.988191,0.992066,0
16.132622,0.02675,2.740781,0.027396,0.129166,1.010611,1.0192,0
16.167662,0.035041,2.71933,0.038791,0.171654,0.981124,0.996781,0
16.201881,0.034219,2.705034,0.024729,0.140577,0.991602,1.001823,0
16.228899,0.027018,2.693379,0.006546,0.178695,0.997451,1.013353,0
16.25554,0.02664,2.683043,0.006546,0.155144,0.986485,0.998632,0
16.282238,0.026698,2.674376,-0.001975,0.110956,1.055695,1.061512,0
16.308892,0.026654,2.668301,0.015517,0.112899,0.974056,0.9807,0
16.342654,0.033762,2.661939,0.050914,0.123581,0.961628,0.970872,0
16.369304,0.02665,2.653816,0.04558,0.105615,0.974787,0.981551,0
16.395927,0.026623,2.647263,0.027639,0.107314,0.974056,0.98034,0
16.429615,0.033687,2.640798,-0.005677,0.100031,0.996476,1.001501,0
16.456275,0.026661,2.634794,0.011153,0.089348,0.993065,0.997138,0
16.482989,0.026713,2.630716,0.013819,0.102216,1.05472,1.059751,0
16.516975,0.033987,2.627899,0.007031,0.100516,1.000619,1.00568,0
16.551273,0.034297,2.625239,0.001455,0.099059,1.004275,1.009149,0
16.578372,0.0271,2.623852,0.023032,0.078908,1.058132,1.06132,0
16.612711,0.034339,2.621206,0.007516,0.083035,0.998913,1.002387,0
16.639957,0.027245,2.618524,0.01091,0.070653,1.005006,1.007545,0
16.670406,0.03045,2.614812,-0.001481,0.053414,0.991359,0.992798,0
16.697075,0.026669,2.610367,0.005819,0.117997,0.984048,0.991114,0
16.724806,0.027731,2.605617,0.016001,0.059484,0.989165,0.991082,0
16.751526,0.02672,2.599906,0.002667,0.083278,0.975275,0.978827,0
16.778352,0.026827,2.595822,0.007273,0.084006,0.998182,1.001737,0
16.809447,0.031095,2.591136,0.018668,0.104158,0.991602,0.997233,0
16.836036,0.026589,2.58752,0.038791,0.091776,0.970645,0.975745,0
16.862724,0.026688,2.5854,0.032488,0.054143,0.976006,0.978046,0
16.890298,0.027574,2.583447,0.018668,0.040789,0.983317,0.984339,0
16.916956,0.026658,2.579928,0.01091,0.056328,0.983073,0.984746,0
16.943637,0.02668,2.575646,0.013819,0.074295,1.000376,1.003226,0
16.977326,0.033689,2.572043,0.023032,0.057299,0.986241,0.988173,0
17.003984,0.026658,2.568951,0.018183,0.066282,0.998913,1.001275,0
17.030779,0.026795,2.565021,0.026911,0.069439,0.985997,0.988806,0
17.064455,0.033675,2.560951,0.020365,0.080122,0.994039,0.997471,0
17.091117,0.026662,2.557304,0.011153,0.050501,1.051064,1.052336,0
17.117797,0.02668,2.554637,-0.000987,0.055357,1.000863,1.002393,0
17.152992,0.035195,2.552031,0.017699,0.053414,0.936283,0.937973,0
17.183481,0.030489,2.549381,0.030791,0.050015,0.979418,0.981177,0
17.210505,0.027024,2.546449,0.034912,0.044674,0.974787,0.976435,0
17.237437,0.026932,2.542636,0.035882,0.05997,0.990871,0.993333,0
17.271186,0.033749,2.538863,0.019396,0.056085,0.99867,1.000431,0
17.297854,0.026668,2.535724,0.019153,0.075751,0.996964,1.000021,0
17.324494,0.02664,2.532154,0.013335,0.060213,0.975762,0.977709,0
17.35837,0.033876,2.527979,0.024245,0.056085,0.961872,0.96381,0
17.385137,0.026767,2.523977,0.047035,0.02525,0.948712,0.950213,0
17.418831,0.033694,2.520984,0.040731,0.022094,0.960166,0.961283,0
17.445542,0.026711,2.518607,0.031518,0.02088,0.978199,0.978929,0
17.472445,0.026903,2.516858,0.035155,0.016995,0.994283,0.99505,0
17.506196,0.03375,2.514975,0.050671,0.036904,0.999888,1.001851,0
17.533922,0.027727,2.514444,0.04558,0.036419,1.007686,1.009374,0
17.560784,0.026862,2.513438,0.019881,0.030835,1.005006,1.005675,0
17.587726,0.026942,2.512742,0.029336,0.030835,0.995745,0.996655,0
17.621417,0.033691,2.512697,0.025457,0.051958,0.976493,0.978206,0
17.648141,0.026724,2.512444,0.020365,0.073323,0.964065,0.967064,0
17.674807,0.026666,2.513673,0.030548,0.084006,0.969913,0.974024,0
17.708544,0.033737,2.514067,0.006788,0.040546,0.96114,0.962019,0
17.736247,0.027703,2.515417,0.047762,0.073566,0.955779,0.959795,0
17.76637,0.030123,2.518608,0.096736,0.088862,0.951149,0.960176,0
17.793164,0.026793,2.523261,0.101585,0.106829,0.982098,0.993101,0
17.819951,0.026788,2.528249,0.112252,0.098088,0.997451,1.008529,0
17.846681,0.02673,2.534375,0.063278,0.125524,1.065199,1.074434,0
17.880435,0.033754,2.5368,0.042186,0.063854,1.048871,1.05166,0
17.907058,0.026623,2.535637,0.06546,0.095417,0.996964,1.003657,0
17.933836,0.026778,2.535845,0.117344,0.069681,0.945544,0.955342,0
17.967628,0.033792,2.536323,0.120496,0.067739,0.932384,0.942575,0
17.994446,0.026818,2.535696,0.120738,0.069924,0.941645,0.951925,0
18.028365,0.033919,2.53601,0.130921,0.073809,0.946762,0.958617,0
18.055384,0.027019,2.537717,0.129224,0.016024,0.968208,0.976925,0
18.089069,0.033685,2.536709,0.130678,0.114113,1.000376,1.015308,0
18.11593,0.026861,2.534643,0.129709,0.09129,1.049115,1.061037,0
18.142591,0.026661,2.529548,0.150559,0.141062,1.022552,1.043158,0
18.177313,0.034722,2.524806,0.159772,0.129166,1.052039,1.071913,0
18.211401,0.034087,2.520732,0.11298,0.113627,1.066174,1.078147,0
18.239504,0.028103,2.516355,0.107161,0.123824,1.080308,1.092649,0
18.266308,0.026805,2.51296,0.161227,0.13305,1.106384,1.125958,0
18.300178,0.033869,2.512172,0.112495,0.115812,1.125392,1.136915,0
18.327051,0.026873,2.514982,0.038306,0.116298,1.218484,1.224621,1
18.360956,0.033906,2.519027,-0.166861,0.029621,1.312307,1.323205,0
18.3876,0.026644,2.518396,-0.260165,0.018209,1.13051,1.160202,0
18.414309,0.026709,2.511813,-0.143412,0.009954,0.947006,0.957855,0
18.448079,0.03377,2.50789,-0.019006,0.042003,0.870485,0.871705,0
18.47532,0.027241,2.50228,-0.001728,0.054143,0.935065,0.936633,0
18.509167,0.033848,2.496452,-0.05776,0.024765,0.920443,0.922586,0
18.536907,0.02774,2.489403,-0.080962,-0.002171,0.944569,0.948035,0
18.56725,0.030343,2.482083,-0.083184,0.003399,0.915569,0.919346,0
18.594083,0.026833,2.477112,-0.020241,0.030349,0.87804,0.878797,0
18.620794,0.026711,2.472785,0.005334,0.04953,0.862443,0.863881,0
18.654554,0.03376,2.471138,0.035397,0.085706,0.847821,0.852877,0
18.681361,0.026807,2.472421,0.049459,0.106343,0.862443,0.870381,0
18.707994,0.026633,2.474225,0.052126,0.091047,0.872922,0.879204,0
18.743575,0.035582,2.476935,0.045095,0.079636,0.892662,0.897341,0
18.770339,0.026763,2.480367,0.066188,0.086434,0.893393,0.900001,0
18.797118,0.026779,2.486121,0.092857,0.084977,0.920443,0.92901,0
18.830833,0.033715,2.491189,0.08025,0.042731,0.982342,0.98654,0
18.857591,0.026758,2.496349,0.070067,0.036176,1.012804,1.015869,0
18.884355,0.026764,2.504458,0.088493,0.049287,1.115888,1.120476,0
18.918113,0.033758,2.510959,0.0337,0.045402,1.11077,1.112208,0
18.944868,0.026755,2.51855,0.053096,0.034234,1.091031,1.092858,0
18.978652,0.033784,2.525385,0.058429,0.058756,1.101997,1.105108,0
19.005416,0.026764,2.531886,-0.091823,0.114113,1.223846,1.232579,1
19.032113,0.026697,2.534731,-0.183893,0.106829,1.214341,1.232824,0
19.066025,0.033911,2.534127,-0.139709,0.088619,1.145375,1.157262,0
19.092855,0.026831,2.535095,-0.10219,0.136692,0.965771,0.980735,0
19.126832,0.033977,2.538729,0.044368,0.153202,0.865611,0.880183,0
19.154457,0.027625,2.550055,0.025699,0.133779,0.87609,0.886618,0
19.184775,0.030318,2.558271,-0.018019,0.124067,0.903384,0.912042,0
19.211611,0.026836,2.564647,-0.036532,0.134993,0.897535,0.908365,0
19.23862,0.027009,2.570945,-0.027399,0.146404,0.889981,0.902358,0
19.272332,0.033712,2.575021,-0.035791,0.122125,0.881939,0.891073,0
19.299153,0.026821,2.578295,-0.034557,0.112656,0.901678,0.909346,0
19.325895,0.026742,2.57846,-0.025671,0.124553,0.930678,0.939327,0
19.359849,0.033954,2.576015,0.012122,0.115326,0.941645,0.948758,0
19.386734,0.026884,2.571538,0.007516,0.09299,1.005006,1.009327,0
19.420594,0.03386,2.565155,-0.047392,0.090319,1.060812,1.065705,0
19.44738,0.026786,2.556383,-0.056525,0.103672,1.053501,1.060098,0
19.481358,0.033978,2.548049,-0.028633,0.144462,1.023527,1.034068,0
19.508219,0.026862,2.537873,0.021335,0.145918,0.99014,1.001062,0
19.542003,0.033783,2.527887,0.030548,0.13475,0.984779,0.994425,0
19.569561,0.027558,2.519609,0.036367,0.118968,0.982586,0.99043,0
19.59679,0.027229,2.512313,0.03176,0.134507,0.990384,0.999981,0
19.623582,0.026792,2.502721,0.034427,0.139849,0.985754,0.996219,0
19.657281,0.0337,2.494606,0.018426,0.140091,0.999157,1.009099,0
19.683993,0.026712,2.487438,0.073219,0.143733,0.996476,1.009448,0
19.71069,0.026697,2.482877,0.10207,0.136692,0.999401,1.013856,0
19.742166,0.031476,2.480317,0.057702,0.136935,1.016947,1.027746,0
19.768842,0.026676,2.476723,0.013335,0.131351,1.019384,1.027898,0
19.79554,0.026698,2.468934,-0.045171,0.104158,0.966502,0.973147,0
19.829183,0.033643,2.463499,-0.034804,0.099788,0.943107,0.94901,0
19.855839,0.026656,2.459612,-0.016044,0.121639,0.914351,0.922546,0
19.882547,0.026708,2.451476,0.032245,0.106343,0.88462,0.891572,0
19.916218,0.033671,2.445498,0.050429,0.079393,0.919712,0.924509,0
19.94292,0.026702,2.443799,0.029094,0.064097,1.001594,1.004064,0
19.969617,0.026697,2.443491,-0.064918,0.128194,1.071779,1.081369,0
20.003252,0.033635,2.442786,-0.09207,0.093718,1.0613,1.0694,0
20.0299,0.026649,2.443032,-0.069361,0.054871,1.023527,1.027341,0
20.056539,0.026639,2.441385,-0.037519,0.027678,0.999157,1.000244,0
20.090232,0.033693,2.440325,-0.047639,0.062398,1.022796,1.025804,0
20.11708,0.026847,2.44003,-0.083184,0.060941,0.991602,0.99695,0
20.143816,0.026736,2.43954,-0.026905,0.090804,0.936283,0.941061,0
20.170566,0.02675,2.441292,0.055278,0.101002,0.86488,0.872511,0
20.197292,0.026726,2.446032,0.143528,0.101973,0.882183,0.89958,0
20.224258,0.026966,2.454252,0.038791,0.120425,1.004275,1.012213,0
20.258063,0.033805,2.458629,0.012607,0.051715,1.011098,1.012498,0
20.284866,0.026803,2.464483,-0.03431,0.059484,1.063249,1.065465,0
20.318542,0.033676,2.467501,-0.100462,0.100273,1.022552,1.032357,0
20.345246,0.026704,2.468365,-0.00543,0.114598,0.928972,0.93603,0
20.371946,0.0267,2.468575,0.041458,0.119454,0.883888,0.892887,0
20.40568,0.033734,2.470411,0.059884,0.095417,0.91362,0.920539,0
20.432353,0.026673,2.472981,0.037579,0.064097,0.968695,0.97154,0
20.45901,0.026656,2.476209,0.015274,0.055114,1.021333,1.022933,0
20.492764,0.033754,2.479598,-0.019253,0.03132,1.077627,1.078254,0
20.519425,0.026662,2.482961,-0.030608,0.049772,1.058375,1.059987,0
20.546125,0.0267,2.487705,0.04267,0.115812,0.936771,0.944866,0
20.581231,0.035106,2.491164,0.066673,0.154659,0.935552,0.950591,0
20.613516,0.032284,2.49381,0.050186,0.105129,0.954317,0.961401,0
20.64734,0.033824,2.495366,0.017941,0.097117,0.973082,0.97808,0
20.674196,0.026855,2.496367,0.017214,0.076237,0.994283,0.99735,0
20.708019,0.033824,2.496095,0.009213,0.072352,0.999157,1.001816,0
20.735576,0.027557,2.496412,0.01188,0.090076,0.992334,0.996484,0
20.762467,0.026891,2.496476,0.032973,0.090319,0.973082,0.97782,0
20.789266,0.026799,2.498416,0.047519,0.104158,0.970645,0.977373,0
20.822999,0.033733,2.499691,0.05552,0.093718,0.975275,0.981339,0
20.849797,0.026799,2.499964,0.0337,0.093961,0.968695,0.973825,0
20.877436,0.027639,2.49757,-0.021228,0.055357,0.989897,0.99167,0
20.909215,0.031779,2.495924,-0.010367,0.046859,0.999157,1.000309,0
20.944416,0.035201,2.493682,0.010425,0.077936,0.998913,1.002003,0
20.973166,0.028749,2.491126,0.015517,0.067982,0.991602,0.994051,0
21.004836,0.031671,2.489171,0.020365,0.071138,0.997939,1.000678,0
21.033347,0.028511,2.486745,0.024245,0.075266,0.996964,1.000095,0
21.064965,0.031619,2.48459,0.018911,0.079393,0.996233,0.99957,0
21.093131,0.028166,2.483378,0.039761,0.082549,0.989897,0.994128,0
21.121318,0.028187,2.482982,0.024245,0.128923,0.9743,0.983092,0
21.153687,0.032369,2.482684,-0.035791,0.048073,0.979174,0.981006,0
21.182181,0.028495,2.484345,-0.013576,0.098088,0.995502,1.000414,0
21.216116,0.033935,2.487586,0.028124,0.082307,0.984779,0.988613,0
21.247571,0.031455,2.490251,0.036609,0.105858,0.978443,0.984833,0
21.275701,0.02813,2.490724,0.036124,0.100031,0.985266,0.99099,0
21.303557,0.027856,2.490371,0.038064,0.110471,0.976006,0.982975,0
21.335129,0.031572,2.488076,0.031033,0.118968,0.970645,0.9784,0
21.362895,0.027766,2.483903,0.03564,0.101002,0.942132,0.948201,0
21.398536,0.035641,2.480325,0.03273,0.084492,0.972838,0.977048,0
21.430155,0.031619,2.477336,0.02279,0.094932,0.983317,0.988151,0
21.458854,0.028699,2.476905,0.007758,0.115569,0.989409,0.996166,0
21.494253,0.035399,2.478513,0.028366,0.072838,0.994039,0.997108,0
21.52609,0.031837,2.479808,-0.001234,0.120182,0.992334,0.999586,0
21.554506,0.028416,2.4815,0.030791,0.069196,0.994039,0.996921,0
21.589924,0.035418,2.483009,0.024002,0.067496,0.999401,1.001965,0
21.623207,0.033283,2.484551,0.028609,0.072109,0.999157,1.002164,0
21.651828,0.028621,2.484817,0.009698,0.077936,0.989409,0.992521,0
21.684075,0.032247,2.484855,0.030548,0.075751,0.96772,0.971161,0
21.712014,0.027939,2.485429,0.033942,0.082549,0.967233,0.971342,0
21.746158,0.034144,2.485238,0.027154,0.09129,1.05009,1.0544,0
21.780508,0.034349,2.485044,0.028124,0.080364,0.99867,1.002293,0
21.808118,0.027611,2.485297,0.013577,0.081578,1.003056,1.00646,0
21.839716,0.031598,2.485198,0.037579,0.094204,0.997939,1.003079,0
21.867292,0.027576,2.484956,0.019153,0.080364,0.988922,0.992367,0
21.895169,0.027877,2.484371,0.027154,0.083278,0.980392,0.984298,0
21.926649,0.03148,2.483613,0.024729,0.085463,0.970401,0.974471,0
21.954535,0.027886,2.483216,0.012122,0.085463,0.989653,0.99341,0
21.982517,0.027982,2.482614,0.018183,0.088619,0.997451,1.001545,0
22.013918,0.031401,2.48296,0.025214,0.07478,0.994771,0.997896,0
22.041775,0.027857,2.483117,0.013577,0.081821,0.998426,1.001865,0
22.076821,0.035046,2.483666,0.018668,0.082307,0.994771,0.998344,0
22.11183,0.035009,2.484544,0.023517,0.083521,0.985997,0.989808,0
22.146849,0.035019,2.484866,0.011637,0.084249,0.990628,0.994272,0
22.178301,0.031452,2.484997,0.02279,0.080122,0.980149,0.983682,0
22.206298,0.027997,2.485218,0.020608,0.069439,0.976006,0.97869,0
22.234326,0.028028,2.485038,0.021093,0.068468,0.977712,0.980333,0
22.265799,0.031473,2.484502,0.018668,0.071381,0.991115,0.993858,0
22.29375,0.027951,2.483389,0.009698,0.072838,0.996233,0.998939,0
22.321627,0.027877,2.481418,0.007516,0.070167,0.995014,0.997514,0
22.352988,0.031361,2.479637,0.01091,0.080364,0.993552,0.996857,0
22.380899,0.027912,2.478146,0.016486,0.092018,0.989165,0.993573,0
22.408852,0.027953,2.475994,0.020123,0.101487,0.991359,0.996743,0
22.440278,0.031426,2.474276,0.032003,0.098088,0.989653,0.995017,0
22.467223,0.026945,2.472782,0.02085,0.091776,0.994771,0.999213,0
22.495749,0.028526,2.469561,0.017214,0.086677,0.997939,1.001844,0
22.527884,0.032134,2.467544,0.014062,0.07915,0.987947,0.991212,0
22.556253,0.028369,2.46499,0.00194,0.069681,0.984292,0.986757,0
22.588424,0.032171,2.458865,0.005576,0.047345,0.990384,0.991531,0
22.628453,0.04003,2.452811,0.015759,0.02865,0.988434,0.988975,0
22.660215,0.031762,2.445943,0.024729,0.023308,0.988922,0.989506,0
22.691963,0.031748,2.438521,0.017699,0.031077,0.983804,0.984454,0
22.72049,0.028527,2.429059,0.019638,0.053657,0.984779,0.986435,0
22.753009,0.032519,2.421046,0.018668,0.072109,0.998182,1.000958,0
22.780919,0.02791,2.412288,0.01188,0.065554,1.000619,1.002835,0
22.808994,0.028075,2.402138,0.004849,0.065797,0.999157,1.001333,0
22.840302,0.031309,2.393616,0.008001,0.07478,0.984779,0.987647,0
22.86824,0.027938,2.382657,0.007516,0.081821,0.99014,0.993544,0
22.903501,0.03526,2.370577,0.006788,0.060698,0.987947,0.989833,0
22.938737,0.035236,2.358123,0.014789,0.063126,0.974544,0.976698,0
22.970646,0.031909,2.349065,0.03176,0.067982,0.970645,0.973541,0
22.99881,0.028165,2.337024,0.034185,0.081578,0.973082,0.977093,0
23.034247,0.035437,2.325002,0.017941,0.077451,1.001107,1.004258,0
23.067671,0.033424,2.315578,0.009455,0.047102,0.996964,0.998121,0
23.095639,0.027968,2.303823,0.007273,0.028892,0.992821,0.993268,0
23.126937,0.031298,2.29169,-0.000247,0.01214,0.992334,0.992408,0
23.154797,0.02786,2.279497,0.000485,-0.008443,1.000619,1.000655,0
23.182924,0.028127,2.264136,0.005819,-0.030394,0.998913,0.999393,0
23.214962,0.032037,2.249996,0.010183,-0.039561,0.998426,0.999261,0
23.243404,0.028442,2.23171,0.02376,-0.013991,1.00525,1.005628,0
23.275305,0.0319,2.215113,0.017456,0.015296,1.010367,1.010634,0
23.303093,0.027789,2.19154,0.004364,0.035933,0.937258,0.937957,0
23.338362,0.035269,2.169691,0.002667,0.049287,0.981611,0.982851,0
23.373433,0.035071,2.152052,0.000242,0.016995,0.96967,0.969819,0
23.405098,0.031665,2.136461,0.01188,0.017967,0.984048,0.984284,0
23.433307,0.028208,2.12065,0.039034,0.036904,1.007199,1.008631,0
23.461423,0.028116,2.102642,0.021335,0.056085,1.069829,1.071511,0
23.493165,0.031742,2.086951,-0.02962,0.058513,1.063249,1.06527,0
23.521124,0.027959,2.060632,-0.062203,0.068468,1.012073,1.016292,0
23.55662,0.035496,2.035722,0.020123,0.107314,0.903628,0.9102,0
23.588155,0.031535,2.013706,0.133588,0.106343,0.938964,0.954363,0
23.616117,0.027962,1.990589,0.072734,0.054628,1.007443,1.011541,0
23.644132,0.028015,1.956915,-0.019253,0.114113,1.05935,1.065653,0
23.67834,0.034209,1.926428,-0.044924,0.035691,1.028401,1.03,0
23.709585,0.031245,1.898133,-0.059487,0.034234,0.984292,0.986682,0
23.737822,0.028237,1.869802,-0.022462,0.048316,0.955535,0.95702,0
23.765332,0.02751,1.835169,0.018911,0.057785,0.915325,0.917342,0
23.796786,0.031454,1.805692,0.057702,0.065797,0.930678,0.934784,0
23.82463,0.027844,1.776401,0.007031,0.051715,0.971132,0.972533,0
23.85277,0.02814,1.741567,-0.010861,0.044674,0.997207,0.998267,0
23.884277,0.031507,1.71184,-0.016044,0.033505,0.991115,0.991811,0
23.912112,0.027835,1.682368,-0.009627,0.000243,0.994283,0.99433,0
23.940107,0.027995,1.645522,-0.036038,0.01481,1.004275,1.00503,0
23.971426,0.031318,1.614372,-0.058994,0.014325,1.020846,1.02265,0
23.999551,0.028125,1.572099,-0.099228,0.01651,0.999401,1.00445,0
24.034829,0.035278,1.538857,-0.049614,0.01044,0.983317,0.984623,0
24.06671,0.031881,1.513691,-0.036532,0.028892,0.945787,0.946934,0
24.095233,0.028523,1.47936,-0.037272,0.00607,0.979905,0.980632,0
24.130467,0.035234,1.450336,-0.050601,-0.001447,1.014023,1.015285,0
24.162763,0.032296,1.428517,-0.067633,0.061669,1.023039,1.027126,0
24.190946,0.028183,1.403665,-0.020981,0.009226,1.008905,1.009165,0
24.223504,0.032557,1.386786,-0.015797,0.017238,1.008661,1.008932,0
24.251827,0.028323,1.361717,-0.050354,0.025736,1.099316,1.10077,0
24.284131,0.032304,1.341173,-0.076272,0.007769,0.999644,1.00258,0
24.312103,0.027972,1.323756,0.018911,0.00437,0.975762,0.975955,0
24.340183,0.02808,1.300873,-0.011108,0.058027,1.008174,1.009904,0
24.371576,0.031393,1.283713,-0.054057,0.100031,1.004762,1.011175,0
24.39975,0.028175,1.256877,-0.042209,0.129166,0.961872,0.971423,0
24.434953,0.035203,1.237783,0.006304,0.121882,0.993552,1.00102,0
24.466927,0.031974,1.227056,0.025214,0.098574,0.978443,0.983719,0
24.494984,0.028057,1.216669,0.019638,0.126495,1.01646,1.024489,0
24.524734,0.02975,1.214331,0.019153,0.14956,1.046678,1.057483,0
24.549341,0.024607,1.199341,-0.004443,0.167284,1.056913,1.070079,0
24.580995,0.031654,1.174918,-0.038753,0.074052,0.996476,0.999975,0
24.615962,0.034967,1.163255,-0.001481,0.080364,0.912157,0.915692,0
24.64389,0.027928,1.149158,0.020608,0.107314,0.897048,0.903679,0
24.675498,0.031608,1.13921,0.026427,0.134264,0.957241,0.966973,0
24.704465,0.028968,1.124272,0.005091,0.136692,0.993308,1.002682,0
24.736987,0.032521,1.115304,0.011637,0.107072,0.992821,0.998646,0
24.764878,0.027891,1.094416,0.014789,0.07915,0.986485,0.989766,0
24.800417,0.035539,1.080609,0.008486,0.074295,1.009149,1.011915,0
24.832091,0.031674,1.073845,-0.041715,0.068953,1.049359,1.052449,0
24.859854,0.027763,1.068566,-0.036285,0.072109,1.008661,1.011886,0
24.887841,0.027988,1.060464,-0.003209,0.09129,0.962115,0.966442,0
24.919654,0.031813,1.060552,0.016729,0.083278,0.943594,0.94741,0
24.947796,0.028141,1.055957,0.025214,0.050015,0.939451,0.94112,0
24.982976,0.03518,1.057575,0.004849,0.071138,0.977712,0.980308,0
25.014801,0.031825,1.065119,0.009213,0.086434,0.999401,1.003174,0
25.043103,0.028302,1.073698,0.000727,0.117754,1.024014,1.030763,0
25.071512,0.028409,1.079627,-0.008639,0.107072,1.056913,1.062358,0
25.103355,0.031844,1.096977,0.075643,0.080607,1.006468,1.01252,0
25.131205,0.027849,1.117269,0.113465,0.203946,0.969426,0.997123,0
25.163352,0.032148,1.136351,0.0674,0.175782,1.003056,1.02057,0
25.191221,0.027868,1.15458,0.008243,0.128437,0.982829,0.99122,0
25.219641,0.028421,1.17494,0.019153,0.130137,0.949199,0.95827,0
25.244252,0.02461,1.190123,0.065945,0.111199,0.995014,1.003378,0
25.275868,0.031616,1.2086,0.066188,0.090319,0.971863,0.978292,0
25.30374,0.027872,1.228266,0.072249,0.095903,0.953829,0.961357,0
25.331631,0.027891,1.246385,0.047762,0.062883,0.942132,0.945436,0
25.362997,0.031366,1.266294,0.010668,0.062883,0.983561,0.985626,0
25.391003,0.028006,1.286078,-0.02419,0.086191,0.93604,0.940311,0
25.419537,0.028534,1.305455,-0.023449,0.077936,0.999888,1.003195,0
25.451463,0.031926,1.327786,-0.015304,0.062883,0.989653,0.991767,0
25.480009,0.028546,1.350171,-0.012835,0.072109,0.981367,0.984097,0
25.512471,0.032462,1.373836,0.010425,0.069439,0.999644,1.002108,0
25.541334,0.028863,1.398194,-0.010861,0.067254,1.034006,1.036248,0
25.573129,0.031795,1.422405,0.000242,0.038847,1.025476,1.026212,0
25.601332,0.028203,1.446447,-0.026658,0.056085,1.031081,1.03295,0
25.633435,0.032103,1.467486,-0.036038,0.070167,1.002569,1.005667,0
25.661814,0.02838,1.487697,-0.001728,0.054871,0.99209,0.993608,0
25.694086,0.032272,1.508397,0.012607,0.040061,0.986485,0.987378,0
25.720614,0.026528,1.530565,0.000727,0.050744,1.005006,1.006286,0
25.747872,0.027259,1.550873,-0.034063,0.059241,1.018653,1.020942,0
25.783829,0.035957,1.569668,-0.021722,0.031806,0.996964,0.997707,0
25.814739,0.03091,1.587613,-0.02888,0.03302,0.992334,0.993303,0
25.842326,0.027587,1.604154,-0.035297,0.037876,0.97625,0.977621,0
25.869703,0.027377,1.619679,-0.013823,0.045159,0.973082,0.974227,0
25.897613,0.02791,1.634341,-0.009133,0.081093,0.979174,0.982569,0
25.929353,0.03174,1.64836,0.000727,0.078179,0.985266,0.988363,0
25.964755,0.035402,1.663631,0.005576,0.055114,0.999401,1.000935,0
25.992918,0.028162,1.680403,0.006546,0.058513,1.000376,1.002107,0
26.024931,0.032013,1.696406,-0.000741,0.064583,1.00135,1.003431,0
26.053185,0.028255,1.711461,-0.003949,0.056085,0.935796,0.937483,0
26.085146,0.03196,1.725562,0.001697,0.064097,0.978687,0.980785,0
26.112977,0.027831,1.739234,0.003394,0.076965,0.984779,0.987788,0
26.141186,0.028209,1.752422,-0.000247,0.073809,0.989165,0.991915,0
26.174335,0.033149,1.764616,0.011637,0.061669,0.980149,0.982156,0
26.202276,0.027942,1.776842,0.013335,0.061184,0.991602,0.993578,0
26.234,0.031723,1.78865,0.011153,0.050258,0.995258,0.996588,0
26.269004,0.035005,1.79926,0.002909,0.048559,0.998182,0.999367,0
26.29693,0.027926,1.809432,0.008001,0.047587,0.99867,0.999835,0
26.329028,0.032098,1.81881,0.00897,0.053657,0.993065,0.994554,0
26.356862,0.027834,1.827856,0.020608,0.05827,0.979174,0.981123,0
26.385,0.028137,1.836874,0.013819,0.071381,0.971619,0.974336,0
26.417262,0.032263,1.844813,0.021093,0.080122,0.9743,0.977816,0
26.441387,0.024125,1.852923,0.009698,0.003156,0.979661,0.979714,0
26.469335,0.027948,1.86092,0.020123,0.060698,0.980392,0.982476,0
26.497422,0.028087,1.868815,0.017941,0.059727,0.974544,0.976537,0
26.529781,0.032358,1.875765,0.012365,0.0522,0.981611,0.983076,0
26.565552,0.035771,1.881705,0.02376,0.071138,0.982342,0.985201,0
26.593806,0.028254,1.887254,0.025942,0.067496,0.984292,0.986944,0
26.625781,0.031975,1.893236,0.015759,0.063854,0.99014,0.992322,0
26.654005,0.028225,1.899478,0.013577,0.061427,0.984535,0.986543,0
26.686152,0.032147,1.905957,0.018183,0.057785,0.98088,0.982749,0
26.718638,0.032486,1.912881,0.012365,0.04953,0.991602,0.992916,0
26.751574,0.032936,1.920245,0.016971,0.045402,0.990871,0.992056,0
26.776977,0.025403,1.92849,0.029094,0.044674,0.999644,1.001065,0
26.808092,0.031116,1.936288,0.025699,0.0522,1.006468,1.008148,0
26.842332,0.03424,1.94441,0.0337,0.043217,1.002081,1.003579,0
26.869454,0.027122,1.953676,0.018911,0.030349,0.999644,1.000284,0
26.897081,0.027626,1.963475,0.024487,0.029621,0.982342,0.983093,0
26.928902,0.031821,1.971744,0.032488,0.044674,0.966502,0.968079,0
26.957063,0.028161,1.978754,0.018426,0.060455,0.977224,0.979266,0
26.985172,0.028109,1.98367,0.00994,0.067254,0.977955,0.980316,0
27.017144,0.031973,1.986978,-0.011354,0.070167,0.989897,0.992445,0
27.052434,0.035289,1.991333,0.015032,0.054143,0.980392,0.982001,0
27.080579,0.028146,1.998124,0.081704,0.084735,0.962115,0.969289,0
27.112412,0.031833,2.006119,0.096736,0.132808,1.017678,1.030856,0
27.141085,0.028672,2.016393,0.008728,0.122853,1.057644,1.064791,0
27.175296,0.034211,2.026817,0.031033,0.102701,1.048628,1.054102,0
27.210956,0.03566,2.033902,0.040731,0.094932,1.01646,1.021695,0
27.24364,0.032684,2.03921,0.048004,0.086191,0.977468,0.982434,0
27.27196,0.02832,2.044435,0.080977,0.068953,0.908746,0.914948,0
27.303595,0.031635,2.049386,0.099645,0.068953,0.917762,0.925728,0
27.332188,0.028593,2.053605,0.093584,0.089105,0.960409,0.969063,0
27.363833,0.031645,2.055199,0.049944,0.106829,1.014266,1.021099,0
27.392112,0.028279,2.05891,0.099645,0.087163,0.936771,0.946079,0
27.420342,0.02823,2.061306,0.091887,0.074537,0.969182,0.976378,0
27.451945,0.031603,2.056653,0.090917,0.089105,0.989653,0.997807,0
27.488357,0.036412,2.053454,0.108131,0.04346,0.985997,0.992861,0
27.52132,0.032963,2.049221,0.106676,0.081821,1.003787,1.01275,0
27.54981,0.028491,2.043177,0.100373,0.072838,1.020602,1.02811,0
27.581928,0.032118,2.038625,0.068855,0.046859,1.054233,1.057517,0
27.609771,0.027843,2.029894,0.011395,0.059484,1.000619,1.002451,0
27.637794,0.028022,2.019626,0.109828,0.041518,0.999401,1.006274,0
27.669291,0.031497,2.013061,0.139891,0.11654,1.033518,1.049434,0
27.697285,0.027994,2.002206,0.075158,0.137906,1.060812,1.072376,0
27.735786,0.038501,2.001508,-0.066152,0.115326,1.184854,1.19229,1
27.767596,0.03181,2.005038,-0.121196,0.107557,1.121005,1.132656,0
27.799381,0.031785,2.006278,-0.099722,0.151988,1.010611,1.02683,0
27.826776,0.027395,2.005521,-0.048873,0.084249,0.86683,0.872284,0
27.854169,0.027393,2.001407,-0.023203,0.050258,0.928485,0.930134,0
27.888461,0.034292,1.994706,-0.117741,0.062398,0.943838,0.953198,0
27.92568,0.03722,1.997065,-0.102437,0.07915,0.989897,0.998325,0
27.949885,0.024205,2.004991,-0.061215,0.099059,0.884376,0.892009,0
27.984784,0.034899,2.013369,0.02085,0.110471,0.868779,0.876023,0
28.019856,0.035072,2.021984,0.025457,0.120668,0.889006,0.897519,0
28.051288,0.031432,2.031238,0.025214,0.149803,0.94335,0.955503,0
28.079147,0.027859,2.04004,0.034185,0.136207,0.948712,0.959049,0
28.107138,0.027991,2.046867,0.036609,0.112656,0.971132,0.97833,0
28.138597,0.031459,2.053473,0.025942,0.078908,0.956998,0.960595,0
28.166724,0.028127,2.061036,0.083159,0.051472,0.940913,0.945983,0
28.194613,0.027889,2.069004,0.074673,0.017967,0.982829,0.985826,0
28.226097,0.031483,2.078663,0.071522,0.018695,1.013535,1.016228,0
28.254033,0.027936,2.092376,0.05649,0.038604,1.033518,1.035781,0
28.289062,0.035029,2.106164,0.064733,0.047587,1.053989,1.057047,0
28.323769,0.034707,2.116342,0.025457,0.049044,1.071779,1.073202,0
28.35846,0.034691,2.122136,0.004606,0.044188,1.002325,1.003309,0
28.393167,0.034707,2.13116,0.089463,0.06871,1.009636,1.015918,0
28.42819,0.035024,2.142598,0.111283,0.090562,1.173644,1.182381,1
28.463116,0.034926,2.145814,-0.213266,0.139363,1.307677,1.332263,0
28.498088,0.034972,2.147181,-0.194506,0.104401,0.976737,1.001373,0
28.533159,0.035071,2.152825,0.07637,0.125038,0.807611,0.820794,0
28.564712,0.031552,2.159646,0.117586,0.137906,0.812973,0.832928,0
28.592556,0.027844,2.166789,0.062309,0.14082,0.901922,0.914973,0
28.620386,0.02783,2.173385,0.000727,0.140577,0.965283,0.975466,0
28.651836,0.031451,2.178445,-0.032335,0.095417,0.958947,0.964225,0
28.679658,0.027822,2.181504,-0.032089,0.068468,0.953342,0.956336,0
28.707503,0.027844,2.182315,-0.023696,0.069681,0.954561,0.957394,0
28.739002,0.0315,2.18099,-0.024684,0.07915,0.967233,0.97078,0
28.767582,0.02858,2.176809,-0.025424,0.110228,0.95846,0.965112,0
28.802563,0.034981,2.17164,0.021093,0.096631,0.975762,0.980762,0
28.837091,0.034528,2.164022,0.015517,0.103672,1.05277,1.057976,0
28.871597,0.034506,2.156158,0.053823,0.103915,1.051796,1.058286,0
28.899169,0.027571,2.14624,0.059642,0.123581,1.026207,1.035341,0
28.930585,0.031416,2.136019,0.046792,0.12431,1.027913,1.036459,0
28.958431,0.027846,2.12642,0.041943,0.105129,1.017678,1.023953,0
28.986425,0.027994,2.115018,0.031033,0.09299,1.027426,1.032092,0
29.018033,0.031608,2.102754,0.006788,0.08522,0.994039,0.997709,0
29.053001,0.034967,2.09275,0.060611,0.075023,0.977955,0.9827,0
29.088024,0.035023,2.084836,0.068855,0.08692,0.979905,0.986159,0
29.116081,0.028057,2.073183,0.037337,0.08522,0.984535,0.988922,0
29.147974,0.031893,2.063311,-0.001728,0.073809,1.015728,1.018408,0
29.176271,0.028296,2.051434,-0.079234,0.093718,1.048384,1.055542,0
29.211379,0.035108,2.040518,-0.085405,0.082307,0.959922,0.967222,0
29.247056,0.035677,2.034648,0.025214,0.047102,0.900947,0.90253,0
29.2789,0.031844,2.029212,0.062066,0.060213,0.966989,0.970848,0
29.307166,0.028266,2.022927,-0.017772,0.054386,1.025233,1.026828,0
29.338915,0.031749,2.020381,-0.077013,0.06264,1.056182,1.060837,0
29.367017,0.028102,2.017498,-0.090095,0.120668,0.945544,0.957461,0
29.395338,0.028321,2.015946,-0.041222,0.126738,0.976737,0.985787,0
29.427019,0.031681,2.016471,-0.018019,0.062883,0.917519,0.919847,0
29.462476,0.035457,2.017736,0.007516,0.060455,0.929216,0.931211,0
29.49051,0.028035,2.017591,0.007516,0.051958,0.981855,0.983257,0
29.522255,0.031744,2.019148,0.0337,0.039332,1.006224,1.007556,0
29.550605,0.02835,2.025378,0.035397,0.030592,1.11077,1.111755,0
29.585886,0.035281,2.028919,-0.042949,0.064826,1.061056,1.063902,0
29.618041,0.032155,2.027236,-0.036038,0.083278,1.027182,1.031182,0
29.646046,0.028005,2.023312,-0.023696,0.072838,0.945056,0.948155,0
29.681796,0.03575,2.021829,0.007758,0.084735,0.915082,0.919029,0
29.713366,0.03157,2.022224,0.052126,0.057056,0.90046,0.90377,0
29.741659,0.028293,2.023898,0.062309,0.008983,0.924586,0.926727,0
29.779006,0.037346,2.024174,0.00897,-0.000482,0.975762,0.975804,0
29.803515,0.024509,2.023009,-0.013329,0.024522,1.021821,1.022202,0
29.835195,0.03168,2.024717,-0.010367,0.036419,1.017678,1.018382,0
29.863011,0.027816,2.028539,0.004122,0.032291,0.989653,0.990188,0
29.890404,0.027393,2.034306,0.006546,0.036662,0.984292,0.984996,0
29.922115,0.031711,2.037334,0.018426,0.038604,0.963577,0.964526,0
29.950121,0.028006,2.038748,0.030306,0.069439,0.962846,0.965822,0
29.978706,0.028585,2.039516,0.041216,0.085463,0.979174,0.98376,0
30.010395,0.031689,2.039773,0.041701,0.065797,1.006468,1.009478,0
30.038325,0.02793,2.04177,0.020123,0.067982,1.018653,1.021117,0
30.069641,0.031316,2.043241,0.00097,0.066282,1.011342,1.013512,0
30.097533,0.027892,2.045346,0.027396,0.051472,0.997695,0.999397,0
30.125403,0.027869,2.047496,0.018911,0.033748,0.979418,0.980181,0
30.157934,0.032532,2.049082,0.028609,0.043217,0.986485,0.987845,0
30.19303,0.035096,2.049857,0.04364,0.068468,0.988922,0.992249,0
30.221209,0.028179,2.051468,0.043398,0.073566,0.99209,0.99576,0
30.252722,0.031512,2.053831,0.034912,0.001457,1.001107,1.001716,0
30.280524,0.027802,2.056242,0.028366,0.0539,0.996964,0.998823,0
30.30846,0.027937,2.060064,0.033215,0.02258,0.986729,0.987546,0
30.339921,0.03146,2.060057,0.026184,0.043945,0.976737,0.978076,0
30.368105,0.028184,2.060305,0.039761,0.039332,0.970888,0.972498,0
30.403561,0.035456,2.060062,0.031276,0.051958,0.984048,0.985915,0
30.435357,0.031795,2.059231,0.026184,0.045888,0.984292,0.985708,0
30.464462,0.029106,2.058245,0.038791,0.036904,0.989409,0.990857,0
30.496463,0.032001,2.056415,0.029336,0.040061,1.006712,1.007935,0
30.525398,0.028935,2.055151,0.02376,0.042003,1.006955,1.008111,0
30.557165,0.031766,2.053935,0.030791,0.041518,0.987216,0.988568,0
30.585475,0.02831,2.053388,0.03564,0.046859,0.977955,0.979726,0
30.613151,0.027676,2.052987,0.03176,0.053172,0.979418,0.981374,0
30.644512,0.031361,2.052197,0.029094,0.041275,0.977712,0.979015,0
30.672232,0.02772,2.050941,0.018911,0.038847,0.993308,0.994248,0
30.700057,0.027824,2.050109,0.025214,0.029135,0.990871,0.99162,0
30.731879,0.031822,2.049963,0.024245,0.033263,0.984292,0.985152,0
30.760474,0.028595,2.050279,0.0337,0.044431,0.986972,0.988546,0
30.793432,0.032959,2.050218,0.03176,0.04346,0.98088,0.982356,0
30.821535,0.028103,2.05029,0.014789,0.029863,0.986972,0.987535,0
30.852744,0.031209,2.048782,0.02085,0.038847,0.986972,0.987957,0
30.88028,0.027535,2.048583,0.04655,0.044431,0.989897,0.991986,0
30.907927,0.027647,2.048224,0.036367,0.04783,0.989897,0.991718,0
30.943165,0.035239,2.048216,0.043155,0.054871,0.990871,0.993327,0
30.974767,0.031602,2.049132,0.038549,0.051472,0.995014,0.99709,0
31.004149,0.029382,2.05037,0.036852,0.040061,0.973569,0.975089,0
31.035533,0.031384,2.049834,0.026427,0.036419,0.976737,0.977773,0
31.063685,0.028152,2.048959,0.032245,0.054143,0.985266,0.98728,0
31.0917,0.028015,2.047846,0.030548,0.06434,0.999644,1.002179,0
31.123566,0.031866,2.048073,0.026911,0.039332,0.997451,0.998589,0
31.15221,0.028644,2.049013,0.026427,0.040304,0.989165,0.990339,0
31.184284,0.032074,2.050098,0.03564,0.049287,0.988922,0.99079,0
31.21294,0.028657,2.051388,0.029094,0.051715,0.991846,0.993619,0
31.245161,0.03222,2.051944,0.034912,0.045402,0.979418,0.981091,0
31.273193,0.028033,2.052805,0.040488,0.033263,0.9743,0.975708,0
31.308422,0.035229,2.053496,0.031033,0.054143,0.984292,0.986268,0
31.343286,0.034864,2.053796,0.028851,0.059241,0.982342,0.98455,0
31.374739,0.031453,2.054667,0.028366,0.050258,0.993552,0.995227,0
31.402756,0.028018,2.055256,0.005091,0.050015,1.001594,1.002855,0
31.431258,0.028502,2.056466,0.03564,0.053657,0.99672,0.998799,0
31.463122,0.031864,2.057656,0.047277,0.058999,0.995745,0.998611,0
31.491709,0.028587,2.058831,0.031033,0.054143,0.989653,0.991619,0
31.52331,0.031601,2.06042,0.040004,0.047587,0.985023,0.986983,0
31.551596,0.028286,2.061839,0.035397,0.056085,0.987703,0.989927,0
31.586549,0.034953,2.062924,0.029336,0.051715,0.99014,0.991924,0
31.621703,0.035154,2.063757,0.033942,0.046616,0.98551,0.987196,0
31.65347,0.031766,2.063871,0.02376,0.050015,0.983317,0.984875,0
31.681583,0.028114,2.06377,0.042913,0.053657,0.984779,0.987173,0
31.709776,0.028193,2.063684,0.043155,0.056328,0.994527,0.997055,0
31.741549,0.031773,2.062274,0.039761,0.058999,0.995258,0.997798,0
31.776912,0.035363,2.062305,0.045095,0.047102,0.980149,0.982315,0
31.807684,0.030771,2.062128,0.048489,0.038847,0.985997,0.987953,0
31.836838,0.029154,2.061831,0.039761,0.043217,0.997939,0.999665,0
31.865118,0.02828,2.060654,0.042428,0.052443,0.997207,0.999486,0
31.896756,0.031638,2.059394,0.04558,0.032291,0.990628,0.992201,0
31.923823,0.027067,2.055461,0.040731,0.020152,0.991846,0.992887,0
31.957508,0.033684,2.050755,0.031033,0.010926,0.992577,0.993122,0
31.98614,0.028632,2.045751,0.024972,0.015539,0.994283,0.994718,0
32.012801,0.026661,2.039716,0.032245,0.018938,0.988922,0.989629,0
32.039418,0.026617,2.029885,0.03467,0.024036,0.984535,0.985439,0
32.073026,0.033608,2.021834,0.028124,0.024522,0.991602,0.992304,0
32.099635,0.026608,2.012514,0.026911,0.022823,0.98551,0.986142,0
32.126245,0.026611,1.998046,0.020123,0.013596,0.993796,0.994092,0
32.160001,0.033756,1.98671,0.014304,0.013596,0.988922,0.989119,0
32.186635,0.026634,1.97417,0.014062,0.024036,0.984048,0.984442,0
32.213329,0.026694,1.954629,0.004122,0.02258,0.979418,0.979687,0
32.247103,0.033773,1.939591,0.006304,0.023794,0.981611,0.981919,0
32.27377,0.026667,1.923372,-0.001975,0.025979,0.979418,0.979764,0
32.300434,0.026664,1.899297,-0.001234,0.036904,1.047896,1.048547,0
32.334011,0.033577,1.881897,-0.010861,0.039575,1.017922,1.018749,0
32.360618,0.026606,1.864321,-0.007158,0.046616,1.028644,1.029725,0
32.387152,0.026535,1.839643,0.002909,0.056571,1.024989,1.026553,0
32.42079,0.033638,1.823901,0.013577,0.056328,1.016947,1.018596,0
32.448536,0.027746,1.801461,0.053581,0.02088,1.015241,1.016868,0
32.482143,0.033607,1.789133,0.03273,0.020395,0.991846,0.992596,0
32.50874,0.026597,1.774419,-0.001234,0.033748,0.988922,0.989498,0
32.535422,0.026682,1.750914,-0.015551,0.055114,1.056913,1.058464,0
32.569027,0.033605,1.738002,-0.019253,0.062883,0.981124,0.983325,0
32.595681,0.026654,1.726165,-0.023203,0.068468,0.976981,0.979652,0
32.622431,0.02675,1.705925,-0.033076,0.066282,0.962602,0.965449,0
32.656101,0.03367,1.696584,-0.026905,0.038118,0.968208,0.969331,0
32.682902,0.026801,1.68881,-0.045171,0.020637,0.992334,0.993575,0
32.709497,0.026595,1.685018,-0.000247,-0.027259,0.977955,0.978335,0
32.743492,0.033995,1.686088,-0.041222,0.121639,0.964065,0.972582,0
32.770098,0.026606,1.666182,-0.058994,0.146404,1.006224,1.018529,0
32.804142,0.034044,1.648179,-0.072817,0.095417,1.018409,1.025458,0
32.838751,0.034609,1.644703,-0.080715,0.115084,1.018165,1.027823,0
32.865547,0.026796,1.641871,-0.052082,0.100031,1.018409,1.024634,0
32.892149,0.026603,1.630483,-0.048873,0.09129,0.937258,0.942961,0
32.925839,0.033689,1.629447,-0.023943,0.120182,0.982586,0.990198,0
32.952457,0.026618,1.625193,-0.019994,0.179424,0.967476,0.984176,0
32.97925,0.026793,1.622599,0.021578,0.093961,0.979905,0.984636,0
33.010372,0.031122,1.627774,-0.021722,0.16777,0.991115,1.005449,0
33.036999,0.026628,1.63252,0.004364,0.228711,0.999157,1.025009,0
33.063831,0.026831,1.631571,0.008486,0.163157,0.978687,0.99223,0
33.097731,0.0339,1.638937,-0.001234,0.17821,0.983561,0.999576,0
33.125697,0.027966,1.650543,-0.02888,0.137178,1.017434,1.027046,0
33.153053,0.027356,1.660799,-0.017032,0.099302,0.94335,0.948716,0
33.186765,0.033712,1.677705,-0.025671,0.112899,0.970157,0.977041,0
33.213649,0.026884,1.687029,-0.008146,0.123581,0.945056,0.953137,0
33.247516,0.033867,1.706238,0.021093,0.081336,0.95651,0.960194,0
33.274157,0.026641,1.727532,0.010668,0.081578,0.976006,0.979467,0
33.30085,0.026693,1.744864,-0.015057,0.052929,1.055695,1.057128,0
33.334495,0.033645,1.768086,0.001212,0.064826,1.015728,1.017796,0
33.36114,0.026645,1.792664,0.004122,0.069196,1.020602,1.022954,0
33.38776,0.02662,1.814802,0.000727,0.068468,1.023283,1.025571,0
33.421417,0.033657,1.840923,-0.013329,0.127709,1.024014,1.032033,0
33.448025,0.026608,1.865891,0.028124,0.148103,0.989897,1.00131,0
33.47509,0.027066,1.889997,0.056247,0.118483,0.954073,0.963046,0
33.508749,0.033659,1.917848,0.062551,0.088134,0.96967,0.975674,0
33.535445,0.026696,1.946038,0.012607,0.084735,1.055695,1.059165,0
33.562118,0.026672,1.973657,0.037337,0.051472,1.058619,1.060527,0
33.595778,0.03366,2.0026,0.056975,0.0539,1.019384,1.022397,0
33.622467,0.026689,2.02849,0.050671,0.075266,1.017678,1.021715,0
33.656287,0.03382,2.053898,0.082189,0.080607,0.999888,1.006493,0
33.682951,0.026664,2.077737,0.027154,0.092261,1.024502,1.029006,0
33.709679,0.026728,2.099123,-0.02493,0.074537,1.065443,1.068338,0
33.743517,0.033838,2.121608,-0.022709,0.050986,1.02109,1.022614,0
33.770185,0.026668,2.144933,0.045822,0.087648,0.971132,0.976155,0
33.796867,0.026682,2.16952,0.082917,0.09566,0.937745,0.946252,0
33.830692,0.033825,2.193152,0.069097,0.127709,0.976981,0.987712,0
33.865812,0.03512,2.214642,0.09116,0.112656,0.954317,0.965258,0
33.8926,0.026789,2.238689,0.129709,0.105615,0.960653,0.975107,0
33.926291,0.03369,2.261229,0.071037,0.097845,1.003056,1.010318,0
33.952952,0.026662,2.281128,0.05746,0.085706,1.004518,1.009804,0
33.979568,0.026616,2.299595,0.049944,0.068953,0.985266,0.988938,0
34.013283,0.033715,2.316551,0.058429,0.08085,0.982342,0.987394,0
34.040457,0.027174,2.333133,0.037579,0.084977,0.994039,0.998373,0
34.074147,0.03369,2.348949,0.072249,0.10343,0.96504,0.973252,0
34.100831,0.026684,2.362679,0.096009,0.10343,0.971132,0.981332,0
34.127491,0.026659,2.372102,0.106434,0.106829,0.977955,0.989514,0
34.161229,0.033738,2.381115,0.088493,0.090319,0.988922,0.996973,0
34.187941,0.026712,2.392659,0.110313,0.064097,0.994527,1.002677,0
34.214592,0.026651,2.407933,0.142316,0.057056,0.975031,0.987013,0
34.248538,0.033947,2.424366,0.111768,0.07041,0.993308,1.002053,0
34.27517,0.026632,2.444653,0.111768,0.034477,1.008905,1.015662,0
34.308852,0.033682,2.46247,0.067158,0.074052,1.01646,1.021364,0
34.335443,0.026591,2.476512,0.057702,0.119454,1.017678,1.026288,0
34.362027,0.026584,2.487432,0.058672,0.081578,1.015972,1.020929,0
34.388632,0.026605,2.498872,0.086311,0.037876,0.979418,0.983943,0
34.423251,0.03462,2.50836,0.096978,0.086677,0.947006,0.955896,0
34.457026,0.033774,2.519041,0.116616,0.069439,0.947493,0.957165,0
34.483755,0.026729,2.531237,0.11007,0.060941,0.953342,0.961608,0
34.510561,0.026806,2.544399,0.11298,0.057299,0.948468,0.95689,0
34.544306,0.033746,2.554684,0.131406,0.071381,0.937258,0.949113,0
34.571102,0.026795,2.56471,0.135527,0.070167,0.940182,0.952488,0
34.604786,0.033684,2.573384,0.145468,0.059727,0.945787,0.958771,0
34.631721,0.026935,2.581591,0.161954,0.061669,0.960409,0.975919,0
34.658555,0.026833,2.590991,0.152741,0.062398,0.983073,0.996823,0
34.692379,0.033825,2.598986,0.171409,0.071381,0.980149,0.997581,0
34.718977,0.026597,2.608601,0.201715,0.054143,0.967476,0.989763,0
34.752736,0.033759,2.617141,0.164378,0.067982,1.030594,1.045833,0
34.779423,0.026687,2.623677,0.107161,0.057542,1.082014,1.088829,0
34.806075,0.026652,2.630538,0.15565,0.055842,1.120031,1.132172,0
34.842083,0.036008,2.640308,0.142316,0.08959,1.105896,1.118609,0
34.872994,0.030911,2.646926,0.110313,0.180395,1.160728,1.179831,0
34.899756,0.026762,2.653185,-0.002715,0.072595,1.196064,1.198268,1
34.933484,0.033728,2.656305,-0.080222,0.01044,1.084938,1.08795,0
34.960176,0.026691,2.658676,0.030548,0.037876,0.959191,0.960424,0
34.993927,0.033752,2.659775,0.081704,0.121396,0.941888,0.953187,0
35.021797,0.02787,2.660148,0.023275,0.082549,0.923611,0.927585,0
35.048519,0.026722,2.661359,0.05552,0.108043,0.924342,0.93229,0
35.075261,0.026741,2.664162,0.068855,0.12868,0.972838,0.983724,0
35.101959,0.026698,2.670042,0.018183,0.133293,1.003787,1.012762,0
35.133073,0.031114,2.67635,-0.008886,0.143005,1.012804,1.022889,0
35.160306,0.027233,2.68127,-0.003456,0.151503,0.99209,1.003597,0
35.187021,0.026715,2.686718,0.045095,0.110956,0.892418,0.900419,0
35.220752,0.033731,2.689157,0.100615,0.099788,0.851721,0.863429,0
35.247746,0.026994,2.691512,0.08025,0.062155,0.882183,0.888003,0
35.281337,0.033591,2.688992,0.094796,0.056085,0.880964,0.887823,0
35.307942,0.026606,2.686631,0.124617,0.121153,0.884132,0.901053,0
35.334509,0.026567,2.688833,0.14377,0.07915,0.947981,0.962082,0
35.368072,0.033562,2.689516,0.098675,0.116298,0.983073,0.994834,0
35.394715,0.026643,2.690522,0.130678,0.1078,0.96114,0.975955,0
35.421357,0.026643,2.692504,0.127527,0.076965,0.955048,0.966594,0
35.4488,0.027443,2.695037,0.130436,0.078908,0.966502,0.978451,0
35.475499,0.026699,2.695247,0.093342,0.13912,0.968451,0.982835,0
35.502149,0.026649,2.691522,0.132618,0.111442,0.952611,0.968233,0
35.535836,0.033687,2.691978,0.182077,0.063126,0.945787,0.965221,0
35.562527,0.026691,2.693439,0.14474,0.045159,0.944325,0.95642,0
35.589154,0.026627,2.693205,0.104009,0.034719,1.110039,1.115442,0
35.622831,0.033676,2.696227,0.196866,0.126981,1.117106,1.141406,0
35.649483,0.026652,2.698622,0.201957,0.15126,1.140501,1.168079,0
35.676169,0.026686,2.698661,0.1348,0.12868,1.288669,1.302074,1
35.709809,0.03364,2.695335,-0.03357,0.019909,1.270148,1.270747,0
35.736445,0.026636,2.690246,-0.036285,-0.023399,1.081527,1.082388,0
35.76324,0.026795,2.683296,0.011395,0.060213,1.04156,1.043362,0
35.796981,0.033741,2.678134,0.029094,0.097117,0.882183,0.887989,0
35.823708,0.026727,2.677048,0.080734,0.073809,0.813216,0.820541,0
35.850374,0.026666,2.680478,0.136255,0.067982,0.879989,0.893067,0
35.882155,0.031781,2.684937,0.097948,0.064097,0.9453,0.95252,0
35.908797,0.026642,2.687337,0.041458,0.080364,0.982342,0.986495,0
35.942438,0.033642,2.68797,0.007516,0.060941,0.979174,0.981097,0
35.968971,0.026532,2.687802,0.02376,0.004613,0.95188,0.952188,0
35.997019,0.028048,2.688851,0.049944,0.048801,0.926779,0.929406,0
36.02386,0.026841,2.690284,0.035882,0.069681,0.92946,0.932759,0
36.050507,0.026647,2.68994,0.035882,0.077451,0.908014,0.912018,0
36.084182,0.033675,2.688914,0.06643,0.067011,0.906552,0.91145,0
36.110822,0.02664,2.686495,0.101342,0.0522,0.887788,0.895077,0
36.137551,0.026729,2.679497,0.094311,0.063612,0.888762,0.896013,0
36.168776,0.031225,2.674551,0.104494,0.009712,0.890225,0.896389,0
36.195596,0.026819,2.672464,0.148134,0.029135,0.899485,0.912067,0
36.222733,0.027138,2.669254,0.129224,0.029378,0.947737,0.956957,0
36.249814,0.027081,2.665183,0.098675,0.050501,1.020602,1.026604,0
36.276567,0.026753,2.66442,0.132375,0.015053,1.047653,1.05609,0
36.310529,0.033962,2.663659,0.080492,0.063854,1.071779,1.076692,0
36.337204,0.026675,2.656714,0.068612,0.078179,1.063737,1.06881,0
36.370899,0.033695,2.655171,0.135285,0.088862,1.039611,1.052135,0
36.397918,0.027019,2.662159,0.140134,0.062883,1.110283,1.120857,0
36.43173,0.033812,2.67133,0.073219,0.138392,1.113938,1.124887,0
36.458602,0.026872,2.680263,0.009698,0.137906,1.102241,1.110877,0
36.485219,0.026617,2.68864,-0.043196,0.118968,1.078115,1.085519,0
36.518937,0.033718,2.694413,-0.01012,0.060941,0.965771,0.967744,0
36.545681,0.026745,2.700462,0.103767,0.073323,0.892174,0.901176,0
36.57235,0.026668,2.707955,0.128739,0.095903,0.90704,0.921136,0
36.606278,0.033929,2.717256,0.032245,0.10173,0.97235,0.978189,0
36.632949,0.02667,2.730999,0.007516,0.108043,0.990384,0.996288,0
36.666714,0.033765,2.74203,0.00897,0.078179,0.943594,0.94687,0
36.693491,0.026777,2.75036,-0.002715,0.069681,0.915569,0.918221,0
36.720283,0.026791,2.755381,0.046792,0.046859,0.844897,0.847488,0
36.75402,0.033738,2.758197,0.101827,0.057785,0.823939,0.832216,0
36.781295,0.027275,2.756585,0.085583,0.084735,0.877309,0.885537,0
36.815155,0.033859,2.75461,0.072491,0.101002,0.924342,0.932665,0
36.842137,0.026983,2.752893,0.103524,0.081093,0.929703,0.938958,0
36.87604,0.033903,2.753138,0.129951,0.084492,0.952855,0.96538,0
36.903217,0.027176,2.752565,0.13383,0.101245,0.967964,0.982403,0
36.935073,0.031856,2.753457,0.159045,0.086434,0.99672,1.013024,0
36.963313,0.028239,2.752461,0.12486,0.078908,1.113207,1.122963,0
36.998718,0.035405,2.753141,0.11201,0.072595,1.080065,1.088281,0
37.030349,0.031632,2.755478,0.107161,0.086677,1.086157,1.094867,0
37.058239,0.027889,2.759698,0.151286,0.110228,1.077871,1.094004,0
37.08622,0.027981,2.764173,0.138437,0.060941,1.105165,1.115468,0
37.11853,0.03231,2.768679,-0.080468,0.005827,1.241148,1.243768,1
37.14666,0.028131,2.772257,-0.110089,-0.006031,1.158779,1.164012,0
37.178207,0.031547,2.77523,-0.064918,0.005584,1.032056,1.034111,0
37.206337,0.02813,2.776141,-0.041468,0.031563,0.971376,0.972773,0
37.235021,0.028684,2.772881,-0.003949,0.056571,0.896317,0.898109,0
37.266752,0.031731,2.769774,0.073946,0.054143,0.908746,0.913355,0
37.294881,0.028129,2.767933,0.038549,0.034719,0.995989,0.997339,0
37.326501,0.03162,2.766861,-0.043196,0.020395,1.014023,1.015147,0
37.354775,0.028274,2.763844,-0.027646,0.072595,0.973325,0.97642,0
37.390066,0.035291,2.763749,0.027881,0.071624,0.910939,0.914176,0
37.421437,0.031371,2.766832,0.005819,0.042974,0.919225,0.920247,0
37.450366,0.028929,2.76906,0.013092,0.071624,0.907771,0.910686,0
37.485283,0.034916,2.772016,0.058672,0.077694,0.89851,0.90377,0
37.520421,0.035138,2.775316,0.086311,0.071138,0.885107,0.892146,0
37.555598,0.035177,2.77959,0.104979,0.073566,0.916056,0.924982,0
37.587005,0.031407,2.78301,0.103282,0.042489,0.947737,0.954294,0
37.61513,0.028125,2.788698,0.114677,0.057299,0.999157,1.007347,0
37.643688,0.028558,2.794019,0.109828,0.085706,1.020602,1.030066,0
37.67613,0.032442,2.798772,0.093584,0.054143,1.039611,1.045218,0
37.704483,0.028353,2.801065,0.135285,0.055842,1.026695,1.037074,0
37.736483,0.032001,2.80436,0.157347,0.046373,1.113938,1.125952,0
37.765215,0.028732,2.811226,0.122193,0.10173,1.159022,1.169877,0
37.79723,0.032014,2.812485,-0.074298,0.173597,1.241392,1.255671,1
37.825455,0.028225,2.80996,-0.13181,0.144462,1.153417,1.169878,0
37.857024,0.031569,2.808037,-0.107867,0.092261,1.047165,1.056742,0
37.885504,0.028479,2.80604,-0.020487,0.160729,0.921174,0.935316,0
37.919971,0.034467,2.812293,0.056247,0.13305,0.90046,0.911973,0
37.955199,0.035228,2.822901,0.00897,0.136692,0.955292,0.965063,0
37.988221,0.033022,2.829733,-0.038013,0.178695,0.992577,1.009251,0
38.016325,0.028103,2.837064,-0.017525,0.149317,0.968939,0.980533,0
38.051307,0.034983,2.843879,0.000242,0.088862,0.896804,0.901196,0
38.0829,0.031593,2.844113,0.020608,0.107314,0.894124,0.900776,0
38.110765,0.027865,2.842207,0.052853,0.114355,0.898998,0.907782,0
38.139037,0.028272,2.840146,0.077825,0.09129,0.922636,0.930402,0
38.17059,0.031554,2.837345,0.088008,0.103672,0.946275,0.955997,0
38.198701,0.028111,2.829304,0.098433,0.121396,0.949687,0.962461,0
38.233996,0.035295,2.821433,0.125587,0.099788,0.939451,0.953047,0
38.265871,0.031875,2.81287,0.148134,0.181609,0.96504,0.99309,0
38.294142,0.028271,2.801852,0.134557,0.188407,1.003787,1.030142,0
38.321998,0.027856,2.787188,0.109586,0.22604,1.047409,1.077111,0
38.353464,0.031466,2.7766,0.163166,0.192777,1.054964,1.084774,0
38.381367,0.027903,2.768358,0.12389,0.148589,1.042535,1.060333,0
38.416509,0.035142,2.766127,0.07928,0.153931,1.037661,1.052008,0
38.45169,0.035181,2.771302,0.063278,0.150774,1.005981,1.019183,0
38.483268,0.031578,2.777491,0.07637,0.242307,0.999401,1.031187,0
38.51132,0.028052,2.78519,0.066673,0.159515,1.057401,1.071441,0
38.539524,0.028204,2.795259,0.032973,0.07648,1.020359,1.023752,0
38.571067,0.031543,2.801442,-0.05381,0.045402,1.019384,1.021812,0
38.598956,0.027889,2.810262,-0.013329,0.085706,1.001107,1.004857,0
38.634168,0.035212,2.812697,-0.013329,0.113384,0.986729,0.993311,0
38.666104,0.031937,2.810269,0.022547,0.107557,0.920687,0.927222,0
38.694321,0.028216,2.807907,0.107161,0.076237,0.995745,1.004393,0
38.729681,0.035361,2.81395,0.080492,0.05827,1.051552,1.056237,0
38.765004,0.035323,2.820795,0.006061,0.098574,1.019628,1.024399,0
38.796789,0.031785,2.822468,-0.049861,0.128194,1.04546,1.054469,0
38.824508,0.027719,2.820256,-0.065905,0.100516,0.999888,1.007087,0
38.8521,0.027592,2.816986,-0.011601,0.053657,0.931166,0.932783,0
38.88355,0.03145,2.816509,0.040973,0.081821,0.937745,0.9422,0
38.911617,0.028067,2.817005,0.057217,0.165099,0.960409,0.976175,0
38.947649,0.036033,2.820725,0.044368,0.163399,1.007686,1.021812,0
38.979666,0.032016,2.826464,0.00897,0.148346,1.031325,1.041978,0
39.008028,0.028363,2.835192,-0.011848,0.15563,1.026207,1.038009,0
39.043148,0.03512,2.84291,0.000242,0.136692,0.936771,0.946691,0
39.074594,0.031446,2.850068,0.01285,0.109742,0.994039,1.000161,0
39.102554,0.02796,2.85539,-0.013823,0.10343,0.999888,1.005318,0
39.130751,0.028197,2.861927,0.003637,0.065068,0.971376,0.973559,0
39.164275,0.033524,2.866254,0.022305,0.09129,0.954804,0.959418,0
39.189818,0.025543,2.87048,0.024729,0.104401,0.958947,0.96493,0
39.217845,0.028028,2.874421,0.014304,0.116783,0.965771,0.972911,0
39.249776,0.031931,2.875368,0.014547,0.181852,0.987216,1.003931,0
39.277614,0.027838,2.876313,0.024487,0.164856,0.976006,0.990134,0
39.312844,0.035229,2.877464,0.070067,0.159272,0.94725,0.963099,0
39.344829,0.031985,2.878365,0.060369,0.145433,0.971619,0.984296,0
39.372999,0.028171,2.876471,-0.008392,0.119454,1.00135,1.008485,0
39.40838,0.035381,2.869704,-0.048133,0.100516,0.938233,0.944829,0
39.44015,0.03177,2.85921,0.050671,0.142276,0.980392,0.991957,0
39.468289,0.028139,2.851314,0.06643,0.130865,1.000619,1.011325,0
39.501453,0.033164,2.84691,0.057702,0.111199,0.998182,1.006013,0
39.529902,0.028448,2.843624,0.107404,0.08522,0.875359,0.886031,0
39.565116,0.035215,2.840839,0.185714,0.122853,0.95651,0.982087,0
39.596751,0.031635,2.838576,0.060611,0.063854,1.064224,1.06786,0
39.625386,0.028635,2.833872,-0.055044,0.067011,1.052283,1.05585,0
39.660635,0.035249,2.827152,0.004849,0.055357,0.969182,0.970774,0
39.692458,0.031823,2.820748,0.071279,0.094932,0.915569,0.923233,0
39.720636,0.028177,2.815542,0.125345,0.130622,0.941401,0.95865,0
39.749952,0.029317,2.812975,0.114434,0.133293,0.981611,0.997207,0
39.774714,0.024762,2.812449,0.069582,0.129651,1.035712,1.046112,0
39.806261,0.031547,2.811285,0.037094,0.131836,1.03035,1.039413,0
39.83433,0.028069,2.808948,0.046307,0.120425,1.008905,1.017121,0
39.869532,0.035202,2.805895,0.036852,0.096146,0.936771,0.942413,0
39.90462,0.035088,2.801186,0.043155,0.109257,0.979905,0.986921,0
39.939897,0.035277,2.797227,0.074431,0.113141,0.964065,0.973531,0
39.973634,0.033737,2.795344,0.073704,0.111442,0.971619,0.980763,0
40.009325,0.035691,2.794634,0.048732,0.122125,0.999157,1.007772,0
40.04084,0.031515,2.794457,0.038306,0.119697,0.998426,1.006305,0
40.068423,0.027583,2.793633,0.040488,0.143976,0.999157,1.010289,0
40.096265,0.027842,2.791775,0.04558,0.152717,0.989897,1.002644,0
40.129665,0.0334,2.791095,0.062793,0.160729,0.966258,0.981545,0
40.158535,0.028869,2.793959,0.065945,0.174811,0.992334,1.009769,0
40.191317,0.032782,2.798785,0.048489,0.184037,0.988191,1.006351,0
40.223973,0.032656,2.805189,0.049217,0.182823,0.975031,0.993243,0
40.252361,0.028388,2.817205,0.051156,0.17821,0.977224,0.994657,0
40.286927,0.034566,2.831087,0.051641,0.174082,0.976493,0.993232,0
40.321788,0.034862,2.845844,0.064733,0.156116,0.979174,0.993652,0
40.357378,0.035589,2.859058,0.053096,0.14519,0.997451,1.00936,0
40.388977,0.031599,2.871052,0.049217,0.144704,1.016216,1.027646,0
40.417696,0.028719,2.88817,0.040488,0.139849,1.017434,1.027798,0
40.453049,0.035353,2.904414,0.087523,0.135721,0.960653,0.974133,0
40.484826,0.031778,2.920297,0.096493,0.118483,0.965771,0.977784,0
40.512909,0.028083,2.945558,0.077098,0.088134,1.060081,1.066529,0
40.54817,0.035261,2.968844,0.054065,0.081821,0.988434,0.993288,0
40.580333,0.032163,2.99128,0.057945,0.087648,0.984535,0.990126,0
40.608381,0.028048,3.022831,0.061339,0.116298,0.983317,0.992068,0
40.643951,0.03557,3.053168,0.041458,0.103672,0.997207,1.003439,0
40.678913,0.034962,3.078903,0.057702,0.087891,0.984779,0.990376,0
40.710635,0.031722,3.099941,0.064006,0.096874,0.999888,1.006607,0
40.738628,0.027992,3.123442,0.017941,0.102458,1.011586,1.016919,0
40.767032,0.028404,-3.129251,0.02376,0.105129,0.995502,1.001319,0
40.798409,0.031377,-3.102629,0.030306,0.088134,0.955048,0.959585,0
40.826138,0.027729,-3.076337,0.031276,0.081093,0.936283,0.940309,0
40.853773,0.027635,-3.044206,0.040488,0.127466,0.99867,1.007585,0
40.885302,0.031529,-3.020679,-0.015057,0.138392,1.022308,1.031743,0
40.912927,0.027625,-3.000231,-0.035051,0.108528,1.029619,1.035916,0
40.941312,0.028385,-2.971689,-0.034063,0.081821,0.98088,0.984876,0
40.975363,0.03405,-2.949255,0.003152,0.136207,0.979661,0.98909,0
41.007385,0.032022,-2.925001,0.014547,0.183308,0.987216,1.004196,0
41.042772,0.035387,-2.913142,0.006788,0.153202,0.996964,1.008689,0
41.070291,0.027519,-2.890347,-0.028386,0.158058,1.005006,1.017755,0
41.104902,0.034611,-2.865368,-0.0,0.189378,1.001107,1.018861,0
41.140277,0.035375,-2.842554,0.017699,0.190835,0.991115,1.009475,0
41.174425,0.034148,-2.826571,-0.001728,0.185494,0.995258,1.012398,0
41.206838,0.032413,-2.818722,0.016486,0.178938,0.988678,1.004876,0
41.235555,0.028717,-2.808122,0.024972,0.1617,0.981124,0.994673,0
41.267264,0.031709,-2.808028,0.000485,0.160971,0.983804,0.996886,0
41.294999,0.027735,-2.808595,-0.006911,0.145918,1.00135,1.01195,0
41.322782,0.027783,-2.795152,-0.007652,0.119454,0.992334,0.999527,0
41.354701,0.03192,-2.78951,0.007758,0.1078,0.982342,0.98827,0
41.383107,0.028406,-2.770166,0.013819,0.131836,0.979905,0.98883,0
41.418296,0.035189,-2.756127,0.009698,0.132079,1.005981,1.014661,0
41.453499,0.035203,-2.75742,-0.011601,0.088619,0.999401,1.003389,0
41.484993,0.031494,-2.767914,0.022063,0.083278,0.985754,0.989511,0
41.512766,0.027773,-2.779347,0.045822,0.094932,0.981124,0.98677,0
41.540737,0.027971,-2.785995,0.037094,0.081578,1.007199,1.011178,0
41.572764,0.032027,-2.799426,0.044368,0.055842,1.011098,1.013611,0
41.600834,0.028069,-2.801846,0.01285,0.038118,0.944569,0.945425,0
41.635835,0.035002,-2.810719,0.027396,0.03739,1.009392,1.010456,0
41.670652,0.034817,-2.818969,0.030063,0.036662,0.981611,0.982755,0
41.705516,0.034863,-2.827628,0.025942,0.024765,0.938964,0.939649,0
41.740622,0.035106,-2.846642,0.058187,0.035205,0.968939,0.971322,0
41.773086,0.032465,-2.871633,0.051883,0.062155,0.977955,0.981301,0
41.801546,0.02846,-2.88865,0.037822,0.086677,1.006224,1.010659,0
41.833564,0.032017,-2.910413,0.035397,0.097845,1.012317,1.01765,0
41.861552,0.027989,-2.920529,0.035882,0.118483,1.017922,1.025422,0
41.896831,0.035278,-2.936575,0.016244,0.138392,1.009149,1.018723,0
41.928998,0.032167,-2.95584,0.04655,0.137421,0.966989,0.977813,0
41.957452,0.028454,-2.962225,0.056975,0.128923,0.96309,0.97335,0
41.993783,0.036331,-2.974557,0.05746,0.102944,0.976006,0.983101,0
42.02531,0.031527,-2.981814,0.061824,0.110956,0.982586,0.990761,0
42.060424,0.035114,-2.987113,0.044125,0.066525,1.000619,1.003799,0
42.095387,0.034963,-3.000836,0.027881,0.104886,0.991602,0.997524,0
42.123303,0.027916,-3.009035,0.047277,0.093232,0.979905,0.985465,0
42.155352,0.032049,-3.027275,0.04364,0.069924,0.982342,0.985794,0
42.181156,0.025805,-3.042604,0.029336,0.072352,0.99867,1.001717,0
42.209582,0.028425,-3.052917,0.025457,0.067254,0.998913,1.001498,0
42.242137,0.032555,-3.070665,0.022063,0.041032,1.011342,1.012414,0
42.27036,0.028223,-3.080927,0.015274,-0.000965,1.015728,1.015844,0
42.305586,0.035226,-3.094004,-0.000987,0.001457,1.015241,1.015243,0
42.340839,0.035253,-3.115812,-0.000494,0.009712,0.937014,0.937065,0
42.372422,0.031584,3.140778,0.015759,0.016024,0.970888,0.971148,0
42.400454,0.028032,3.112311,0.040731,0.001942,0.95846,0.959327,0
42.428502,0.028048,3.08298,0.026669,0.007769,0.975762,0.976157,0
42.460205,0.031703,3.051073,0.034185,-0.009167,0.970157,0.970803,0
42.488339,0.028134,3.020545,0.055763,-0.001689,0.967476,0.969084,0
42.523509,0.035171,2.988425,0.053581,0.015296,0.986485,0.988057,0
42.555169,0.03166,2.955755,0.043155,0.018938,1.010123,1.011222,0
42.583279,0.02811,2.922918,0.06837,0.042731,0.945787,0.949218,0
42.611477,0.028198,2.88896,0.074431,0.03739,1.006955,1.010395,0
42.643122,0.031645,2.847801,0.034185,0.090562,0.999644,1.00432,0
42.678255,0.035133,2.80847,0.068127,0.002914,1.009636,1.011936,0
42.70627,0.028015,2.766301,0.060611,-0.018092,1.051552,1.053453,0
42.737991,0.031721,2.735589,0.045822,0.024279,1.000619,1.001962,0
42.766468,0.028477,2.715508,0.037579,0.18428,1.025964,1.043059,0
42.801822,0.035354,2.694766,-0.001481,0.022337,0.820771,0.821076,0
42.833366,0.031544,2.676527,0.103767,0.07041,0.984292,0.992247,0
42.861502,0.028136,2.661937,0.067158,0.13305,1.004031,1.015032,0
42.889376,0.027874,2.648145,0.062551,0.139363,0.991846,1.00354,0
42.920979,0.031603,2.638561,0.058672,0.140334,0.968451,0.980323,0
42.948986,0.028007,2.630703,0.051399,0.203217,0.939208,0.962315,0
42.976984,0.027997,2.620098,0.027396,0.131108,0.912157,0.921939,0
43.008557,0.031573,2.602568,0.044125,0.17214,0.960653,0.976951,0
43.042922,0.034366,2.583957,0.080734,0.186222,0.931897,0.953744,0
43.071114,0.028191,2.574907,0.008243,0.152717,0.891199,0.904227,0
43.106187,0.035074,2.570756,-0.020487,0.126738,0.95651,0.965087,0
43.141345,0.035158,2.567734,-0.002715,0.116783,1.05667,1.063107,0
43.173162,0.031817,2.554028,0.080492,-0.036908,0.986972,0.990937,0
43.201491,0.028329,2.541473,0.010668,0.109985,0.975275,0.981515,0
43.236818,0.035327,2.531849,0.004122,0.093718,0.996233,1.00064,0
43.270455,0.033636,2.514402,-0.030854,0.101002,0.972838,0.978553,0
43.298159,0.027704,2.496626,0.14571,0.069924,1.004518,1.017437,0
43.329513,0.031354,2.480075,0.133588,0.012868,1.000619,1.009579,0
43.357408,0.027894,2.464149,0.126072,0.065068,0.941157,0.95179,0
43.385622,0.028214,2.458628,0.159772,-0.047522,0.924098,0.939012,0
43.417038,0.031416,2.454926,0.140861,-0.056929,0.963821,0.975722,0
43.444941,0.027903,2.445179,0.083401,0.0017,0.899485,0.903345,0
43.472611,0.027671,2.426446,0.107161,-0.01375,0.988922,0.994806,0
43.504364,0.031753,2.424972,0.032003,-0.098903,0.902409,0.908377,0
43.532401,0.028036,2.429125,0.025214,-0.015197,0.890956,0.891442,0
43.567449,0.035048,2.435269,0.097221,-0.033048,0.968451,0.97388,0
43.598842,0.031393,2.441376,0.098675,-0.053552,1.014754,1.020946,0
43.626761,0.027919,2.440253,0.051883,-0.000482,1.062275,1.063541,0
43.654544,0.027783,2.429371,0.05552,-0.01182,0.996476,0.998092,0
43.685936,0.031392,2.405415,0.120496,-0.088047,1.040098,1.05075,0
43.713833,0.027897,2.390034,0.049459,-0.123266,1.005493,1.014228,0
43.741672,0.027839,2.385387,0.053581,-0.194428,0.921905,0.943707,0
43.773537,0.031865,2.378612,0.073461,0.055842,0.96309,0.9675,0
43.801617,0.02808,2.370102,0.045337,-0.066337,0.979174,0.982465,0
43.829903,0.028286,2.351422,0.072976,-0.002653,1.014023,1.016649,0
43.861211,0.031308,2.335374,0.115647,-0.101074,0.98088,0.992832,0
43.896253,0.035043,2.322691,0.128254,-0.098661,0.972107,0.985482,0
43.924055,0.027802,2.316416,0.12195,-0.075262,0.948224,0.958992,0
43.955742,0.031686,2.303416,0.016001,-0.103968,0.959678,0.965426,0
43.983803,0.028062,2.283627,0.092129,-0.056447,0.975031,0.980999,0
44.012372,0.028569,2.264606,0.129466,-0.0866,0.988678,1.000872,0
44.044371,0.031999,2.246619,0.109586,-0.064649,1.002325,1.010368,0
44.072407,0.028037,2.221173,0.107646,-0.038837,0.949199,0.956073,0
44.103856,0.031449,2.19646,0.102312,-0.064649,0.996476,1.003799,0
44.131935,0.028079,2.176958,0.122193,-0.032083,1.002081,1.010014,0
44.160299,0.028364,2.163499,0.158075,-0.075262,0.938477,0.954668,0
44.192566,0.032268,2.152977,0.222808,-0.051864,1.022065,1.047353,0
44.220941,0.028375,2.14535,0.016244,0.045159,1.040342,1.041448,0
44.254284,0.033343,2.13448,0.084129,0.032777,0.973813,0.977989,0
44.289184,0.0349,2.134163,0.057945,-0.02171,0.966014,0.967994,0
44.324146,0.034962,2.13974,0.17747,-0.079363,1.00793,1.026507,0
44.359012,0.034866,2.121951,0.028366,-0.02943,0.949199,0.950079,0
44.393913,0.034901,2.116968,0.08922,0.029378,1.008661,1.013026,0
44.428611,0.034698,2.103217,0.088978,-0.045833,0.995502,1.00052,0
44.463852,0.035242,2.084673,0.069097,-0.028465,0.984292,0.987124,0
44.495763,0.03191,2.08263,0.100373,-0.0275,1.0033,1.008683,0
44.523859,0.028096,2.071434,0.054065,-0.065855,0.976006,0.979718,0
44.559175,0.035316,2.061241,0.094069,0.067739,0.970888,0.977784,0
44.59398,0.034806,2.04969,0.081462,-0.081052,0.973813,0.980569,0
44.628657,0.034677,2.033778,0.101585,0.010926,0.960166,0.965586,0
44.66365,0.034993,2.034293,0.130193,0.071381,0.981124,0.992295,0
44.695522,0.031872,2.025208,0.127042,-0.097938,0.958947,0.972271,0
44.723824,0.028303,2.00718,0.062551,0.031077,0.989897,0.992358,0
44.759544,0.035719,1.998719,0.072006,-0.005066,1.002569,1.005164,0
44.791196,0.031652,1.978484,0.050186,-0.043662,0.976493,0.978756,0
44.819484,0.028288,1.959797,0.110798,-0.030636,0.936283,0.943314,0
44.847149,0.027665,1.946985,0.131891,0.001942,0.961384,0.970391,0
44.878328,0.031179,1.929684,0.128496,-0.056447,0.978443,0.988457,0
44.906182,0.027853,1.911095,0.12486,-0.008684,0.974787,0.98279,0
44.933858,0.027677,1.893931,0.08025,0.000486,0.944569,0.947972,0
44.965762,0.031903,1.872579,0.14474,-0.049934,0.951392,0.963634,0
44.993531,0.027769,1.853793,0.104494,-0.043662,0.961628,0.968273,0
45.021717,0.028186,1.836912,0.03564,0.050258,0.995014,0.99692,0
45.053989,0.032272,1.82389,0.100615,-0.005789,0.956023,0.96132,0
45.082313,0.028324,1.817338,0.071037,-0.00386,0.845628,0.848615,0
45.11361,0.031297,1.811049,0.058429,-0.061513,0.814191,0.818599,0
45.141627,0.028018,1.807986,0.091645,-0.000241,0.915813,0.920387,0
45.176858,0.035231,1.812108,0.055763,0.032049,0.855863,0.858277,0
45.211902,0.035044,1.815945,0.074673,0.003399,0.827595,0.830964,0
45.244182,0.032279,1.811005,0.080007,0.049772,0.892905,0.897863,0
45.272378,0.028196,1.810182,0.107646,-0.002171,0.840754,0.84762,0
45.307573,0.035195,1.815031,0.082432,-0.027259,0.876578,0.880867,0
45.339193,0.03162,1.82424,0.10304,0.009712,0.918493,0.924306,0
45.36723,0.028036,1.832819,0.148134,-0.047039,0.912645,0.925784,0
45.395345,0.028116,1.83547,0.067158,-0.050416,0.902897,0.906794,0
45.427121,0.031776,1.839542,0.064491,-0.020745,0.877065,0.879677,0
45.455419,0.028298,1.839433,0.027396,-0.091425,0.927023,0.931923,0
45.487329,0.03191,1.837552,0.037822,-0.01375,0.90509,0.905984,0
45.515447,0.028117,1.83662,0.070552,-0.065855,0.923611,0.92864,0
45.543552,0.028105,1.829939,0.080007,-0.019298,0.902166,0.905912,0
45.575295,0.031743,1.833411,0.071522,0.027921,0.945544,0.948656,0
45.610523,0.035228,1.83638,0.095039,-0.004101,0.999644,1.00416,0
45.638656,0.028133,1.839025,0.149104,-0.003377,1.155367,1.164953,0
45.669989,0.031332,1.843164,0.15565,0.009954,1.225795,1.235678,1
45.697736,0.027747,1.844957,0.178925,0.02525,1.249434,1.262433,0
45.725572,0.027836,1.856079,0.18135,0.014082,1.219703,1.233191,0
45.757695,0.032123,1.861725,0.130436,0.012625,1.135384,1.142921,0
45.786066,0.028371,1.866975,0.094796,0.041518,1.08835,1.093259,0
45.817751,0.031686,1.878084,0.047035,0.023551,1.12198,1.123213,0
45.846413,0.028662,1.889038,0.036124,0.061669,1.147812,1.150035,0
45.881311,0.034897,1.896837,0.030063,0.081336,1.150737,1.153999,0
45.916225,0.034914,1.907461,0.029578,0.078422,1.140989,1.144063,0
45.951398,0.035173,1.915069,0.038791,0.105615,1.083476,1.089302,0
45.983227,0.031829,1.908638,-0.211291,-0.13774,1.58208,1.602059,1
46.011453,0.028226,1.890782,0.325847,0.093718,1.075678,1.127849,0
46.039507,0.028054,1.895499,0.132375,0.052443,0.977468,0.987784,0
46.071619,0.032112,1.898745,0.027639,0.020395,1.031325,1.031897,0
46.100255,0.028636,1.903964,0.062551,0.051958,0.995014,0.998331,0
46.132323,0.032067,1.91188,0.061581,-0.021469,0.98746,0.989611,0
46.160492,0.028169,1.919122,0.067642,-0.016403,0.976981,0.979457,0
46.191909,0.031417,1.923858,0.024245,0.061912,0.983804,0.986048,0
46.219695,0.027786,1.92828,0.060854,0.040789,0.972594,0.975349,0
46.248022,0.028327,1.937714,0.036609,0.050015,1.021333,1.023212,0
46.28014,0.032118,1.949259,0.075643,0.012382,0.844166,0.847639,0
46.315681,0.035541,1.950023,-0.000741,0.002914,1.094442,1.094447,0
46.343672,0.027991,1.950705,0.096251,-0.018092,0.96504,0.969996,0
46.375482,0.03181,1.954404,0.037822,-0.014715,0.960409,0.961266,0
46.403688,0.028206,1.940531,0.030306,-0.032324,1.007443,1.008417,0
46.435308,0.031619,1.94384,0.08922,0.013111,0.956266,0.960509,0
46.46332,0.028012,1.953337,0.038791,-0.03932,1.000376,1.001899,0
46.49138,0.02806,1.952146,0.012122,-0.023881,1.012073,1.012427,0
46.522919,0.031539,1.954839,0.035882,-0.057653,0.970157,0.972531,0
46.5509,0.027981,1.956518,0.033215,-0.021469,1.053258,1.054,0
46.579008,0.028108,1.959216,0.059642,0.016995,0.986241,0.988189,0
46.610571,0.031563,1.961914,0.042428,0.002185,0.997939,0.998842,0
46.645687,0.035116,1.963956,0.060127,-0.001206,0.963821,0.965695,0
46.673685,0.027998,1.965967,0.043883,0.002428,1.023527,1.02447,0
46.705006,0.031321,1.967635,0.041458,-0.011338,0.950905,0.951876,0
46.732819,0.027813,1.969365,0.047035,-0.002895,1.00988,1.010979,0
46.76102,0.028201,1.971146,0.041943,0.006798,0.973813,0.974739,0
46.79282,0.0318,1.972713,0.012365,-0.001689,0.999888,0.999966,0
46.821106,0.028286,1.974333,0.048974,-0.009167,0.989653,0.990906,0
46.853191,0.032085,1.975717,0.056005,-0.005307,0.988191,0.989791,0
46.881564,0.028373,1.976984,0.037579,0.000971,0.938477,0.939229,0
46.909508,0.027944,1.978523,0.052368,0.006798,0.987947,0.989357,0
46.941586,0.032079,1.979947,0.042913,0.002185,0.998913,0.999837,0
46.969842,0.028256,1.981602,0.029578,0.0017,0.989409,0.989853,0
47.001913,0.03207,1.983122,0.039276,0.001942,0.996964,0.997739,0
47.030312,0.028399,1.984774,0.048247,-0.001206,0.98551,0.986691,0
47.066339,0.036027,1.985958,0.047519,0.000243,0.993308,0.994444,0
47.098203,0.031864,1.986772,0.04558,0.001214,0.985754,0.986808,0
47.126544,0.028341,1.98785,0.04267,0.000243,0.994527,0.995442,0
47.159141,0.032597,1.988816,0.033215,0.0017,0.992577,0.993134,0
47.186992,0.027851,1.989884,0.044368,0.003156,0.997451,0.998442,0
47.218475,0.031483,1.99078,0.048974,-0.00193,0.987947,0.989162,0
47.247949,0.029474,1.991621,0.049459,0.000971,0.991602,0.992836,0
47.279401,0.031452,1.992215,0.050671,0.0017,0.990628,0.991924,0
47.307166,0.027765,1.992877,0.044125,-0.000724,0.998182,0.999157,0
47.334841,0.027675,1.993816,0.035155,0.001457,0.992577,0.993201,0
47.366511,0.031671,1.994654,0.037579,0.000971,0.997207,0.997916,0
47.394669,0.028158,1.99529,0.043398,-0.000482,0.991115,0.992065,0
47.422997,0.028327,1.996105,0.048974,0.000486,0.994771,0.995975,0
47.454722,0.031725,1.997175,0.049459,0.000971,0.992334,0.993566,0
47.489997,0.035275,1.997726,0.045337,-0.0,0.993796,0.994829,0
47.518103,0.028106,1.998308,0.040973,0.000728,0.99672,0.997562,0
47.549879,0.031776,1.998431,0.039519,0.000971,0.995989,0.996773,0
47.577981,0.028102,1.998715,0.042428,0.000486,0.993552,0.994458,0
47.613291,0.035309,1.998817,0.050671,0.000971,0.993065,0.994357,0
47.645051,0.03176,1.998783,0.048732,-0.000965,0.993552,0.994747,0
47.67319,0.028139,1.998873,0.04267,-0.000724,0.994527,0.995442,0
47.701436,0.028245,1.99919,0.042186,0.000243,0.993796,0.994691,0
47.733276,0.031841,1.999375,0.039519,0.000486,0.997207,0.99799,0
47.762029,0.028753,1.999698,0.043398,0.001214,0.992821,0.99377,0
47.793659,0.031631,1.999784,0.048974,0.000486,0.992577,0.993785,0
47.822089,0.028429,1.999983,0.046792,-0.000965,0.993552,0.994654,0
47.853711,0.031622,2.000092,0.045822,0.000971,0.992334,0.993391,0
47.881973,0.028262,2.000226,0.042428,0.000728,0.994771,0.995675,0
47.910054,0.028081,2.000739,0.039761,0.000728,0.995258,0.996052,0
47.941638,0.031585,2.001342,0.04364,0.001214,0.993796,0.994754,0
47.97695,0.035311,2.001518,0.048247,-0.000482,0.993308,0.99448,0
48.005188,0.028238,2.001861,0.04461,-0.000241,0.994039,0.99504,0
48.036937,0.031749,2.002104,0.044852,0.001214,0.994527,0.995538,0
48.06525,0.028313,2.002532,0.042186,0.000243,0.995258,0.996152,0
48.097586,0.032336,2.002881,0.038549,0.000728,0.993552,0.9943,0
48.126228,0.028642,2.003585,0.045095,0.000728,0.995258,0.996279,0
48.161279,0.035051,2.004297,0.047519,-0.001206,0.992821,0.993958,0
48.196091,0.034812,2.004893,0.04558,0.000971,0.995258,0.996302,0
48.227722,0.031631,2.00535,0.046065,0.000243,0.992577,0.993646,0
48.256266,0.028544,2.005994,0.042913,0.000728,0.996233,0.997157,0
48.29167,0.035404,2.006306,0.040731,0.000971,0.997207,0.998039,0
48.323373,0.031703,2.006299,0.044368,-0.000482,0.993308,0.994299,0
48.351543,0.02817,2.00645,0.04655,-0.0,0.994771,0.995859,0
48.379337,0.027794,2.006844,0.045822,0.000486,0.991602,0.992661,0
48.410702,0.031365,2.007015,0.045095,0.000971,0.995989,0.99701,0
48.438519,0.027817,2.007149,0.041943,0.000728,0.996964,0.997846,0
48.467041,0.028521,2.007468,0.041216,0.000728,0.994283,0.995137,0
48.498867,0.031826,2.007368,0.049944,-0.000724,0.995014,0.996267,0
48.527122,0.028255,2.007347,0.044125,-0.000965,0.995014,0.995993,0
48.55878,0.031658,2.007272,0.045822,0.000971,0.993065,0.994122,0
48.586648,0.027868,2.007297,0.045337,0.000486,0.997939,0.998968,0
48.614542,0.027895,2.007524,0.040731,0.000486,0.993308,0.994143,0
48.645877,0.031335,2.007661,0.041943,0.000971,0.99672,0.997603,0
48.673962,0.028085,2.007995,0.047277,0.000243,0.994039,0.995163,0
48.709185,0.035223,2.008451,0.043883,0.000486,0.997451,0.998416,0
48.74433,0.035145,2.00896,0.043155,0.000728,0.993065,0.994002,0
48.776839,0.03251,2.009414,0.044368,-0.001689,0.995745,0.996735,0
48.805049,0.028209,2.009919,0.042186,0.0017,0.994527,0.995423,0
48.836856,0.031807,2.01026,0.044125,-0.060789,0.99672,0.999547,0
48.864939,0.028083,2.01057,0.046307,-0.0,0.995258,0.996335,0
48.892915,0.027976,2.011089,0.046792,0.000728,0.995502,0.996601,0
48.924458,0.031543,2.011408,0.043883,0.000728,0.996476,0.997443,0
48.952446,0.027989,2.011832,0.042428,0.000728,0.99672,0.997623,0
48.987802,0.035356,2.012564,0.050186,-0.100109,0.995989,1.002265,0
49.019778,0.031976,2.012307,0.056247,0.033263,0.981124,0.983297,0
49.048373,0.028595,2.010932,0.015032,0.021123,1.057401,1.057718,0
49.083846,0.035473,2.010909,0.070309,-0.009167,0.985754,0.9883,0
49.115407,0.03156,2.011095,0.026184,-0.030877,0.998913,0.999733,0
49.143344,0.027937,2.011064,0.042913,0.017967,0.994039,0.995127,0
49.171044,0.0277,2.011239,0.041458,0.002671,0.992577,0.993446,0
49.202281,0.031237,2.011345,0.045337,-0.017609,0.999157,1.00034,0
49.229936,0.027655,2.011447,0.056975,0.013354,0.990871,0.992598,0
49.25791,0.027974,2.011536,0.036367,0.022823,0.999401,1.000323,0
49.290196,0.032286,2.011679,0.049701,-0.041008,0.991846,0.993937,0
49.318884,0.028688,2.01213,0.038064,-0.03546,0.993796,0.995156,0
49.350833,0.031949,2.015028,0.079765,-0.044627,0.979418,0.983673,0
49.378691,0.027858,2.015799,-0.070101,-0.048245,1.130997,1.134194,0
49.406622,0.02793,2.011762,0.023275,-0.032324,0.983561,0.984367,0
49.437994,0.031373,2.011498,0.085826,0.036662,1.015728,1.020007,0
49.46601,0.028016,2.00616,0.014304,-0.000482,0.993308,0.993411,0
49.50154,0.03553,2.00341,0.030063,0.024279,1.009636,1.010375,0
49.533164,0.031624,2.004503,0.063278,0.060213,0.982342,0.986218,0
49.561533,0.02837,2.005523,0.048974,-0.003377,1.011829,1.01302,0
49.596865,0.035331,2.008988,0.073946,0.001214,1.045947,1.048558,0
49.628621,0.031756,2.012375,0.019396,0.01044,1.014023,1.014262,0
49.656958,0.028337,2.015168,0.040004,-0.002171,0.99672,0.997525,0
49.685565,0.028608,2.016871,-0.161431,0.077936,1.037418,1.052791,0
49.717254,0.031688,2.015076,0.044125,0.000971,1.012073,1.013035,0
49.745378,0.028124,2.017513,0.141588,0.004127,0.978443,0.988643,0
49.776952,0.031574,2.023752,0.082674,-0.002171,0.989165,0.992617,0
49.805056,0.028105,2.029197,0.1011,-0.000482,1.013535,1.018565,0
49.833072,0.028016,2.032981,0.057702,0.042003,0.995014,0.997571,0
49.865145,0.032073,2.034385,0.032973,0.027436,0.999157,1.000077,0
49.893236,0.028091,2.036999,0.050914,0.018695,0.994771,0.996248,0
49.925184,0.031947,2.03858,0.053823,-0.021228,1.004518,1.006183,0
49.95363,0.028446,2.040215,0.032245,0.022823,0.986485,0.987276,0
49.985322,0.031692,2.041848,0.050186,-0.034013,0.999401,1.001238,0
50.013514,0.028193,2.042867,0.059884,0.002671,0.996964,0.998764,0
50.041779,0.028265,2.043308,0.050186,0.001457,0.999888,1.001148,0
50.073386,0.031607,2.043172,0.043398,0.012868,0.991846,0.992879,0
50.110615,0.037229,2.043911,0.073461,-0.008925,0.995014,0.997762,0
50.142852,0.032237,2.044352,0.04364,0.003399,0.993796,0.994759,0
50.168872,0.02602,2.045082,0.048732,0.003399,1.00525,1.006436,0
50.196547,0.027675,2.045879,0.052853,0.00607,0.997451,0.998869,0
50.22463,0.028083,2.046904,0.051399,-0.001206,0.999401,1.000722,0
50.256385,0.031755,2.048099,0.051399,-0.010131,1.010611,1.011968,0
50.289851,0.033466,2.049784,0.0337,0.008012,0.983561,0.98417,0
50.318043,0.028193,2.049799,0.008486,0.002428,1.00988,1.009918,0
50.346387,0.028343,2.049279,0.065703,-0.012061,0.989409,0.991662,0
50.377959,0.031573,2.051336,-0.001234,0.068468,1.063006,1.065209,0
50.413363,0.035404,2.049586,0.050186,0.017481,0.854888,0.856539,0
50.441201,0.027838,2.048254,0.07831,-0.050899,1.03693,1.041128,0
50.473,0.031798,2.051298,0.067885,0.014082,0.974056,0.976521,0
50.500841,0.027841,2.054843,0.093099,-0.105174,0.91167,0.922427,0
50.528787,0.027946,2.056756,0.050914,0.214386,0.975518,1.000095,0
50.560234,0.031447,2.058619,0.105222,-0.028465,1.000132,1.006055,0
50.588473,0.028238,2.058451,0.069582,0.022337,0.97893,0.981654,0
50.62044,0.031967,2.055183,0.030548,0.030592,0.995502,0.99644,0
50.649787,0.029347,2.053336,0.07831,0.00437,1.051064,1.053987,0
50.681391,0.031604,2.053609,0.027154,0.014082,0.976737,0.977216,0
50.709317,0.027926,2.053566,0.063036,0.01044,1.003544,1.005576,0
50.737195,0.027877,2.054778,0.10304,-0.019539,1.025964,1.03131,0
50.76879,0.031596,2.056024,0.048974,0.039818,0.96967,0.971722,0
50.797035,0.028245,2.057363,0.06837,0.001457,0.972594,0.974995,0
50.832341,0.035306,2.057452,0.085099,-0.0275,0.99672,1.000724,0
50.864009,0.031668,2.058501,0.064006,0.030835,1.018165,1.020641,0
50.892364,0.028356,2.059513,0.046065,0.021851,0.977712,0.97904,0
50.920843,0.028479,2.060771,0.081219,-0.005789,1.009392,1.012671,0
50.952803,0.03196,2.061622,0.058914,-0.007719,0.976006,0.977813,0
50.981019,0.028216,2.06226,0.066188,0.000486,0.991846,0.994052,0
51.012529,0.03151,2.063193,0.074188,-0.003618,0.998913,1.001671,0
51.040557,0.028028,2.064121,0.056732,0.010926,0.993552,0.99523,0
51.075845,0.035288,2.063939,0.08825,0.061184,1.059838,1.065264,0
51.111309,0.035463,2.063112,0.047035,-0.013026,1.001107,1.002296,0
51.143657,0.032349,2.06347,0.047035,-0.006754,0.938964,0.940165,0
51.172995,0.029338,2.064486,0.050914,0.020152,0.971132,0.972674,0
51.205199,0.032204,2.065347,0.047277,0.019181,1.000619,1.001919,0
51.233718,0.028519,2.06623,0.071522,-0.144494,1.0323,1.044814,0
51.267297,0.033579,2.067309,0.060854,0.001457,0.986972,0.988848,0
51.299309,0.032012,2.068949,0.076855,-0.01568,0.987703,0.990813,0
51.327715,0.028407,2.070638,0.040488,-0.001447,0.949199,0.950063,0
51.363165,0.035449,2.071829,0.071037,-0.004583,1.055938,1.058335,0
51.394832,0.031668,2.072066,0.050429,0.002428,0.997207,0.998485,0
51.422675,0.027843,2.072133,0.052611,-0.004101,0.999401,1.000793,0
51.450485,0.02781,2.072634,0.055278,-0.00386,0.991602,0.99315,0
51.482569,0.032084,2.073087,0.064733,-0.000241,0.998182,1.000279,0
51.511936,0.029367,2.073681,0.044852,0.000971,0.999888,1.000894,0
51.543843,0.031907,2.074518,0.045822,0.000728,0.994283,0.995339,0
51.578964,0.035121,2.075493,0.048732,0.003885,0.995014,0.996214,0
51.607631,0.028667,2.084416,0.061339,0.008012,0.990384,0.992314,0
51.639192,0.03156,2.09131,0.098918,0.01044,1.024502,1.029319,0
51.667378,0.028186,2.091051,-0.00543,-0.020263,1.048384,1.048594,0
51.702476,0.035099,2.090866,0.059399,-0.007719,0.980392,0.98222,0
51.733955,0.031479,2.088886,0.055278,-0.004342,0.999888,1.001424,0
51.762303,0.028348,2.086434,0.027881,0.012625,0.987216,0.98769,0
51.790508,0.028205,2.085575,0.077583,-0.004825,0.99672,0.999747,0
51.822479,0.031971,2.085717,0.073461,0.003642,0.989165,0.991896,0
51.850599,0.02812,2.087066,0.053823,0.019909,0.989409,0.991072,0
51.882188,0.031589,2.086721,0.052853,-0.031601,0.997207,0.999107,0
51.91027,0.028082,2.085318,0.054793,-0.020987,0.989409,0.991147,0
51.93831,0.02804,2.084379,0.04364,0.007284,0.990628,0.991615,0
51.970624,0.032315,2.084059,0.032245,-0.012544,0.991846,0.992449,0
51.99933,0.028705,2.085176,0.095039,0.000243,1.01914,1.023562,0
52.030547,0.031217,2.085181,0.032488,0.00607,1.000619,1.001165,0
52.058405,0.027858,2.084961,0.04267,0.01214,0.936527,0.937577,0
52.086662,0.028257,2.084469,0.070794,0.008498,1.014266,1.016769,0
52.118227,0.031565,2.083979,0.050186,-0.027017,0.999401,1.001025,0
52.149838,0.03161,2.083311,0.037579,0.005341,0.992577,0.993303,0
52.178787,0.028949,2.083585,0.052853,0.005341,0.998426,0.999838,0
52.21361,0.034823,2.083046,0.060854,-0.012785,1.001838,1.003766,0
52.248783,0.035173,2.082513,0.041458,-0.000482,0.991115,0.991982,0
52.277117,0.028334,2.082105,0.05649,0.000243,0.991846,0.993454,0
52.308899,0.031781,2.0811,0.042428,-0.061513,0.994039,0.996844,0
52.336708,0.02781,2.079478,0.060369,-0.028223,0.945056,0.947403,0
52.364573,0.027864,2.078944,0.080492,-0.003136,1.004518,1.007743,0
52.39606,0.031488,2.078217,0.038549,0.011897,1.007443,1.00825,0
52.424143,0.028082,2.077391,0.039519,-0.004825,0.983317,0.984122,0
52.459168,0.035026,2.077739,0.050914,-0.008925,0.996964,0.998303,0
52.494327,0.035159,2.079151,0.053581,-0.000724,1.009149,1.01057,0
52.525775,0.031448,2.080123,0.035397,0.038847,0.987216,0.988614,0
52.553528,0.027753,2.08022,0.067158,-0.006272,0.993552,0.995839,0
52.581322,0.027794,2.081536,0.052368,-0.003136,1.014754,1.016109,0
52.613167,0.031845,2.082184,0.048247,0.005584,0.993796,0.994982,0
52.641064,0.027897,2.082968,0.055763,-0.006513,0.992577,0.994164,0
52.669248,0.028184,2.083831,0.05649,-0.025087,0.99867,1.000581,0
52.70095,0.031702,2.084101,0.044368,0.010926,1.00135,1.002392,0
52.736371,0.035421,2.085839,0.083886,0.043217,0.98746,0.991958,0
52.764835,0.028465,2.08619,0.032245,0.001457,1.019628,1.020138,0
52.796756,0.031921,2.086445,0.049944,-0.002653,0.992334,0.993593,0
52.832145,0.035389,2.086779,0.058914,-0.030153,0.983073,0.985298,0
52.860276,0.02813,2.087373,0.061581,-0.022434,0.992334,0.994496,0
52.892199,0.031924,2.086917,0.053096,0.009712,1.015728,1.017162,0
52.920243,0.028044,2.08661,0.053338,0.004856,1.059594,1.060947,0
52.955793,0.035551,2.086376,0.058672,-0.030877,0.986729,0.988953,0
52.987395,0.031602,2.086058,0.040973,-0.009649,0.991359,0.992252,0
53.015734,0.028339,2.086642,0.051883,-0.006272,0.994771,0.996142,0
53.050974,0.035239,2.08719,0.049944,-0.004342,1.055695,1.056884,0
53.082675,0.031701,2.087572,0.073461,-0.012544,0.999888,1.002662,0
53.110861,0.028186,2.087383,0.057217,-0.006272,0.99014,0.991812,0
53.139028,0.028168,2.087056,0.048489,-0.013267,0.991115,0.992389,0
53.171576,0.032548,2.086837,0.016729,0.032777,1.035712,1.036365,0
53.199742,0.028166,2.08952,0.096736,0.018452,0.994039,0.998906,0
53.231305,0.031563,2.089747,0.050914,0.034477,0.958947,0.960916,0
53.259403,0.028099,2.090226,0.052853,-0.00386,1.011342,1.012729,0
53.294256,0.034853,2.091157,0.039519,-0.022675,0.945544,0.946641,0
53.328989,0.034733,2.091353,0.036124,-0.068267,1.056182,1.059002,0
53.36377,0.034781,2.091157,0.043155,-0.026535,1.051796,1.053015,0
53.399396,0.035626,2.090162,0.078552,-0.018574,0.987216,0.99051,0
53.431054,0.031658,2.085543,0.027154,-0.012544,0.99209,0.992541,0
53.459506,0.028452,2.083009,0.069097,-0.068991,1.05667,1.061171,0
53.49441,0.034904,2.074819,0.043883,0.087891,1.103459,1.107823,0
53.529294,0.034884,2.064486,0.092857,-0.042456,1.001838,1.007027,0
53.564417,0.035123,2.054293,0.064976,-0.025329,0.96504,0.967556,0
53.596142,0.031725,2.047658,0.053581,-0.002171,1.001838,1.003272,0
53.624776,0.028634,2.042701,0.06934,-0.014232,1.058375,1.06074,0
53.660363,0.035587,2.038273,0.072249,0.009712,0.974544,0.977266,0
53.691738,0.031375,2.037068,0.087765,0.042731,0.986241,0.99106,0
53.719853,0.028115,2.037055,0.107404,-0.018816,0.973569,0.979656,0
53.747634,0.027781,2.037762,0.012122,0.001457,1.003544,1.003618,0
53.779472,0.031838,2.043968,0.085826,-0.001206,0.978687,0.982443,0
53.807617,0.028145,2.052264,0.051641,-0.041491,0.971376,0.973632,0
53.842978,0.035361,2.058872,0.069582,-0.077675,1.036199,1.041433,0
53.874656,0.031678,2.065662,0.051883,0.119211,0.868048,0.877731,0
53.908777,0.034122,2.067591,0.075158,0.018452,1.034737,1.037627,0
53.944158,0.035381,2.0681,0.071279,-0.024846,0.985266,0.988154,0
53.97274,0.028582,2.06865,0.081704,-0.018816,1.020359,1.023798,0
54.000118,0.027377,2.069164,0.064248,-0.002895,0.990871,0.992956,0
54.037492,0.037374,2.069994,0.064976,-0.050899,1.011098,1.014461,0
54.095324,0.057832,2.064673,0.002424,-0.069956,0.942132,0.944729,0
54.14075,0.045427,2.054677,0.042913,-0.038837,0.962602,0.964341,0
54.188712,0.047962,2.053755,0.115404,-0.012544,1.018897,1.025488,0
54.219963,0.031251,2.066317,0.139649,-0.116271,0.838561,0.858024,0
54.273781,0.053818,2.073335,0.035155,0.038847,0.991602,0.992986,0
54.304941,0.03116,2.084862,0.120253,-0.030394,0.991846,0.999572,0
54.347682,0.042741,2.106263,0.091645,-0.125196,1.012317,1.024138,0
54.384682,0.037,2.129188,0.099888,0.010197,0.941888,0.947225,0
54.418478,0.033796,2.136124,0.05552,-0.020263,0.993552,0.995308,0
54.453182,0.034704,2.132442,0.051641,-0.04921,0.962602,0.965242,0
54.490706,0.037524,2.118766,0.054793,0.01481,0.990384,0.992009,0
54.524446,0.03374,2.104221,0.084614,-0.039079,0.999401,1.003737,0
54.559081,0.034635,2.086686,0.022063,0.032534,0.973082,0.973875,0
54.600149,0.041068,2.077367,0.053823,-0.016645,1.02109,1.022643,0
54.640424,0.040275,2.077646,0.041701,0.040789,0.984779,0.986505,0
54.66898,0.028556,2.079399,-0.0,0.040789,0.97235,0.973206,0
54.7069,0.03792,2.080766,0.045095,0.001942,0.939695,0.940778,0
54.737755,0.030855,2.082401,0.053338,0.017481,0.992821,0.994406,0
54.776984,0.039229,2.083204,0.05552,0.003642,0.992334,0.993892,0
54.808179,0.031194,2.084145,0.045822,0.009469,0.996476,0.997574,0
54.843627,0.035449,2.085736,0.048247,0.016753,0.992577,0.99389,0
54.882818,0.03919,2.086688,0.046307,0.008498,0.993552,0.994667,0
54.916776,0.033958,2.0872,0.048732,0.010197,0.989653,0.990904,0
54.947809,0.031033,2.08774,0.052368,0.011168,0.995745,0.997184,0
54.98597,0.038161,2.088121,0.048974,0.014325,0.993065,0.994375,0
55.018973,0.033003,2.08841,0.043398,0.01651,0.996233,0.997314,0
55.050133,0.03116,2.08864,0.043883,0.01044,0.989409,0.990437,0
55.085401,0.035269,2.088658,0.051399,0.002671,0.992821,0.994154,0
55.114694,0.029292,2.088917,0.051156,0.011654,0.99672,0.9981,0
55.149452,0.034759,2.089053,0.050186,0.013111,0.995502,0.996852,0
55.1822,0.032748,2.089349,0.041458,0.009226,0.994283,0.99519,0
55.218018,0.035818,2.089539,0.044125,0.009712,0.992577,0.993605,0
55.250751,0.032733,2.090042,0.049459,0.01044,0.994039,0.995324,0
55.279953,0.029202,2.091109,0.048247,0.011411,0.996233,0.997466,0
55.318002,0.038049,2.091849,0.053338,0.016267,0.994527,0.996089,0
55.346322,0.02832,2.092416,0.048004,0.009712,0.995745,0.996949,0
55.373265,0.026943,2.092704,0.043883,0.009226,0.995014,0.996024,0
55.40029,0.027024,2.092863,0.044368,0.008498,0.994039,0.995065,0
55.434474,0.034184,2.092069,0.048489,0.008012,0.996476,0.997688,0
55.461332,0.026858,2.091208,0.048974,0.010926,0.995989,0.997252,0
55.495261,0.033929,2.090096,0.050671,0.011897,0.993308,0.994671,0
55.522048,0.026788,2.089289,0.049459,0.010926,0.995014,0.996303,0
55.555875,0.033827,2.08806,0.04461,0.010926,0.996476,0.997534,0
55.582586,0.026711,2.086749,0.046792,0.013111,0.996476,0.997661,0
55.609386,0.0268,2.085809,0.047762,0.012868,0.994527,0.995756,0
55.643505,0.034119,2.084856,0.043883,0.012625,0.995014,0.996061,0
55.677579,0.034074,2.083682,0.052853,0.004613,0.936771,0.938272,0
55.706137,0.028558,2.083172,0.053823,0.013596,1.003544,1.005078,0
55.737938,0.031801,2.082997,0.040973,0.019423,0.988191,0.98923,0
55.767461,0.029523,2.082563,0.048489,0.008741,1.00988,1.011081,0
55.791387,0.023926,2.082128,0.045822,0.023794,0.986241,0.987592,0
55.818133,0.026746,2.081758,0.040731,0.000728,1.004762,1.005588,0
55.851958,0.033825,2.080707,0.046307,0.017967,0.98551,0.986761,0
55.878935,0.026977,2.079386,0.051883,-0.000724,1.000132,1.001477,0
55.912688,0.033753,2.077682,0.048004,0.017967,0.982342,0.983678,0
