timestamp,dt,phase,accel_raw_x_g,accel_raw_y_g,accel_raw_z_g,accel_raw_x_mps2,accel_raw_y_mps2,accel_raw_z_mps2,accel_filt_x_mps2,accel_filt_y_mps2,accel_filt_z_mps2,accel_lin_x_mps2,accel_lin_y_mps2,accel_lin_z_mps2,gyro_x,gyro_y,gyro_z,step_state,step_count,velocity_x,velocity_y,velocity_z,pos_x,pos_y,pos_z,g_est_x,g_est_y,g_est_z
1769170343.28556,3.038848876953125,START_STILL,0.03176041692495346,0.0012139629106968641,1.0242578983306885,0.3115696900337935,0.011908976153936237,10.047969982624055,0.311754127127386,0.016642453171057735,10.04658259754703,-2.0330397605683448e-05,-0.007906817559814379,0.01616300270585036,0.00218105036765337,0.0025152391754090786,0.001262709149159491,INITIALIZING,0,-6.178100593204165e-05,-0.024027623661915173,0.04911692262086369,-0.00018774314049361913,-0.07301631718086325,0.14925890514580517,0.31177445752499167,0.024549270730872114,10.03041959484118
1769170343.325929,0.04019570350646973,START_STILL,0.03127552196383476,0.0019423406338319182,1.0249888896942139,0.30681287046521905,0.01905436161789112,10.055141007900238,0.3108164531789222,0.017100147209497676,10.048206678014234,-0.0009580043460694632,-0.007449123521374439,0.01778708317305444,-0.0005590105429291725,0.0006548427045345306,0.001826267340220511,INITIALIZING,0,-0.0001002886645845592,-0.02432704642236341,0.049831886942332704,-0.00019177431392031986,-0.0739941599260447,0.1512619328985071,0.31177445752499167,0.024549270730872114,10.03041959484118
1769170343.378694,0.05272173881530762,START_STILL,0.03176041692495346,0.0014567554462701082,1.0249888896942139,0.3115696900337935,0.014290770927909762,10.055141007900238,0.3109593906185503,0.016567027978746804,10.049522566042059,-0.0008150669064413418,-0.00798224275212531,0.019102971200879892,0.0012361817061901093,0.0009282687678933144,0.0011698445305228233,INITIALIZING,0,-0.0001432604091429604,-0.024747884139901342,0.05083902880058184,-0.00019932725179372913,-0.07529891140990008,0.15394225489655528,0.31177445752499167,0.024549270730872114,10.03041959484118
1769170343.4363215,0.05754852294921875,START_STILL,0.03200286254286766,0.0014567554462701082,1.024745225906372,0.3139480815455318,0.014290770927909762,10.052750666141511,0.31152653736154334,0.01613507572803314,10.050135144091175,-0.000247920163448323,-0.008414195002838975,0.0197155492499963,0.002736852504312992,0.0014777393080294132,0.0008154120296239853,INITIALIZING,0,-0.00015752784835874027,-0.02523210863412142,0.0519736295390517,-0.00020839274679014316,-0.076750981992688,0.15693326050883757,0.31177445752499167,0.024549270730872114,10.03041959484118
1769170343.4804592,0.04423642158508301,START_STILL,0.03200286254286766,0.0009711703169159591,1.025476336479187,0.3139480815455318,0.00952718080894556,10.059922860860825,0.3119860599185813,0.014881133392421413,10.05199250298939,0.00021160239358963828,-0.009668137338450702,0.021572908148211667,-6.211083382368088e-05,0.0017287838272750378,0.0010986268753185868,INITIALIZING,0,-0.00014816731566749637,-0.02565979243336761,0.052927937798712264,-0.0002149471386311406,-0.07788607938855617,0.15927460307893046,0.31177445752499167,0.024549270730872114,10.03041959484118
1769170343.5309095,0.05037236213684082,START_STILL,0.03151796758174896,0.002185133285820484,1.0232830047607422,0.30919126197695734,0.02143615753389895,10.038406276702881,0.3114557071358275,0.016125042743675225,10.049414322717086,-0.00031875038916417964,-0.00842422798719689,0.018994727875906392,0.001416221261024475,0.0016812561079859734,0.000736474059522152,INITIALIZING,0,-0.00016422352570173335,-0.026084140696262,0.05388474710996816,-0.00022321946553917712,-0.07919999916973659,0.16198890507400587,0.31177445752499167,0.024549270730872114,10.03041959484118
1769170343.5952914,0.06436514854431152,START_STILL,0.03151796758174896,0.0014567554462701082,1.025476336479187,0.30919126197695734,0.014290770927909762,10.059922860860825,0.3110259963601346,0.015776963497111586,10.05140846775498,-0.0007484611648570505,-0.008772307233760528,0.020988872913800805,0.0013791108503937721,0.0010498552583158016,0.0009819436818361282,INITIALIZING,0,-0.00021239833975740584,-0.026648771554439336,0.05523569903284263,-0.0002368905162282277,-0.0809152513093615,0.16554415904720368,0.31177445752499167,0.024549270730872114,10.03041959484118
1769170343.6348224,0.039515018463134766,START_STILL,0.03176041692495346,0.002185133285820484,1.0245015621185303,0.3115696900337935,0.02143615753389895,10.050360324382783,0.31112916999157897,0.016850876305208862,10.051209567596263,-0.0006452875334126973,-0.007698394425663252,0.020789972755084207,0.00012690015137195587,0.0010249568149447441,0.0021352707408368587,INITIALIZING,0,-0.00023789688855423927,-0.026952973752305914,0.056057215190107854,-0.0002462910161717708,-0.08198029856482025,0.16775926094043273,0.31177445752499167,0.024549270730872114,10.03041959484118
1769170343.687761,0.053038597106933594,START_STILL,0.03151796758174896,0.0024279258213937283,1.0213334560394287,0.30919126197695734,0.023817952307872474,10.019281203746797,0.31076142429770665,0.018172978375859027,10.04515070503445,-0.0010130332272850207,-0.006376292355013087,0.01473111019327078,0.0022146720439195633,-0.00021545076742768288,0.0002925863955169916,INITIALIZING,0,-0.0002916267497521462,-0.027291163353559474,0.05683853260858659,-0.0002617584898574794,-0.0834277835825092,0.17077389697160886,0.31177445752499167,0.024549270730872114,10.03041959484118
1769170343.7432215,0.05536460876464844,START_STILL,0.03151796758174896,0.0009711703169159591,1.025476336479187,0.30919126197695734,0.00952718080894556,10.059922860860825,0.31046346359586763,0.01653231493810288,10.04795393235658,-0.001310993929124038,-0.008016955792769235,0.01753433751540001,0.0018708379939198494,0.002173936925828457,-0.0003530938411131501,INITIALIZING,0,-0.00036420941573092776,-0.027735018974509626,0.057809314345074005,-0.0002819228016678234,-0.08496332205711303,0.17397448704327645,0.31177445752499167,0.024549270730872114,10.03041959484118
1769170343.7933092,0.05012774467468262,START_STILL,0.03297264501452446,0.002185133285820484,1.0252326726913452,0.32346164759248497,0.02143615753389895,10.057532519102097,0.31293005445407696,0.01746288903368699,10.049771605849061,0.0011555969290852897,-0.007086381697185125,0.019352011007882197,0.0002968898043036461,0.0009103743359446526,0.001430188538506627,INITIALIZING,0,-0.00030628194792289306,-0.028090243306893466,0.05877938701181877,-0.00029727602495176664,-0.0863714226014507,0.17692096514753924,0.31177445752499167,0.024549270730872114,10.03041959484118
1769170343.8433354,0.05047035217285156,START_STILL,0.030548185110092163,0.0014567554462701082,1.024745225906372,0.29967769593000415,0.014290770927909762,10.052750666141511,0.3104152303529797,0.016860934366565293,10.050336925041751,-0.0013592271720119786,-0.007688336364306821,0.01991733020057218,-0.0030213454738259315,-0.0006214659661054611,0.0013976600021123886,INITIALIZING,0,-0.0003748826219772467,-0.028478276350823374,0.05978462168138462,-0.00031619648290644024,-0.08780873123815254,0.17993831605831942,0.31177445752499167,0.024549270730872114,10.03041959484118
1769170343.8940582,0.05026102066040039,START_STILL,0.03248775377869606,0.0014567554462701082,1.0257201194763184,0.3187048645690084,0.014290770927909762,10.062314372062684,0.3119883067135295,0.01637320918560606,10.05260981649599,0.00021384918853784018,-0.008176061545266053,0.022190221654810216,0.0015333788469433784,-3.0435621738433838e-05,0.0007757112616673112,INITIALIZING,0,-0.0003641343434939365,-0.028889213549070696,0.0608999248704359,-0.0003344982466679503,-0.0892607325972051,0.18299920844044923,0.31177445752499167,0.024549270730872114,10.03041959484118
1769170343.9473765,0.05330348014831543,START_STILL,0.03127552196383476,0.0016995479818433523,1.0242578983306885,0.30681287046521905,0.016672565701883288,10.047969982624055,0.3110061938475592,0.016430016355483558,10.051729341822366,-0.0007682636774324902,-0.008119254375388556,0.021309746981186706,9.611248970031738e-07,0.0005610832013189793,-0.0007516404148191214,INITIALIZING,0,-0.00040508547117263104,-0.02932199806348834,0.062035808545613205,-0.00035609071203897166,-0.0908236971388912,0.186305932929745,0.31177445752499167,0.024549270730872114,10.03041959484118
1769170343.996797,0.0506749153137207,START_STILL,0.03151796758174896,0.0024279258213937283,1.0242578983306885,0.30919126197695734,0.023817952307872474,10.047969982624055,0.310661784631513,0.017831982605995233,10.051015949779778,-0.0011126728934786612,-0.0067172881248768815,0.020596354938598793,0.0005964804440736771,-8.849892765283585e-05,-0.00016636529471725225,STATIONARY,0,0.0,0.0,0.0,-0.0003794756690510442,-0.09232683654775845,0.1895024826229538,0.31177445752499167,0.024549270730872114,10.03041959484118
1769170344.0540693,0.05636429786682129,START_STILL,0.03224530443549156,0.0009711703169159591,1.0252326726913452,0.31632643651217224,0.00952718080894556,10.057532519102097,0.31173673314335193,0.016256027980551098,10.052252561780461,-3.772438163973657e-05,-0.008293242750321016,0.021832966939282272,-0.0009450847283005714,0.0005049556493759155,0.00011929101310670376,STATIONARY,0,0.0,0.0,0.0,-0.00037959551692449685,-0.09235318363323605,0.18957184451956016,0.31177445752499167,0.024549270730872114,10.03041959484118
1769170344.107917,0.05388069152832031,START_STILL,0.03127552196383476,0.0016995479818433523,1.0249888896942139,0.30681287046521905,0.016672565701883288,10.055141007900238,0.3108023599515183,0.016335071955909865,10.052800685641097,-0.000972097573473385,-0.00821419877496225,0.022381090799918013,0.0023493338376283646,0.00047298381105065346,0.0013114649336785078,STATIONARY,0,0.0,0.0,0.0,-0.00038241764150269127,-0.09237703051125074,0.18963681971151292,0.31177445752499167,0.024549270730872114,10.03041959484118
1769170344.158102,0.05027961730957031,START_STILL,0.030790632590651512,0.0014567554462701082,1.025476336479187,0.30205610571429137,0.014290770927909762,10.059922860860825,0.3091426334273567,0.01594713666984181,10.054152220000983,-0.0026318240976349605,-0.008602134061030303,0.02373262515980379,0.0010597370564937592,0.00045721884816884995,0.002188838552683592,STATIONARY,0,0.0,0.0,0.0,-0.00038907099787550026,-0.09239877704952666,0.18969681673524727,0.31177445752499167,0.024549270730872114,10.03041959484118
1769170344.2088153,0.05077219009399414,START_STILL,0.031033078208565712,0.0012139629106968641,1.0245015621185303,0.30443449722602967,0.011908976153936237,10.050360324382783,0.3082491974122626,0.015180838099587179,10.053432653708525,-0.0035252601127290784,-0.009368432631284935,0.023013058867345393,-0.0016732309013605118,-0.0007339823059737682,2.3881555534899235e-05,STATIONARY,0,0.0,0.0,0.0,-0.0003981584672845355,-0.09242292713837826,0.1897561401501948,0.31177445752499167,0.024549270730872114,10.03041959484118
1769170344.273966,0.0654153823852539,START_STILL,0.03224530443549156,0.002185133285820484,1.0252326726913452,0.31632643651217224,0.02143615753389895,10.057532519102097,0.3097819687692916,0.016367874206774755,10.054210661659658,-0.0019924887557000726,-0.00818139652409736,0.023791066818478868,0.001950802281498909,0.001687828917056322,0.0003233847673982382,STATIONARY,0,0.0,0.0,0.0,-0.0004066846698815627,-0.09245793674337176,0.1898579462231844,0.31177445752499167,0.024549270730872114,10.03041959484118
1769170344.3303828,0.05595254898071289,START_STILL,0.03273019939661026,0.00048558515845797956,1.025476336479187,0.32108325608074667,0.00476359040447278,10.059922860860825,0.31192654927189767,0.014165795797185122,10.05529463295392,0.00015209174690600236,-0.010383474933686992,0.024875038112741166,0.0009747873991727829,-0.0019770669750869274,0.0006078581791371107,STATIONARY,0,0.0,0.0,0.0,-0.0004062085181145584,-0.09249044416101866,0.18993582219997227,0.31177445752499167,0.024549270730872114,10.03041959484118
1769170344.4031281,0.07276177406311035,START_STILL,0.031033078208565712,0.0019423406338319182,1.024745225906372,0.30443449722602967,0.01905436161789112,10.052750666141511,0.31050482550722597,0.015093470906742424,10.054811878956539,-0.0012696320177656983,-0.00945579982412969,0.02439228411535943,0.0006470438092947006,0.0013517467305064201,0.0018140302272513509,STATIONARY,0,0.0,0.0,0.0,-0.0004129303001364436,-0.09254050577286446,0.1900649616786126,0.31177445752499167,0.024549270730872114,10.03041959484118
1769170344.4473867,0.04474520683288574,START_STILL,0.031033078208565712,0.0012139629106968641,1.0249888896942139,0.30443449722602967,0.011908976153936237,10.055141007900238,0.3093528941106074,0.014489167594269586,10.054874335869282,-0.0024215634143842646,-0.010060103136602529,0.0244547410281033,-0.00027541909366846085,-0.0013455310836434364,-4.318193532526493e-05,STATIONARY,0,0.0,0.0,0.0,-0.00041777859345434355,-0.09256064744271496,0.1901139233357029,0.31177445752499167,0.024549270730872114,10.03041959484118
1769170344.5006497,0.05304551124572754,START_STILL,0.030548185110092163,0.0024279258213937283,1.0242578983306885,0.29967769593000415,0.023817952307872474,10.047969982624055,0.30751688721996406,0.016259437587275067,10.05356413633672,-0.004257570305027603,-0.008289833143597047,0.02314454149554024,-0.0005867267027497292,0.0004355008713901043,0.0005285736406221986,STATIONARY,0,0.0,0.0,0.0,-0.00042975865659656415,-0.09258397359293295,0.19017904805441557,0.31177445752499167,0.024549270730872114,10.03041959484118
1769170344.5609715,0.06006503105163574,START_STILL,0.03224530443549156,0.0012139629106968641,1.0240141153335571,0.31632643651217224,0.011908976153936237,10.045578471422196,0.30918862488383775,0.015433875462346048,10.052048742487855,-0.002585832641153918,-0.009115395268526066,0.021629147646676117,2.33333557844162e-05,-0.0001695193350315094,0.00020056241191923618,STATIONARY,0,0.0,0.0,0.0,-0.00043908784417022293,-0.09261686018849784,0.19025708186536017,0.31177445752499167,0.024549270730872114,10.03041959484118
1769170344.632723,0.07189607620239258,START_STILL,0.03297264501452446,0.0012139629106968641,1.0242578983306885,0.32346164759248497,0.011908976153936237,10.047969982624055,0.31189713457575513,0.014764975528901911,10.051274739612108,0.00012267705076346447,-0.009784295201970203,0.020855144770928646,2.3674219846725464e-06,0.0016379263252019882,0.00018883042503148317,STATIONARY,0,0.0,0.0,0.0,-0.0004384537208794931,-0.0926674356582563,0.1903648830632899,0.31177445752499167,0.024549270730872114,10.03041959484118
1769170344.703733,0.0710761547088623,START_STILL,0.03224530443549156,0.0012139629106968641,1.0249888896942139,0.31632643651217224,0.011908976153936237,10.055141007900238,0.31273765781095925,0.014223008901011804,10.052008419179758,0.0009632002859675803,-0.01032626182986031,0.021588824338579116,-0.0011989064514636993,0.0013082684017717838,0.0007780878804624081,STATIONARY,0,0.0,0.0,0.0,-0.00043358780663410796,-0.09271960207189998,0.1904739459128557,0.31177445752499167,0.024549270730872114,10.03041959484118
1769170344.7799244,0.07609176635742188,START_STILL,0.030305739492177963,0.0009711703169159591,1.0242578983306885,0.29729930441826585,0.00952718080894556,10.047969982624055,0.3098080099959928,0.013331908525249514,10.051242068227014,-0.0019664475289988825,-0.0112173622056226,0.020822473385834428,0.0008674431592226028,0.00033348239958286285,-0.0007392490515485406,STATIONARY,0,0.0,0.0,0.0,-0.00044497345308765993,-0.09278455011568515,0.19059450713646503,0.31177445752499167,0.024549270730872114,10.03041959484118
1769170344.8353255,0.055474042892456055,START_STILL,0.03273019939661026,0.002185133285820484,1.0245015621185303,0.32108325608074667,0.02143615753389895,10.050360324382783,0.31194764880430265,0.014869805397811775,10.051074744752748,0.00017319127931098022,-0.00967946533306034,0.020655149911569026,0.002355167642235756,0.000887636560946703,0.0007616521324962378,STATIONARY,0,0.0,0.0,0.0,-0.00044444047953832853,-0.09281433740644665,0.19065807066347482,0.31177445752499167,0.024549270730872114,10.03041959484118
1769170344.9160213,0.08054924011230469,START_STILL,0.03200286254286766,0.0009711703169159591,1.0249888896942139,0.3139480815455318,0.00952718080894556,10.055141007900238,0.3123272594570879,0.013855966158948007,10.051846376198286,0.0005528019320962252,-0.010693304571924108,0.02142678135710696,0.0011007077991962433,-0.0015090140514075756,0.00012052571401000023,STATIONARY,0,0.0,0.0,0.0,-0.0004408538010528405,-0.09288371749218813,0.1907970914795117,0.31177445752499167,0.024549270730872114,10.03041959484118
1769170344.9882758,0.07240152359008789,START_STILL,0.030790632590651512,0.0016995479818433523,1.0245015621185303,0.30205610571429137,0.016672565701883288,10.050360324382783,0.31037816149603137,0.01439045610659367,10.051564376664821,-0.0013962960289602977,-0.010158814624278444,0.02114478182364188,-0.0010431231930851936,0.0011935052461922169,9.632017463445663e-05,STATIONARY,0,0.0,0.0,0.0,-0.0004481731577738726,-0.09293696980155214,0.1909079320160066,0.31177445752499167,0.024549270730872114,10.03041959484118
1769170345.0367112,0.04944109916687012,START_STILL,0.03345753625035286,0.0019423406338319182,1.0245015621185303,0.32821843061596156,0.01905436161789112,10.050360324382783,0.3137636070883284,0.015275498717216212,10.051335890566113,0.001989149563336734,-0.009273772013655902,0.02091629572493403,-0.0007484303787350655,-1.7190352082252502e-05,0.0007038023322820663,STATIONARY,0,0.0,0.0,0.0,-0.0004433108362494175,-0.09295963881654529,0.1909590602754345,0.31177445752499167,0.024549270730872114,10.03041959484118
1769170345.0943978,0.05645298957824707,START_STILL,0.03224530443549156,0.0019423406338319182,1.0245015621185303,0.31632643651217224,0.01905436161789112,10.050360324382783,0.31424994053534283,0.015992591865586533,10.051150762964442,0.002475483010351165,-0.008556678865285581,0.020731168123262478,-0.0007184380665421486,-0.0003270106390118599,0.0009806433226913214,STATIONARY,0,0.0,0.0,0.0,-0.00043542162034439723,-0.09298690843896479,0.1910251292650433,0.31177445752499167,0.024549270730872114,10.03041959484118
1769170345.1450279,0.05061769485473633,START_STILL,0.03224530443549156,0.00048558515845797956,1.023526668548584,0.31632643651217224,0.00476359040447278,10.04079661846161,0.314643985272276,0.013861728634383601,10.04918591632264,0.0028695277472843284,-0.010687542096488513,0.01876632148146129,-0.0006995378062129021,0.0014856848865747452,-0.00023809843696653843,STATIONARY,0,0.0,0.0,0.0,-0.0004280694568641716,-0.0930142915359812,0.19107321141500153,0.31177445752499167,0.024549270730872114,10.03041959484118
1769170345.1962733,0.05145716667175293,START_STILL,0.03176041692495346,0.002185133285820484,1.023526668548584,0.3115696900337935,0.02143615753389895,10.04079661846161,0.3140605938898605,0.01529908458230395,10.047593927363552,0.0022861363648688515,-0.009250186148568163,0.017174332522372993,-0.0015771184116601944,-0.0006709764711558819,0.00035529513843357563,STATIONARY,0,0.0,0.0,0.0,-0.0004220161335475089,-0.09303878454889027,0.19111868629965995,0.31177445752499167,0.024549270730872114,10.03041959484118
1769170345.2502692,0.053789615631103516,START_STILL,0.03200286254286766,0.0012139629106968641,1.024745225906372,0.3139480815455318,0.011908976153936237,10.052750666141511,0.3140392430673126,0.0146557631414068,10.048572492117767,0.0022647855423209573,-0.009893507589465314,0.018152897276587865,-0.0024557318538427353,0.0017386414110660553,0.0021603899076581,STATIONARY,0,0.0,0.0,0.0,-0.0004154633780146252,-0.0930674096594736,0.191171208490324,0.31177445752499167,0.024549270730872114,10.03041959484118
1769170345.299911,0.04974222183227539,START_STILL,0.03248775377869606,0.0024279258213937283,1.0249888896942139,0.3187048645690084,0.023817952307872474,10.055141007900238,0.31492461131159527,0.0163944192525274,10.049818961700383,0.0031501537866036045,-0.008154851478344716,0.019399366859204292,-0.0003020660951733589,-0.0009816265664994717,0.0002966802567243576,STATIONARY,0,0.0,0.0,0.0,-0.00040766898830882446,-0.09308758711578874,0.19121920812322749,0.31177445752499167,0.024549270730872114,10.03041959484118
1769170345.3475204,0.04822373390197754,START_STILL,0.03200286254286766,0.0014567554462701082,1.0245015621185303,0.3139480815455318,0.014290770927909762,10.050360324382783,0.3147393008563526,0.01599522197021938,10.04992169299298,0.0029648433313609335,-0.008554048760652733,0.019502098151800595,0.001794956624507904,0.00024219509214162827,0.0006123261991888285,STATIONARY,0,0.0,0.0,0.0,-0.00040077416060976595,-0.09310747980006996,0.19126456080851256,0.31177445752499167,0.024549270730872114,10.03041959484118
1769170345.4036937,0.05613589286804199,START_STILL,0.031033078208565712,0.0009711703169159591,1.0242578983306885,0.30443449722602967,0.00952718080894556,10.047969982624055,0.31278381734905564,0.014767818880443803,10.04955132810546,0.0010093598240639712,-0.009781451850428311,0.01913173326428108,0.000589447095990181,0.00021393457427620888,1.655356027185917e-05,STATIONARY,0,0.0,0.0,0.0,-0.0003975934271040287,-0.09313830348741482,0.19132484946233624,0.31177445752499167,0.024549270730872114,10.03041959484118
1769170345.44721,0.04353785514831543,START_STILL,0.03200286254286766,0.002185133285820484,1.0245015621185303,0.3139480815455318,0.02143615753389895,10.050360324382783,0.3130047530908728,0.016033231277001413,10.049704846691018,0.001230295565881112,-0.008516039453870701,0.019285251849838758,-0.0009014131501317024,0.00019166246056556702,0.0006216475740075111,STATIONARY,0,0.0,0.0,0.0,-0.00039526134670362425,-0.09315444602198149,0.19136140552179312,0.31177445752499167,0.024549270730872114,10.03041959484118
1769170345.5016377,0.05696535110473633,START_STILL,0.03176041692495346,0.002185133285820484,1.0242578983306885,0.3115696900337935,0.02143615753389895,10.047969982624055,0.3127324294017738,0.01705851361769691,10.049375631483038,0.0009579718767821488,-0.007490757113175206,0.01895603664185863,0.0008900519460439682,-0.0007358118891716003,0.0011712436098605394,STATIONARY,0,0.0,0.0,0.0,-0.00039215267888993336,-0.09317875391253891,0.19142291883174709,0.31177445752499167,0.024549270730872114,10.03041959484118
1769170345.5617442,0.05713319778442383,START_STILL,0.03273019939661026,0.0014567554462701082,1.0257201194763184,0.32108325608074667,0.014290770927909762,10.062314372062684,0.314317117905199,0.016533294954975925,10.051830942104798,0.00254266038020734,-0.00801597577589619,0.021411347263619263,0.001196015626192093,0.0019560782238841057,0.0005467475857585669,STATIONARY,0,0.0,0.0,0.0,-0.00038385292105652257,-0.09320491967901576,0.19149280980049715,0.31177445752499167,0.024549270730872114,10.03041959484118
1769170345.6126761,0.059211015701293945,START_STILL,0.03176041692495346,0.0014567554462701082,1.0249888896942139,0.3115696900337935,0.014290770927909762,10.055141007900238,0.31379575426909706,0.016107744026791215,10.05245907431413,0.002021296744105394,-0.008441526704080899,0.022039479472951484,0.0021024737507104874,-0.0010616425424814224,0.0005184300243854523,STATIONARY,0,0.0,0.0,0.0,-0.0003767663670954481,-0.09323451520212575,0.19157007898970183,0.31177445752499167,0.024549270730872114,10.03041959484118
1769170345.683264,0.06229877471923828,START_STILL,0.03321509063243866,0.0012139629106968641,1.0240141153335571,0.32584003910422327,0.011908976153936237,10.045578471422196,0.3160813291521517,0.015310967919173236,10.051153381749952,0.004306871627160036,-0.009238302811698879,0.0207337869087727,0.0014570318162441254,0.00015475181862711906,-9.944848716259003e-05,STATIONARY,0,0.0,0.0,0.0,-0.0003600508068412199,-0.09327037032404811,0.1916505496640972,0.31177445752499167,0.024549270730872114,10.03041959484118
1769170345.7410612,0.059162139892578125,START_STILL,0.03248775377869606,0.0019423406338319182,1.024745225906372,0.3187048645690084,0.01905436161789112,10.052750666141511,0.3165791824274316,0.016021330280433763,10.051456489251677,0.0048047249024399385,-0.008527940450438351,0.021036894410498164,-0.0009434586390852928,0.0019362489692866802,-0.00010118074715137482,STATIONARY,0,0.0,0.0,0.0,-0.0003432335067083702,-0.09330021946983319,0.1917241821351227,0.31177445752499167,0.024549270730872114,10.03041959484118
1769170345.7958145,0.05455207824707031,START_STILL,0.03176041692495346,0.002185133285820484,1.024745225906372,0.3115696900337935,0.02143615753389895,10.052750666141511,0.3156285597754033,0.01704887100501927,10.05170207778052,0.0038541022504116063,-0.0075003997258528445,0.021282482939341207,0.0008847378194332123,-0.002017037943005562,-9.276135824620724e-05,STATIONARY,0,0.0,0.0,0.0,-0.00033176397112327934,-0.0933225401286971,0.19178751729842455,0.31177445752499167,0.024549270730872114,10.03041959484118
1769170345.853576,0.05730438232421875,START_STILL,0.03127552196383476,0.0014567554462701082,1.0242578983306885,0.30681287046521905,0.014290770927909762,10.047969982624055,0.31395565695551914,0.016525482165624845,10.050993859478849,0.0021811994305274696,-0.00802378856524727,0.02057426463766987,-0.0021326038986444473,-0.0001883888617157936,0.00020558247342705727,STATIONARY,0,0.0,0.0,0.0,-0.00032460136537346726,-0.0933488885832714,0.19185507890885295,0.31177445752499167,0.024549270730872114,10.03041959484118
1769170345.9080465,0.053467512130737305,START_STILL,0.03273019939661026,0.0016995479818433523,1.0252326726913452,0.32108325608074667,0.016672565701883288,10.057532519102097,0.3153082205788562,0.016553393365067982,10.052234663429296,0.003533763053864547,-0.007995877365804132,0.02181506858811666,-0.0018116943538188934,-0.001983905676752329,0.0005040767136961222,STATIONARY,0,0.0,0.0,0.0,-0.0003144991324170267,-0.09337174699641602,0.19191744327835897,0.31177445752499167,0.024549270730872114,10.03041959484118
1769170345.965364,0.057419538497924805,START_STILL,0.03200286254286766,0.0009711703169159591,1.0249888896942139,0.3139480815455318,0.00952718080894556,10.055141007900238,0.3150501147922044,0.015220069289698894,10.05278618375742,0.0032756572672127393,-0.00932920144117322,0.022366588916240104,-0.00025990698486566544,-0.00014121970161795616,0.0010878739412873983,STATIONARY,0,0.0,0.0,0.0,-0.0003036992792654852,-0.09340250540529912,0.19199118599809162,0.31177445752499167,0.024549270730872114,10.03041959484118
1769170346.016005,0.05059981346130371,START_STILL,0.03248775377869606,0.0016995479818433523,1.023526668548584,0.3187048645690084,0.016672565701883288,10.04079661846161,0.31574365570460056,0.015495701206650388,10.050510992687633,0.00396919817960889,-0.009053569524221726,0.020091397846453418,-0.0005565909668803215,-0.0016481033526360989,0.001367054646834731,STATIONARY,0,0.0,0.0,0.0,-0.0002935367779435999,-0.09342568563165576,0.19204262683020276,0.31177445752499167,0.024549270730872114,10.03041959484118
1769170346.0671039,0.05114483833312988,START_STILL,0.03151796758174896,0.0019423406338319182,1.0242578983306885,0.30919126197695734,0.01905436161789112,10.047969982624055,0.31450024551189987,0.016171007791025725,10.050028799775525,0.0027257879869082013,-0.008378262939846389,0.019609204934345925,0.0012839455157518387,-0.0009824777953326702,0.00040545035153627396,STATIONARY,0,0.0,0.0,0.0,-0.0002864066767516563,-0.09344760144567385,0.19209392048038648,0.31177445752499167,0.024549270730872114,10.03041959484118
1769170346.1163023,0.04909873008728027,START_STILL,0.03273019939661026,0.0012139629106968641,1.024745225906372,0.32108325608074667,0.011908976153936237,10.052750666141511,0.31574946568702883,0.01536222648156129,10.050545312751288,0.0039750081620371636,-0.009187044249310824,0.02012571791010842,0.0012815259397029877,-0.0018556760624051094,0.0013079755008220673,STATIONARY,0,0.0,0.0,0.0,-0.0002768241830232235,-0.09346974851816105,0.19214243725262753,0.31177445752499167,0.024549270730872114,10.03041959484118
1769170346.1678095,0.05223727226257324,START_STILL,0.03224530443549156,0.0009711703169159591,1.0245015621185303,0.31632643651217224,0.00952718080894556,10.050360324382783,0.3158589541327319,0.014254943316693539,10.050510208569138,0.00408449660774024,-0.010294327414178576,0.02009061372795884,0.00093851238489151,-1.7263926565647125e-05,8.33701342344284e-05,STATIONARY,0,0.0,0.0,0.0,-0.00026567868392022133,-0.09349783898510948,0.19219725916553093,0.31177445752499167,0.024549270730872114,10.03041959484118
1769170346.2168632,0.04832625389099121,START_STILL,0.03127552196383476,0.0009711703169159591,1.025476336479187,0.30681287046521905,0.00952718080894556,10.059922860860825,0.3141423306965126,0.01335778292994792,10.052296393631622,0.002367873171520929,-0.011191487800924195,0.021876798790442464,-0.00027882400900125504,-0.00031194044277071953,0.001582087716087699,STATIONARY,0,0.0,0.0,0.0,-0.00026014868942060896,-0.09352397588582104,0.19224835082805547,0.31177445752499167,0.024549270730872114,10.03041959484118
1769170346.2683122,0.051451921463012695,START_STILL,0.03176041692495346,0.0012139629106968641,1.0237704515457153,0.3115696900337935,0.011908976153936237,10.043188129663468,0.3136541354269448,0.01308285117410017,10.05056797059623,0.0018796779019531473,-0.011466419556771945,0.020148375755050907,0.002738509327173233,-0.0009071887470781803,-0.07831493020057678,STATIONARY,0,0.0,0.0,0.0,-0.0002551726176930362,-0.09355433094086194,0.1923016896276695,0.31177445752499167,0.024549270730872114,10.03041959484118
1769170346.3196816,0.05146288871765137,START_STILL,0.03200286254286766,0.0024279258213937283,1.0242578983306885,0.3139480815455318,0.023817952307872474,10.047969982624055,0.3137099158966705,0.015119989771723207,10.050074965313064,0.0019354583716788554,-0.009429280959148908,0.01965537047188448,-0.0002800552174448967,-0.00028139958158135414,0.0022520730271935463,STATIONARY,0,0.0,0.0,0.0,-0.00025004669377738306,-0.09357930372120336,0.19235374547916553,0.31177445752499167,0.024549270730872114,10.03041959484118
1769170346.3681397,0.04864215850830078,START_STILL,0.03176041692495346,0.0024279258213937283,1.0240141153335571,0.3115696900337935,0.023817952307872474,10.045578471422196,0.31330377750462673,0.0167705522566285,10.049221691445876,0.0015293199796350687,-0.007778718474243614,0.018802096604696672,-0.00031109806150197983,0.0005985954776406288,0.0007108421996235847,STATIONARY,0,0.0,0.0,0.0,-0.00024642823158203467,-0.09359770863260328,0.1923982323600429,0.31177445752499167,0.024549270730872114,10.03041959484118
1769170346.41921,0.050835609436035156,START_STILL,0.03200286254286766,0.0016995479818433523,1.023526668548584,0.3139480815455318,0.016672565701883288,10.04079661846161,0.3134260433886623,0.016751957909893228,10.04762291364675,0.001651585863670646,-0.007797312820978886,0.01720331880557069,0.0014606919139623642,-0.0020988150499761105,0.0006871491204947233,STATIONARY,0,0.0,0.0,0.0,-0.00024216010564116528,-0.09361785890989273,0.19244269019470847,0.31177445752499167,0.024549270730872114,10.03041959484118
1769170346.4696374,0.05042099952697754,START_STILL,0.03127552196383476,0.0009711703169159591,1.0252326726913452,0.30681287046521905,0.00952718080894556,10.057532519102097,0.3121710994764229,0.015380953379226852,10.04950340266206,0.0003966419514312425,-0.009168317351645262,0.019083807820880594,0.0005868133157491684,-0.00025734584778547287,0.0006591987330466509,STATIONARY,0,0.0,0.0,0.0,-0.00024115173185413583,-0.09364116731399674,0.1924912065240928,0.31177445752499167,0.024549270730872114,10.03041959484118
1769170346.521201,0.053005218505859375,START_STILL,0.03224530443549156,0.0016995479818433523,1.0242578983306885,0.31632643651217224,0.016672565701883288,10.047969982624055,0.31295963396307314,0.01562605524486008,10.049212414332573,0.00118517643808147,-0.008923215486012034,0.01879281949139333,-8.109956979751587e-06,8.68597999215126e-05,5.1769427955150604e-05,STATIONARY,0,0.0,0.0,0.0,-0.00023782191561316952,-0.0936662375625203,0.19254400595002238,0.31177445752499167,0.024549270730872114,10.03041959484118
1769170346.5682244,0.04569196701049805,START_STILL,0.03151796758174896,0.0016995479818433523,1.0242578983306885,0.30919126197695734,0.016672565701883288,10.047969982624055,0.3122445316154141,0.01582464553462561,10.04897664519013,0.0004700740904224343,-0.008724625196246505,0.018557050348951165,0.0005927588790655136,-0.001722878310829401,0.0006254073232412338,STATIONARY,0,0.0,0.0,0.0,-0.00023684051568129114,-0.09368445244980661,0.19258274854043395,0.31177445752499167,0.024549270730872114,10.03041959484118
1769170346.6237257,0.0555264949798584,START_STILL,0.03224530443549156,0.0014567554462701082,1.0242578983306885,0.31632643651217224,0.014290770927909762,10.047969982624055,0.31301913130603576,0.015533570944240573,10.048785616606182,0.0012446737810440922,-0.009015699786631541,0.01836602176500257,0.0011534132063388824,-0.0010648546740412712,0.001460036262869835,STATIONARY,0,0.0,0.0,0.0,-0.0002330029478791388,-0.09371224958006032,0.19263937450528706,0.31177445752499167,0.024549270730872114,10.03041959484118
1769170346.6772962,0.05339217185974121,START_STILL,0.03200286254286766,0.0014567554462701082,1.025476336479187,0.3139480815455318,0.014290770927909762,10.059922860860825,0.3131954128672961,0.015297731910136907,10.050899067598358,0.0014209553423044086,-0.009251538820735207,0.020479472757179096,0.00021407008171081543,0.000482228584587574,0.0008107733447104692,STATIONARY,0,0.0,0.0,0.0,-0.00022895219635931,-0.09373862316396062,0.19269775583010892,0.31177445752499167,0.024549270730872114,10.03041959484118
1769170346.727358,0.05158543586730957,START_STILL,0.03151796758174896,0.0026707183569669724,1.0245015621185303,0.30919126197695734,0.026199747081846,10.050360324382783,0.31243556810870743,0.01736654482781795,10.050796833386963,0.0006611105837157627,-0.007182725903054164,0.020377238545783882,0.0014283210039138794,0.00046615535393357277,0.0013742538867518306,STATIONARY,0,0.0,0.0,0.0,-0.00022719294328473467,-0.09375773680839473,0.1927519808273273,0.31177445752499167,0.024549270730872114,10.03041959484118
1769170346.7874436,0.05875110626220703,START_STILL,0.03151796758174896,0.0026707183569669724,1.025476336479187,0.30919126197695734,0.026199747081846,10.059922860860825,0.31181991473375215,0.0190427709786533,10.052528627300994,4.545720876047987e-05,-0.005506499752218813,0.02210903245981477,0.0005252398550510406,-0.00015502749010920525,-0.0004733470268547535,STATIONARY,0,0.0,0.0,0.0,-0.00022703603897877462,-0.09377674355221932,0.19282829440856442,0.31177445752499167,0.024549270730872114,10.03041959484118
1769170346.8318331,0.04473066329956055,START_STILL,0.03127552196383476,0.0016995479818433523,1.0245015621185303,0.30681287046521905,0.016672565701883288,10.050360324382783,0.31086975664838984,0.018592990711711253,10.052117160887125,-0.0009047008766018272,-0.005956280019160862,0.02169756604594575,-9.286589920520782e-05,0.0010008662939071655,0.00044837500900030136,STATIONARY,0,0.0,0.0,0.0,-0.00022884619365952892,-0.09378866106930747,0.19287170759822173,0.31177445752499167,0.024549270730872114,10.03041959484118
1769170346.8896594,0.05766105651855469,START_STILL,0.03297264501452446,0.002185133285820484,1.023526668548584,0.32346164759248497,0.02143615753389895,10.04079661846161,0.3132592476033076,0.019132522179629945,10.049968926451914,0.001484790078315923,-0.005416748551242169,0.01954933161073491,0.0004654061049222946,-0.0014046053402125835,0.0010239346884191036,STATIONARY,0,0.0,0.0,0.0,-0.0002239095674099351,-0.09380667066101746,0.19293670516589206,0.31177445752499167,0.024549270730872114,10.03041959484118
1769170346.9409144,0.05184316635131836,START_STILL,0.03176041692495346,0.0024279258213937283,1.0240141153335571,0.3115696900337935,0.023817952307872474,10.045578471422196,0.31293862994960564,0.020021649393409127,10.049135774971484,0.001164172424613974,-0.004527621337462987,0.01871618013030485,0.0013760272413492203,-0.00047203199937939644,-0.0005167375784367323,STATIONARY,0,0.0,0.0,0.0,-0.0002207806050054112,-0.09381883961180801,0.19298700890333323,0.31177445752499167,0.024549270730872114,10.03041959484118
1769170346.9906054,0.04964709281921387,START_STILL,0.029820848256349564,0.007283777464181185,1.0379048585891724,0.29254252139478926,0.07145385692361743,10.181846662759781,0.3090681773604249,0.029781644554621726,10.0743195593131,-0.0027062801645667545,0.005232373823749612,0.04389996447192068,-0.01739943027496338,-0.0038378203753381968,-0.00022445025388151407,STATIONARY,0,0.0,0.0,0.0,-0.00022745113589604343,-0.09380594267982009,0.19309521502069746,0.31177445752499167,0.024549270730872114,10.03041959484118
1769170347.0375867,0.046230316162109375,START_STILL,0.030305739492177963,0.005098644178360701,1.030593991279602,0.29729930441826585,0.05001769938971848,10.110127054452896,0.30683486581335717,0.03362172466700218,10.081114542380748,-0.0049395917116344945,0.009072453936130067,0.0506949475395686,-0.011002767831087112,-0.004777352791279554,0.0009640399366617203,STATIONARY,0,0.0,0.0,0.0,-0.00023800823941924252,-0.0937865526490231,0.1932035623984813,0.31177445752499167,0.024549270730872114,10.03041959484118
1769170347.107344,0.06992053985595703,START_STILL,0.03151796758174896,-0.0012061294401064515,1.021089792251587,0.30919126197695734,-0.01183212980744429,10.016890861988069,0.30728202560406087,0.024996207291173096,10.068927182748174,-0.004492431920930795,0.00044693656030098117,0.038507587906995155,0.018336540088057518,0.008254374377429485,0.0009369546314701438,STATIONARY,0,0.0,0.0,0.0,-0.00025997120849637875,-0.09378436762896579,0.19339182144777173,0.31177445752499167,0.024549270730872114,10.03041959484118
1769170347.1682575,0.06265473365783691,START_STILL,0.03224530443549156,0.061426520347595215,1.0281569957733154,0.31632643651217224,0.6025941646099091,10.086220128536224,0.3089983316103185,0.13460366027179987,10.072208765929595,-0.0027761259146731887,0.11005438954092776,0.041789171088415955,-0.005181772634387016,-0.0036574979312717915,0.0009369546314701438,STATIONARY,0,0.0,0.0,0.0,-0.0002708692118326533,-0.09335233639506195,0.19355586967178584,0.31177445752499167,0.024549270730872114,10.03041959484118
1769170347.2241378,0.05388903617858887,START_STILL,0.03176041692495346,0.0029135108925402164,1.0249888896942139,0.3115696900337935,0.028581541855819525,10.055141007900238,0.30948628355669605,0.11448445068676096,10.068969915338135,-0.002288173968295615,0.08993517995588884,0.03855032049695595,-0.003262782469391823,-0.0015243417583405972,0.0006003787275403738,STATIONARY,0,0.0,0.0,0.0,-0.0002775141336094418,-0.09309116209447613,0.19366782089040896,0.31177445752499167,0.024549270730872114,10.03041959484118
1769170347.2862172,0.06252551078796387,START_STILL,0.031033078208565712,0.002185133285820484,1.0252326726913452,0.30443449722602967,0.02143615753389895,10.057532519102097,0.30852763502670977,0.09682720954272432,10.066799506225227,-0.0032468224982818983,0.07227793881185221,0.0363799113840475,-0.0035148942843079567,-0.0012186579406261444,0.0008705726359039545,STATIONARY,0,0.0,0.0,0.0,-0.00029020738973142726,-0.09280859586555738,0.19381004595295465,0.31177445752499167,0.024549270730872114,10.03041959484118
1769170347.3444366,0.0584559440612793,START_STILL,0.03248775377869606,0.0016995479818433523,1.0206023454666138,0.3187048645690084,0.016672565701883288,10.012109009027482,0.310458909530707,0.08161672230910043,10.05642120411364,-0.0013155479942846826,0.05706745157822832,0.02600160927246087,0.004945028573274612,0.003606561105698347,0.0020629409700632095,STATIONARY,0,0.0,0.0,0.0,-0.00029470274535713597,-0.09261359082536762,0.19389889598429386,0.31177445752499167,0.024549270730872114,10.03041959484118
1769170347.3974109,0.052320003509521484,START_STILL,0.031033078208565712,0.0031563034281134605,1.0249888896942139,0.30443449722602967,0.03096333662979305,10.055141007900238,0.3093156913457153,0.07200451970553325,10.05617826861761,-0.0024587661792763726,0.047455248974661135,0.025758673776431706,0.00043974630534648895,0.0025602183304727077,0.00023276172578334808,STATIONARY,0,0.0,0.0,0.0,-0.00030143332952495066,-0.09248368764460947,0.1939694073339963,0.31177445752499167,0.024549270730872114,10.03041959484118
1769170347.4434483,0.04890251159667969,START_STILL,0.03127552196383476,0.0026707183569669724,1.0237704515457153,0.30681287046521905,0.026199747081846,10.043188129663468,0.3088407453759418,0.06331241060434296,10.05371320442099,-0.0029337121490498608,0.03876313987347085,0.023293609579811303,-0.0005086138844490051,0.002346184104681015,0.0008457902586087584,STATIONARY,0,0.0,0.0,0.0,-0.00030844917199129195,-0.09239098731511698,0.1940251129680127,0.31177445752499167,0.024549270730872114,10.03041959484118
1769170347.5056498,0.05944418907165527,START_STILL,0.03176041692495346,0.002185133285820484,1.026938557624817,0.3115696900337935,0.02143615753389895,10.074267250299455,0.3093586015585722,0.055365794136496546,10.057613627870623,-0.0024158559664194668,0.030816523405624432,0.027194033029443787,0.0026375092566013336,-0.0018403124995529652,0.001993561163544655,STATIONARY,0,0.0,0.0,0.0,-0.0003169858686929172,-0.09228209369009585,0.19412120611896755,0.31177445752499167,0.024549270730872114,10.03041959484118
1769170347.5670633,0.06262922286987305,START_STILL,0.03273019939661026,0.009468910284340382,1.0371737480163574,0.32108325608074667,0.09289000988937915,10.174674468040466,0.3115835220295845,0.0624865494328996,10.079827592397697,-0.00019093549540716293,0.03793727870202748,0.04940799755651781,-0.028522547334432602,-0.004991418682038784,0.0006476874696090817,STATIONARY,0,0.0,0.0,0.0,-0.000317734797814282,-0.09213328776616488,0.19431500501486948,0.31177445752499167,0.024549270730872114,10.03041959484118
1769170347.6292467,0.060898780822753906,START_STILL,0.03176041692495346,0.008983325213193893,1.0240141153335571,0.3115696900337935,0.0881264203414321,10.045578471422196,0.3115808972110423,0.06735208074135868,10.073328333061019,-0.00019356031394934803,0.04280281001048657,0.04290873821983965,-0.0449446365237236,-0.012915510684251785,-0.08976612240076065,STATIONARY,0,0.0,0.0,0.0,-0.00031845264749965675,-0.0919745466323433,0.19447413900056346,0.31177445752499167,0.024549270730872114,10.03041959484118
1769170347.681432,0.05231356620788574,START_STILL,0.03321509063243866,0.006312606856226921,1.024745225906372,0.32584003910422327,0.0619266732595861,10.052750666141511,0.31428677282018763,0.06632253226750393,10.069423427181848,0.002512315295195966,0.041773261536631814,0.03900383234066851,-0.017462627962231636,0.06868267059326172,-0.1591280847787857,STATIONARY,0,0.0,0.0,0.0,-0.0003115771710944105,-0.09186022536278987,0.19458088114773153,0.31177445752499167,0.024549270730872114,10.03041959484118
1769170347.7330558,0.05135631561279297,START_STILL,0.044852495193481445,0.006798191927373409,1.025476336479187,0.440002977848053,0.06669026280753315,10.059922860860825,0.33814321631500194,0.0663923143838793,10.06762055917803,0.02636875879001027,0.041843043653007186,0.03720096433685072,0.050808876752853394,0.029290225356817245,-0.3286919891834259,STATIONARY,0,0.0,0.0,0.0,-0.00024203033043688406,-0.09174986554218792,0.1946789976180457,0.31177445752499167,0.024549270730872114,10.03041959484118
1769170347.784043,0.05111980438232422,START_STILL,0.07006686925888062,0.05389995500445366,1.0337620973587036,0.6873559874296189,0.5287585585936905,10.141206175088882,0.40441132184616074,0.15413290579336347,10.081584479641739,0.09263686432116908,0.12958363506249135,0.05116488480055992,0.01629498414695263,0.016767486929893494,-0.5110352635383606,STATIONARY,0,0.0,0.0,0.0,5.1510123395771736e-08,-0.09141123312935429,0.194812703455083,0.31177445752499167,0.024549270730872114,10.03041959484118
1769170347.836037,0.05200791358947754,START_STILL,0.022547468543052673,0.006312606856226921,1.0330308675765991,0.22119066640734675,0.0619266732595861,10.134032810926438,0.36964258847093623,0.13663545766546145,10.091537298782384,0.05786813094594456,0.11208618693458934,0.06111770394120519,0.033093780279159546,0.027152199298143387,-0.1521519422531128,STATIONARY,0,0.0,0.0,0.0,0.00015657456606695813,-0.09110805982444053,0.19497801603105105,0.31177445752499167,0.024549270730872114,10.03041959484118
1769170347.894426,0.0584568977355957,START_STILL,0.022789916023612022,-0.016644585877656937,1.0242578983306885,0.22356907619163396,-0.16328338745981455,10.047969982624055,0.34192305548783497,0.07972157786631237,10.083269778967246,0.030148597962843304,0.05517230713544026,0.05285018412606668,-0.002276195213198662,0.0020415503531694412,-0.014474448747932911,STATIONARY,0,0.0,0.0,0.0,0.00025959862313314544,-0.09091952452585716,0.19515861615023647,0.31177445752499167,0.024549270730872114,10.03041959484118
1769170347.949544,0.05517888069152832,START_STILL,0.04073091223835945,0.007526569999754429,1.019627571105957,0.39957024905830624,0.07383565169759095,10.002546472549438,0.3528624329192786,0.07860463940139746,10.067951379896543,0.041087975394286935,0.05405536867052535,0.03753178505536425,0.02605179324746132,0.005372131243348122,0.004330909810960293,STATIONARY,0,0.0,0.0,0.0,0.00038469954644602364,-0.09075494166515868,0.19527288950926547,0.31177445752499167,0.024549270730872114,10.03041959484118
1769170348.0133145,0.0640726089477539,START_STILL,0.02375970035791397,0.017481066286563873,1.026938557624817,0.23308266051113607,0.1714892602711916,10.074267250299455,0.33013251220903134,0.09623082139461253,10.069149906413902,0.01835805468403967,0.07168155066374042,0.03873031157272244,-0.00892046932131052,-0.0034268368035554886,0.0036575226113200188,STATIONARY,0,0.0,0.0,0.0,0.0004600648539728803,-0.09046066745131884,0.19543188902705352,0.31177445752499167,0.024549270730872114,10.03041959484118
1769170348.0744119,0.06108999252319336,START_STILL,0.03466976806521416,0.009711703285574913,1.0310814380645752,0.3401104247197509,0.0952718092314899,10.114908907413483,0.332025963462634,0.09604883515445117,10.077833329696395,0.020251505937642356,0.07149956442357906,0.047413734855215495,-0.0011711753904819489,0.00299871526658535,0.06754226982593536,STATIONARY,0,0.0,0.0,0.0,0.0005356432146391626,-0.09019383199305087,0.19560883647799654,0.31177445752499167,0.024549270730872114,10.03041959484118
1769170348.127964,0.055516719818115234,START_STILL,0.03515465557575226,0.01626710407435894,1.0259637832641602,0.34486717119812965,0.15958029096946122,10.064704713821412,0.3344627658357181,0.10810483529745687,10.075341987528397,0.022688308310726435,0.08355556456658476,0.04492239268721754,-0.0063911620527505875,-0.0008991374634206295,0.06201043352484703,STATIONARY,0,0.0,0.0,0.0,0.0006055709898829479,-0.08993630487118003,0.1957472920620896,0.31177445752499167,0.024549270730872114,10.03041959484118
1769170348.1850803,0.05511903762817383,START_STILL,0.04388270899653435,-0.05017498508095741,1.031325101852417,0.43048937525600195,-0.49221660364419223,10.117299249172211,0.35268518498308127,-0.005814722516610596,10.083303976528788,0.0409107274580896,-0.03036399324748271,0.05288438168760834,0.003382681868970394,0.06293627619743347,0.021998761221766472,STATIONARY,0,0.0,0.0,0.0,0.0007298622109028971,-0.09002855397136132,0.19590796054151402,0.31177445752499167,0.024549270730872114,10.03041959484118
1769170348.238937,0.054075002670288086,START_STILL,0.020850349217653275,0.005584229249507189,1.046190619468689,0.20454192582517863,0.054781288937665526,10.26312997698784,0.32457288800072503,0.005684235179015326,10.117428525690123,0.012798430475733369,-0.018865035551856788,0.08700893084894368,-0.09533675014972687,0.06983238458633423,0.10934658348560333,STATIONARY,0,0.0,0.0,0.0,0.0007672861771442405,-0.0900837173333824,0.1961623838707621,0.31177445752499167,0.024549270730872114,10.03041959484118
1769170348.284428,0.04700660705566406,START_STILL,0.0053338101133704185,-0.024846268817782402,1.0717787742614746,0.05232467721216381,-0.24374189710244537,10.514149775505066,0.27290990584339697,-0.04164793197941757,10.192712042857258,-0.038864551681594695,-0.06619720271028968,0.16229244801607834,-0.05990072712302208,-0.15138879418373108,0.009588155895471573,STATIONARY,0,0.0,0.0,0.0,0.0006814102434389424,-0.09022998806970783,0.19652098868938656,0.31177445752499167,0.024549270730872114,10.03041959484118
1769170348.3404655,0.0551300048828125,START_STILL,0.008485606871545315,0.018209444358944893,1.061056137084961,0.08324380340985954,0.1786346491612494,10.408960704803468,0.2369180569438504,0.00015383055954348163,10.23374831167722,-0.07485640058114126,-0.024395440171328633,0.20332871683604026,0.0529482439160347,-0.3817894160747528,-0.004132657777518034,STATIONARY,0,0.0,0.0,0.0,0.00045389787977840115,-0.09030413355643749,0.19713896920418955,0.31177445752499167,0.024549270730872114,10.03041959484118
1769170348.3966932,0.05530905723571777,START_STILL,0.04727695509791374,-0.0016885813092812896,1.0400981903076172,0.46378692951053385,-0.01656498264404945,10.203363246917725,0.2799696622473963,-0.0030188027728376824,10.227982312135948,-0.03180479527759539,-0.027568073503709798,0.19756271729476893,0.06669270992279053,-0.2858835756778717,0.046569157391786575,STATIONARY,0,0.0,0.0,0.0,0.00035660409095270723,-0.09038846682437368,0.19774333169508249,0.31177445752499167,0.024549270730872114,10.03041959484118
1769170348.4549298,0.05826592445373535,START_STILL,0.053580544888973236,0.03714726120233536,0.9781991243362427,0.5256251453608275,0.3644146323949099,9.596133409738542,0.32658629493041347,0.06670693371628042,10.108079968329411,0.014811837405421802,0.04215766298540831,0.07766037348823218,0.11825615912675858,0.0011696983128786087,0.05651918053627014,STATIONARY,0,0.0,0.0,0.0,0.00040688906366912034,-0.09024534501747125,0.19800698229123154,0.31177445752499167,0.024549270730872114,10.03041959484118
1769170348.5102432,0.056849002838134766,START_STILL,0.04024602472782135,-0.016403360292315483,1.0308376550674438,0.3948135025799275,-0.1609169644676149,10.112517396211624,0.33953338097822106,0.023512051529932035,10.108922033578763,0.02775892345322939,-0.0010372192009400795,0.07850243873758345,0.05320580676198006,0.1612095683813095,0.06577946245670319,STATIONARY,0,0.0,0.0,0.0,0.0004966006057490865,-0.09024869711194812,0.1982606871889756,0.31177445752499167,0.024549270730872114,10.03041959484118
1769170348.5620277,0.05442190170288086,START_STILL,0.035639550536870956,0.005341436713933945,1.0366864204406738,0.3496239907667041,0.052399494163692,10.16989378452301,0.3414482181481293,0.028993855906298882,10.120492293203279,0.029673760623137646,0.004444585175426768,0.09007269836209986,0.010139809921383858,0.1868659108877182,0.13389092683792114,STATIONARY,0,0.0,0.0,0.0,0.0005844866699814923,-0.09023553339120592,0.19852745940751487,0.31177445752499167,0.024549270730872114,10.03041959484118
1769170348.6228354,0.05619192123413086,START_STILL,0.010425174608826637,-0.014714779332280159,1.064224123954773,0.10227096291258932,-0.14435198524966836,10.440038655996323,0.29606092162969955,-0.003900990574962314,10.18113077450532,-0.01571353589529212,-0.028450261305834428,0.15071117966414072,-0.07202156633138657,-0.20866933465003967,0.2875235378742218,STATIONARY,0,0.0,0.0,0.0,0.0005348706773706672,-0.09032536600202837,0.19900333478186807,0.31177445752499167,0.024549270730872114,10.03041959484118
1769170348.6772797,0.0544278621673584,START_STILL,0.04291292652487755,-0.025811171159148216,1.01719069480896,0.42097580920904876,-0.253207589071244,9.978640716075898,0.31976530370627665,-0.05121047449227119,10.14270539699641,0.007990846181284983,-0.0757597452231433,0.1122858021552311,0.01258327066898346,-0.31098926067352295,0.18459273874759674,STATIONARY,0,0.0,0.0,0.0,0.0005585426976105594,-0.09054979607884446,0.19933596936411,0.31177445752499167,0.024549270730872114,10.03041959484118
1769170348.7256238,0.04845237731933594,START_STILL,0.10013016313314438,0.02986348792910576,1.034493088722229,0.9822769003361465,0.2929608165845275,10.148377200365067,0.4454863312075159,0.014100938275008953,10.143781702605127,0.13371187368252424,-0.01044833245586316,0.1133621077639475,0.015675077214837074,0.005347520112991333,0.09410325437784195,STATIONARY,0,0.0,0.0,0.0,0.0008724490870955178,-0.09057432492753255,0.19960210197427053,0.31177445752499167,0.024549270730872114,10.03041959484118
1769170348.7780707,0.05231809616088867,START_STILL,0.07006686925888062,-0.014473553746938705,1.0483838319778442,0.6873559874296189,-0.1419855622574687,10.284645391702652,0.4913845492255812,-0.015518702084250963,10.170512597311035,0.17961009170058956,-0.040067972815123074,0.14009300246985568,-0.005094340071082115,0.15256604552268982,0.21536000072956085,STATIONARY,0,0.0,0.0,0.0,0.0013640748101163276,-0.0906839983090152,0.19998556218509325,0.31177445752499167,0.024549270730872114,10.03041959484118
1769170348.8322263,0.05533885955810547,START_STILL,0.05915680527687073,-0.004100840073078871,1.0391234159469604,0.5803282597661019,-0.04022924111690372,10.193800710439682,0.5082628872589218,-0.02020787941050113,10.174931849028276,0.1964884297339301,-0.04475715014137324,0.1445122541870969,-0.08516810089349747,0.11472058296203613,-0.014269368723034859,STATIONARY,0,0.0,0.0,0.0,0.001965798890074597,-0.09082106213016151,0.20042811497718985,0.31177445752499167,0.024549270730872114,10.03041959484118
1769170348.8841426,0.052802324295043945,START_STILL,0.06982442736625671,0.06579678505659103,1.0110981464385986,0.6849776324629784,0.6454664614051581,9.918872816562653,0.5417970313473998,0.1061133239228046,10.126340994428434,0.2300225738224081,0.0815640531919325,0.09592139958725454,-0.11658739298582077,0.13489916920661926,-0.21380558609962463,STATIONARY,0,0.0,0.0,0.0,0.002607121481540993,-0.09059365458013584,0.20069555203581468,0.31177445752499167,0.024549270730872114,10.03041959484118
1769170348.9544902,0.06846857070922852,START_STILL,0.10934310406446457,0.013596383854746819,1.046190619468689,1.0726558508723976,0.1333805256150663,10.26312997698784,0.6425350661052485,0.11128766446457455,10.15229865543497,0.3307606085802568,0.08673839373370244,0.12187906059379117,-0.08879302442073822,-0.07065699249505997,-0.04642850533127785,STATIONARY,0,0.0,0.0,0.0,0.004157709080603171,-0.09018702974574774,0.20126691438985456,0.31177445752499167,0.024549270730872114,10.03041959484118
1769170349.0015483,0.047528743743896484,START_STILL,-0.0034556991886347532,-0.007478002924472094,0.9920898675918579,-0.03390040904050693,-0.07335920868907124,9.732401601076127,0.5141717840039021,0.07624828593013891,10.072617198706855,0.2023973264789104,0.0516990151992668,0.042197603865675504,-0.011824005283415318,-0.19344089925289154,0.04123065620660782,STATIONARY,0,0.0,0.0,0.0,0.004614920893099629,-0.09007024262778153,0.20136223799556652,0.31177445752499167,0.024549270730872114,10.03041959484118
1769170349.0535202,0.052371978759765625,START_STILL,0.028366170823574066,0.03399096056818962,1.02303946018219,0.2782721357792616,0.3334513231739402,10.036017104387284,0.4694064601773492,0.12505623175813552,10.065671808636846,0.15763200265235755,0.1005069610272634,0.03525221379566723,0.10118606686592102,-0.012624794617295265,-0.12889531254768372,STATIONARY,0,0.0,0.0,0.0,0.005047277758239697,-0.08979456970690684,0.20145892861923104,0.31177445752499167,0.024549270730872114,10.03041959484118
1769170349.105675,0.05237770080566406,START_STILL,0.02497193031013012,-0.005065743811428547,1.0232830047607422,0.24497463634237648,-0.04969494679011405,10.038406276702881,0.4268173196399747,0.0918947024567661,10.060497784955535,0.11504286211498305,0.067345431725894,0.030078190114355863,-0.19233468174934387,-0.2001604288816452,-0.20372630655765533,STATIONARY,0,0.0,0.0,0.0,0.005362889054469069,-0.08960981266408491,0.20154144583408212,0.31177445752499167,0.024549270730872114,10.03041959484118
1769170349.16593,0.060240983963012695,START_STILL,0.09382656961679459,0.06579678505659103,1.0415602922439575,0.9204386479407549,0.6454664614051581,10.217706466913224,0.520489009171428,0.1969428415152914,10.090330375250371,0.20871455164643637,0.17239357078441928,0.059910780409191844,0.001004164107143879,0.2137007862329483,0.14568860828876495,STATIONARY,0,0.0,0.0,0.0,0.006120309184308142,-0.08898420050749628,0.201758860627245,0.31177445752499167,0.024549270730872114,10.03041959484118
1769170349.2385783,0.0725710391998291,START_STILL,0.021092794835567474,-0.017368264496326447,1.0059806108474731,0.20692031733691693,-0.17038267470896246,9.868669792413712,0.46098487621709056,0.12723758418537878,10.04826711722967,0.1492104186920989,0.10268831345450667,0.0178475223884913,-0.5130389332771301,0.23782995343208313,-0.10598786920309067,STATIONARY,0,0.0,0.0,0.0,0.006906134169927755,-0.08844338678181264,0.2018528555985561,0.31177445752499167,0.024549270730872114,10.03041959484118
1769170349.296539,0.056859731674194336,START_STILL,-0.015550645999610424,-0.058135438710451126,0.8010315299034119,-0.15255183725617827,-0.5703086537495256,7.858119308352471,0.34455753151857044,-0.005131766342071659,9.632655323696856,0.03278307399357877,-0.029681037072943773,-0.39776427114432344,0.7190762758255005,0.18499010801315308,-0.3008538782596588,STATIONARY,0,0.0,0.0,0.0,0.007012122801679498,-0.08853934643797394,0.2005668721405505,0.31177445752499167,0.024549270730872114,10.03041959484118
1769170349.3516843,0.05709433555603027,START_STILL,0.05527766793966293,0.20176061987876892,1.0098797082901,0.5422739224880934,1.9792716810107231,9.906919938325883,0.3820770375211382,0.3714370992404794,9.684700947250908,0.07030257999614653,0.3468878285096073,-0.34571864759027093,-0.4782196283340454,-0.35379302501678467,-0.23762933909893036,STATIONARY,0,0.0,0.0,0.0,0.007241292561482566,-0.08740857427651824,0.19943991123197435,0.31177445752499167,0.024549270730872114,10.03041959484118
1769170349.405425,0.05282020568847656,START_STILL,-0.041468389332294464,-0.039078593254089355,0.9435941576957703,-0.40680489934980874,-0.3833609998226166,9.256658686995507,0.23237543503584265,0.22820339125270853,9.603473821496419,-0.07939902248914901,0.2036541205218364,-0.4269457733447606,-0.21982362866401672,-0.47199544310569763,0.4505103528499603,STATIONARY,0,0.0,0.0,0.0,0.007019771342872097,-0.08684038454900357,0.1982487435698681,0.31177445752499167,0.024549270730872114,10.03041959484118
1769170349.452058,0.04549717903137207,START_STILL,0.09528124332427979,0.03326258063316345,1.085913062095642,0.9347089970111847,0.32630591601133346,10.652807139158249,0.36565324860062987,0.2468197449525677,9.802599789341826,0.0538787910756382,0.22227047422169557,-0.22781980549935277,-0.3566574454307556,-0.09051011502742767,0.5919256806373596,STATIONARY,0,0.0,0.0,0.0,0.007131300079400678,-0.08638028615661847,0.1977771580989198,0.31177445752499167,0.024549270730872114,10.03041959484118
1769170349.5099375,0.05921292304992676,START_STILL,0.14934667944908142,0.0369044728577137,0.9867285490036011,1.465090925395489,0.3620328787341714,9.679807065725328,0.5742872334294974,0.26868308083128023,9.779298118154074,0.2625127759045057,0.2441338101004081,-0.25112147668710527,-0.20699545741081238,0.3951277434825897,0.2849658727645874,STATIONARY,0,0.0,0.0,0.0,0.008051714566127645,-0.08552431145313201,0.1968966834466874,0.31177445752499167,0.024549270730872114,10.03041959484118
1769170349.5601406,0.05165410041809082,START_STILL,0.05964169651269913,-0.008201680146157742,1.0764089822769165,0.5850850427895785,-0.08045848223380744,10.559572116136552,0.5763362718077196,0.20242848804344352,9.927366241425977,0.26456181428272796,0.1778792173125714,-0.10305335341520205,-0.08329524099826813,0.28761547803878784,0.18295139074325562,STATIONARY,0,0.0,0.0,0.0,0.008757604136469995,-0.08504970371496681,0.196621722044711,0.31177445752499167,0.024549270730872114,10.03041959484118
1769170349.6128175,0.051981210708618164,START_STILL,0.026911497116088867,-0.047521501779556274,1.0276695489883423,0.2640017867088318,-0.46618593245744705,10.081438275575639,0.5170663471898713,0.07554936264380252,9.956603608048743,0.20529188966487966,0.05100009191293041,-0.07381598679243595,-0.019132765009999275,-0.1781778335571289,0.09699397534132004,STATIONARY,0,0.0,0.0,0.0,0.009312312320529703,-0.0849118991070104,0.19642226783317324,0.31177445752499167,0.024549270730872114,10.03041959484118
1769170349.666133,0.05674123764038086,START_STILL,0.00872805342078209,-0.03232427313923836,0.9455438256263733,0.0856222040578723,-0.3171011194959283,9.275784929394723,0.4351936656249474,0.0010383317206068693,9.82740855054662,0.12341920809995571,-0.023510939010265245,-0.20301104429455918,0.28477269411087036,-0.033708199858665466,0.17671188712120056,STATIONARY,0,0.0,0.0,0.0,0.009709668859556535,-0.08498759417504895,0.19576865996137602,0.31177445752499167,0.024549270730872114,10.03041959484118
1769170349.7255304,0.05630230903625488,START_STILL,0.008970499038696289,-0.010372713208198547,1.0154846906661987,0.0880005955696106,-0.10175631657242776,9.96190481543541,0.3693088271848247,-0.01846841936234642,9.852931135664997,0.05753436965983305,-0.043017690093218534,-0.17748845917618183,0.09350073337554932,-0.021730300039052963,0.02449318766593933,STATIONARY,0,0.0,0.0,0.0,0.009892049934821621,-0.08512395810188099,0.19520603041971105,0.31177445752499167,0.024549270730872114,10.03041959484118
1769170349.779118,0.052819013595581055,START_STILL,0.04000357538461685,-0.0352189801633358,0.9847790002822876,0.39243507452309134,-0.34549819540232424,9.660681992769241,0.37369736255900476,-0.08052698509371115,9.816449117985554,0.0619229050340131,-0.10507625582458326,-0.21397047685562498,0.1315688043832779,-0.07541896402835846,-0.005347794387489557,STATIONARY,0,0.0,0.0,0.0,0.01006480543979678,-0.0854171049047628,0.19460908527059917,0.31177445752499167,0.024549270730872114,10.03041959484118
1769170349.8362675,0.05685091018676758,START_STILL,0.12073806673288345,-0.0776747390627861,1.1039466857910156,1.1844404346495867,-0.7619891902059317,10.829716987609864,0.5275474273446388,-0.20984416092245792,10.008731152520761,0.2157729698196471,-0.23439343165333004,-0.021688442320417778,0.0652899220585823,-0.14017067849636078,0.12476649880409241,STATIONARY,0,0.0,0.0,0.0,0.010762189285991383,-0.08617467056753224,0.19453898766135727,0.31177445752499167,0.024549270730872114,10.03041959484118
1769170349.887619,0.05190300941467285,START_STILL,0.061096370220184326,-0.047521501779556274,1.0410728454589844,0.5993553918600083,-0.46618593245744705,10.212924613952637,0.5411740130943345,-0.25848866929454545,10.047479775051805,0.22939955556934288,-0.28303794002541754,0.01706018021062583,-0.07476126402616501,0.0433400459587574,-0.05078277736902237,STATIONARY,0,0.0,0.0,0.0,0.01138017388414682,-0.08693715281033884,0.194584946462741,0.31177445752499167,0.024549270730872114,10.03041959484118
1769170349.9371183,0.04877066612243652,START_STILL,0.04000357538461685,-0.031118139624595642,1.1144256591796875,0.39243507452309134,-0.30526894971728324,10.932515716552736,0.5129486774447498,-0.2673658949181573,10.215427971743049,0.20117421991975815,-0.2919151656490294,0.18500837690186955,0.06298884749412537,-0.05409296229481697,0.2751138508319855,STATIONARY,0,0.0,0.0,0.0,0.011858682432472433,-0.0876314957644443,0.19502500329454928,0.31177445752499167,0.024549270730872114,10.03041959484118
1769170350.0029786,0.06751084327697754,START_STILL,0.037579119205474854,0.012868006713688374,0.9981822967529297,0.3686511594057083,0.12623514586128295,9.792168331146241,0.4855661647068151,-0.19267448193147424,10.135108416302325,0.1737917071818234,-0.21722375266234636,0.10468882146114566,0.12835143506526947,-0.20344950258731842,-0.0006918264552950859,STATIONARY,0,0.0,0.0,0.0,0.01265077532242181,-0.08862153949439025,0.1955021449975754,0.31177445752499167,0.024549270730872114,10.03041959484118
1769170350.0721037,0.06662106513977051,START_STILL,0.03539710119366646,0.043702661991119385,1.02303946018219,0.34724556270986795,0.42872311413288117,10.036017104387284,0.45931785706041856,-0.07475542261022858,10.116304426132528,0.1475433995354269,-0.09930469334110069,0.08588483129134872,0.14606651663780212,-0.20100605487823486,0.04634479805827141,STATIONARY,0,0.0,0.0,0.0,0.013305626977710905,-0.08906229010076883,0.19588333334020852,0.31177445752499167,0.024549270730872114,10.03041959484118
1769170350.1367145,0.0650033950805664,START_STILL,0.0768553614616394,-0.017127038910984993,0.9979385733604431,0.7539510959386826,-0.1680162517167628,9.789777404665948,0.5152287176645504,-0.09245299548372105,10.054341265254255,0.2034542601395587,-0.11700226621459316,0.023921670413075802,0.09872446209192276,0.05403018742799759,0.10346069931983948,STATIONARY,0,0.0,0.0,0.0,0.014165311025814288,-0.08955667631704975,0.19598441295605928,0.31177445752499167,0.024549270730872114,10.03041959484118
1769170350.189253,0.05249452590942383,START_STILL,0.06958197802305222,0.013596383854746819,0.9950142502784729,0.6825992044061423,0.1333805256150663,9.76108979523182,0.5469896553954127,-0.04959786289254873,9.998692615004188,0.235215197870421,-0.07414713362342085,-0.03172697983699102,0.020533712580800056,0.0534193217754364,0.07444459199905396,STATIONARY,0,0.0,0.0,0.0,0.014813487725116722,-0.089761001738068,0.1958969837029508,0.31177445752499167,0.024549270730872114,10.03041959484118
1769170350.2447104,0.055405378341674805,START_STILL,0.037094224244356155,-0.04655659571290016,1.0030561685562134,0.36389433983713393,-0.4567202039435506,9.839981013536454,0.5122447070507415,-0.12685513551390207,9.968574824290197,0.20047024952574988,-0.1514044062447742,-0.06184477055098192,0.0009860247373580933,0.07327244430780411,0.00786028802394867,STATIONARY,0,0.0,0.0,0.0,0.01542888246623282,-0.09022577631487058,0.195707135350626,0.31177445752499167,0.024549270730872114,10.03041959484118
1769170350.3015344,0.05637621879577637,START_STILL,0.03466976806521416,-0.05910034477710724,1.0985853672027588,0.3401104247197509,-0.579774382263422,10.777122452259064,0.47957977114180705,-0.21280302437515758,10.122008272231374,0.1678053136168154,-0.2373522951060297,0.09158867739019527,-0.030778968706727028,0.4587284028530121,-0.05322623625397682,STATIONARY,0,0.0,0.0,0.0,0.0159622144104545,-0.09098014790350478,0.1959982296332108,0.31177445752499167,0.024549270730872114,10.03041959484118
1769170350.3495917,0.04810905456542969,START_STILL,0.01575898379087448,0.04613059014081955,0.9233673214912415,0.15459563098847867,0.4525410892814398,9.05823342382908,0.4179093940049835,-0.08654448635662862,9.92014181789091,0.10613493647999184,-0.11109375708750073,-0.11027777695026941,0.04466289281845093,0.4626990258693695,-0.0944596379995346,STATIONARY,0,0.0,0.0,0.0,0.016207861718296374,-0.09123727230807564,0.195742993799271,0.31177445752499167,0.024549270730872114,10.03041959484118
1769170350.4080968,0.05839824676513672,START_STILL,-0.0029620276764035225,0.004613059107214212,1.044728398323059,-0.02905749150551856,0.045254109841771424,10.24878558754921,0.3330910506110596,-0.06153382235984279,9.982506661938169,0.021316593086067925,-0.08608309309071491,-0.04791293290301013,0.0562693327665329,0.04944869875907898,-0.155546173453331,STATIONARY,0,0.0,0.0,0.0,0.0162805588729118,-0.09153084623440254,0.19557959367818856,0.31177445752499167,0.024549270730872114,10.03041959484118
1769170350.450123,0.042028188705444336,START_STILL,-0.021227866411209106,-0.015920909121632576,1.0427788496017456,-0.20824536949396136,-0.1561841184832156,10.229660514593125,0.2303647416594174,-0.07949506642328066,10.0294076316189,-0.08140971586557427,-0.10404433715415277,-0.001011963222278922,-0.04788319766521454,0.1951400637626648,-0.15157555043697357,STATIONARY,0,0.0,0.0,0.0,0.01613675930333844,-0.09171462688933096,0.19557780617808196,0.31177445752499167,0.024549270730872114,10.03041959484118
1769170350.5075946,0.057582855224609375,START_STILL,0.054792776703834534,0.01383917685598135,0.9645521640777588,0.5375171394646168,0.13576232495717705,9.462256729602814,0.2886512912805445,-0.03864690533560888,9.921782656429896,-0.023123166244447158,-0.063196176066481,-0.10863693841128352,0.13415464758872986,-0.07577867060899734,-0.17936991155147552,STATIONARY,0,0.0,0.0,0.0,0.016060087850562194,-0.09192417183562845,0.19521758942380607,0.31177445752499167,0.024549270730872114,10.03041959484118
1769170350.5633032,0.05568814277648926,START_STILL,0.10788843780755997,-0.10300345718860626,0.8736532330513,1.0583855748921633,-1.0104639150202275,8.570538216233254,0.43471935338066686,-0.22306304781860609,9.665364745723094,0.1229448958556752,-0.2476123185494782,-0.36505484911808495,0.05565846711397171,0.13680243492126465,-0.052615370601415634,STATIONARY,0,0.0,0.0,0.0,0.016441360780529535,-0.09269205954281877,0.19408549255265636,0.31177445752499167,0.024549270730872114,10.03041959484118
1769170350.62428,0.06274890899658203,START_STILL,0.044610049575567245,-0.031359363347291946,1.069341778755188,0.4376245863363147,-0.307635354436934,10.490242849588395,0.435270662782906,-0.23911184959097143,9.821897134452218,0.12349620525791433,-0.2636611203218435,-0.20852246038896105,0.0510769784450531,-0.37754613161087036,-0.1903654932975769,STATIONARY,0,0.0,0.0,0.0,0.01692761789817725,-0.09373020558249436,0.19326445088306185,0.31177445752499167,0.024549270730872114,10.03041959484118
1769170350.6851728,0.05932021141052246,START_STILL,0.1643783301115036,-0.05765299126505852,1.061056137084961,1.6125514183938503,-0.5655758443102241,10.408960704803468,0.6586764824028946,-0.3010630502447369,9.933300822551491,0.3469020248779029,-0.325612320975609,-0.09711877228968824,-0.10011216998100281,0.0030229403637349606,-0.35438278317451477,STATIONARY,0,0.0,0.0,0.0,0.018148327090927386,-0.09487599870269171,0.19292270085100494,0.31177445752499167,0.024549270730872114,10.03041959484118
1769170350.741905,0.05645132064819336,START_STILL,0.12582942843437195,0.037875641137361526,0.9818546175956726,1.2343866929411889,0.3715600395575166,9.631993798613548,0.767925708499484,-0.17342322265355137,9.876123516017516,0.4561512509744924,-0.1979724933844235,-0.1542960788236627,-0.07079064100980759,0.16184790432453156,-0.38126087188720703,STATIONARY,0,0.0,0.0,0.0,0.01960196782114666,-0.09550688786331961,0.19243099757448856,0.31177445752499167,0.024549270730872114,10.03041959484118
1769170350.7901433,0.049744367599487305,START_STILL,0.0872805267572403,0.02840672992169857,1.012073040008545,0.8562219674885273,0.27867002053186296,9.928436522483826,0.7846811833637524,-0.08763207975316253,9.886050655343196,0.4729067258387607,-0.11218135048403464,-0.14436893949798346,-0.1703616827726364,0.02165433205664158,-0.4224942624568939,STATIONARY,0,0.0,0.0,0.0,0.020772176511061953,-0.09578448085155639,0.19207375632938942,0.31177445752499167,0.024549270730872114,10.03041959484118
1769170350.8423972,0.050724029541015625,START_STILL,0.051883429288864136,0.06191210821270943,1.1524423360824585,0.5089764413237572,0.6073577815666795,11.305459316968918,0.7323622750871971,0.04425216183980188,10.155403699563855,0.4205878175622054,0.019702891108929765,0.12498410472267629,-0.006038926541805267,0.230264812707901,-0.3577425479888916,STATIONARY,0,0.0,0.0,0.0,0.02185431833544913,-0.09573378674763797,0.1923953313286082,0.31177445752499167,0.024549270730872114,10.03041959484118
1769170350.894828,0.05376124382019043,START_STILL,-0.036038003861904144,0.006312606856226921,1.0079301595687866,-0.3535328178852797,0.0619266732595861,9.887794865369797,0.52629818875042,0.04760615254363415,10.104621105305235,0.21452373122542834,0.023056881812762036,0.07420151046405543,0.013508761301636696,-0.04401368275284767,-0.34919044375419617,STATIONARY,0,0.0,0.0,0.0,0.022474350126936438,-0.09566714610301177,0.19260979382747154,0.31177445752499167,0.024549270730872114,10.03041959484118
1769170350.9463637,0.05064725875854492,START_STILL,0.036124441772699356,-0.02388136461377144,1.0956610441207886,0.3543807737901807,-0.23427618686109783,10.748434842824937,0.49367440651912836,-0.0058850429685474645,10.226793947278308,0.1818999489941367,-0.03043431369941958,0.19637435243712886,-0.14470534026622772,0.036620527505874634,-0.24748139083385468,STATIONARY,0,0.0,0.0,0.0,0.02294094983881245,-0.09574521452514063,0.19311352248035837,0.31177445752499167,0.024549270730872114,10.03041959484118
1769170351.0021594,0.055661678314208984,START_STILL,0.07200643420219421,-0.07550370693206787,1.0963921546936035,0.7063831195235253,-0.7406913650035859,10.755607037544252,0.5340389195229952,-0.14532502604293054,10.32714377572287,0.22226446199800354,-0.16987429677380267,0.29672418088169117,-0.11437627673149109,-0.257418155670166,-0.010497675277292728,STATIONARY,0,0.0,0.0,0.0,0.02362957458097877,-0.09627152288215363,0.19403283999390672,0.31177445752499167,0.024549270730872114,10.03041959484118
1769170351.0483966,0.04743552207946777,START_STILL,0.04267048090696335,-0.08394661545753479,1.1185685396194458,0.41859741769731046,-0.8235162976384164,10.973157373666764,0.5121322475497956,-0.2740214955705288,10.449734072596803,0.20035779002480392,-0.2985707663014009,0.41931447775562347,0.024900995194911957,0.10238146781921387,0.20971925556659698,STATIONARY,0,0.0,0.0,0.0,0.02408040540559215,-0.09694334554879637,0.19497635155767218,0.31177445752499167,0.024549270730872114,10.03041959484118
1769170351.1010692,0.05167698860168457,START_STILL,-0.04912029579281807,0.0682247132062912,0.9621151685714722,-0.4818701017275453,0.6692844365537167,9.438349803686142,0.3235061203612488,-0.09501573682162973,10.257809478170307,0.01173166283625715,-0.11956500755250184,0.22738988332912768,0.05421212315559387,-0.08882808685302734,0.009798808954656124,STATIONARY,0,0.0,0.0,0.0,0.024111734942015427,-0.09726264523472739,0.19558359877671325,0.31177445752499167,0.024549270730872114,10.03041959484118
1769170351.160905,0.06091451644897461,START_STILL,-0.06615195423364639,0.017238274216651917,1.0059806108474731,-0.6489506710320712,0.16910747006535531,9.868669792413712,0.1389685701712717,-0.04489459007390645,10.183964670949278,-0.17280588735371996,-0.06944386080477856,0.15354507610809875,-0.10278024524450302,-0.31484824419021606,-0.17437705397605896,STATIONARY,0,0.0,0.0,0.0,0.02347052516383248,-0.09752032211868478,0.19615333980637406,0.31177445752499167,0.024549270730872114,10.03041959484118
1769170351.2253788,0.06430864334106445,START_STILL,-0.024189893156290054,0.056570667773485184,1.0620309114456177,-0.23730285186320543,0.5549582508578896,10.41852324128151,0.06756569958279615,0.06893604458231224,10.228475506112613,-0.24420875794219551,0.04438677385144013,0.19805591127143352,0.029472079128026962,-0.1370864361524582,0.14388373494148254,STATIONARY,0,0.0,0.0,0.0,0.02246057503170913,-0.09733675610535449,0.19697242015157504,0.31177445752499167,0.024549270730872114,10.03041959484118
1769170351.2836287,0.056955814361572266,START_STILL,-0.04640510305762291,-0.02749975211918354,1.0310814380645752,-0.45523406099528074,-0.26977256828919055,10.114908907413483,-0.03164301376142904,0.004661252940416125,10.206924623756885,-0.3434174712864207,-0.01988801779045599,0.17650502891570596,0.18310469388961792,0.11153571307659149,0.43221211433410645,STATIONARY,0,0.0,0.0,0.0,0.021346540846725985,-0.09740127213480146,0.19754499625056313,0.31177445752499167,0.024549270730872114,10.03041959484118
1769170351.340134,0.058981895446777344,START_STILL,-0.02443673089146614,0.042974285781383514,0.9121572971343994,-0.23972433004528285,0.4215777435153723,8.948263084888458,-0.07112941221858926,0.08377710516689027,9.968075639455657,-0.3829038697435809,0.05922783443601816,-0.062343955385522065,-0.2096816599369049,0.14238440990447998,0.07210706919431686,STATIONARY,0,0.0,0.0,0.0,0.020014470362454018,-0.09719522655434702,0.19732811010914744,0.31177445752499167,0.024549270730872114,10.03041959484118
1769170351.3938982,0.05283498764038086,START_STILL,0.04267048090696335,-0.041973307728767395,0.9803923964500427,0.41859741769731046,-0.4117581488192082,9.61764940917492,0.021803240681596475,-0.010257779069294676,9.901577262735328,-0.2899712168433952,-0.03480704980016679,-0.12884233210585094,-0.0040561724454164505,0.11506655067205429,0.12104516476392746,STATIONARY,0,0.0,0.0,0.0,0.019205005295171374,-0.09729239168409719,0.1969684421111915,0.31177445752499167,0.024549270730872114,10.03041959484118
1769170351.4497485,0.05759143829345703,START_STILL,0.06255104392766953,-0.017368264496326447,0.9881907105445862,0.6136257409304381,-0.17038267470896246,9.69415087044239,0.13411000362450226,-0.04064376251585238,9.862215145449232,-0.1776644539004894,-0.0651930332467245,-0.168204449391947,-0.10669036209583282,-0.033711131662130356,0.10194762796163559,STATIONARY,0,0.0,0.0,0.0,0.018615732495552866,-0.09750862222641173,0.19641054600634095,0.31177445752499167,0.024549270730872114,10.03041959484118
1769170351.5011945,0.0487821102142334,START_STILL,0.06327838450670242,-0.06175382807850838,1.0669047832489014,0.6207609520107508,-0.6058050534501672,10.466335923671723,0.22645896412089167,-0.14789118061634549,9.976855682096943,-0.0853154934041,-0.1724404513472176,-0.05356391274423622,0.15659256279468536,0.2112458348274231,0.2427520751953125,STATIONARY,0,0.0,0.0,0.0,0.018412707704163655,-0.097918977781598,0.19628308026973224,0.31177445752499167,0.024549270730872114,10.03041959484118
1769170351.562404,0.06055927276611328,START_STILL,0.07030931115150452,-0.07936331629753113,1.0371737480163574,0.6897343423962593,-0.7785541328787804,10.174674468040466,0.31437207668991407,-0.26756847346484264,10.014394619006694,0.0025976191649224045,-0.29211774419571473,-0.016024975834485033,-0.046269189566373825,0.062461007386446,0.05860981345176697,STATIONARY,0,0.0,0.0,0.0,0.018422234278975033,-0.09899029785091043,0.19622430986443215,0.31177445752499167,0.024549270730872114,10.03041959484118
1769170351.6284788,0.0660858154296875,START_STILL,0.06909708678722382,-0.06054770201444626,1.0535014867782593,0.6778424213826657,-0.5939729567617178,10.334849585294725,0.38334576022006306,-0.3295083809771636,10.075205520784937,0.07157130269507139,-0.3540576517080357,0.04478592594375819,-0.12293277680873871,0.1079704686999321,-0.14175398647785187,STATIONARY,0,0.0,0.0,0.0,0.018734810134302865,-0.10053658622558918,0.1964199050063588,0.31177445752499167,0.024549270730872114,10.03041959484118
1769170351.6820698,0.05515623092651367,START_STILL,0.12485965341329575,0.022336916998028755,0.9506614208221436,1.2248731999844313,0.2191251557506621,9.325988538265229,0.5430375979718034,-0.22539734003851605,9.93303090928696,0.23126314044681173,-0.24994661076938818,-0.09738868555421831,-0.05115611106157303,0.07406744360923767,-0.321653813123703,STATIONARY,0,0.0,0.0,0.0,0.019438361128865937,-0.10129697625685279,0.19612362819178092,0.31177445752499167,0.024549270730872114,10.03041959484118
1769170351.7365084,0.052873849868774414,START_STILL,0.11661648750305176,0.023065295070409775,0.9828293919563293,1.1440077424049377,0.2262705446407199,9.641556335091591,0.6570802569079495,-0.13968691498325653,9.87771945037102,0.3453057993829578,-0.16423618571412865,-0.15270014447015967,0.0887320265173912,0.22189684212207794,-0.24957171082496643,STATIONARY,0,0.0,0.0,0.0,0.020403713215057354,-0.10175612216401846,0.1956967329491021,0.31177445752499167,0.024549270730872114,10.03041959484118
1769170351.7881546,0.05211520195007324,START_STILL,0.10861577093601227,0.008254947140812874,1.0452157258987427,1.0655207128822803,0.0809810314513743,10.253566271066665,0.7345876606415258,-0.0978120238817663,9.949041746797672,0.42281320311653414,-0.12236129461263841,-0.08137784804350723,0.3361324369907379,0.11377368122339249,-0.22330449521541595,STATIONARY,0,0.0,0.0,0.0,0.021552071453819002,-0.10208845473958195,0.1954757111797613,0.31177445752499167,0.024549270730872114,10.03041959484118
1769170351.8348854,0.046742916107177734,START_STILL,0.0875229761004448,0.07866478711366653,1.02157723903656,0.8586003955453635,0.7717015615850688,10.021672714948656,0.758120846376929,0.06719058429484132,9.962824509229003,0.44634638885193734,0.042641313563969205,-0.06759508561217586,0.02520204335451126,-0.02092209830880165,-0.5204904675483704,STATIONARY,0,0.0,0.0,0.0,0.02252729377085941,-0.10199528772478328,0.19532802266326899,0.31177445752499167,0.024549270730872114,10.03041959484118
1769170351.885756,0.05044746398925781,START_STILL,0.10691864788532257,-0.02243400737643242,0.9686949253082275,1.0488719357550145,-0.22007761236280204,9.502897217273713,0.8132950137268466,0.012677345528993737,9.875546743806302,0.501520556201855,-0.011871925201878377,-0.15487285103487736,0.0841505378484726,0.11530084162950516,-0.3179886043071747,STATIONARY,0,0.0,0.0,0.0,0.023803636816704055,-0.10202550114073368,0.19493387952404154,0.31177445752499167,0.024549270730872114,10.03041959484118
1769170351.942366,0.058244943618774414,START_STILL,0.06643018126487732,0.012625213712453842,1.0515519380569458,0.6516800782084465,0.1238533465191722,10.315724512338639,0.782626273954928,0.033774577862834304,9.959076755393411,0.47085181642993634,0.00922530713196219,-0.07134283944776776,-0.11590782552957535,-0.017256908118724823,-0.24193589389324188,STATIONARY,0,0.0,0.0,0.0,0.02540098910619546,-0.1019942045311544,0.19469185083485696,0.31177445752499167,0.024549270730872114,10.03041959484118
1769170351.9923897,0.04863929748535156,START_STILL,0.036124441772699356,-0.01905684731900692,1.079577088356018,0.3543807737901807,-0.1869476721994579,10.590651236772537,0.7013605805280203,-0.008110618126753524,10.07892702389657,0.38958612300302864,-0.032659888857625635,0.04850742905539107,-0.01664222590625286,-0.2463313639163971,-0.16618859767913818,STATIONARY,0,0.0,0.0,0.0,0.02632266465510086,-0.10207147068416317,0.1948066088014806,0.31177445752499167,0.024549270730872114,10.03041959484118
1769170352.0415556,0.04859280586242676,START_STILL,0.053822994232177734,-0.013508650474250317,1.0098797082901,0.5280035734176636,-0.1325198611523956,9.906919938325883,0.6684636151476092,-0.0317190469352432,10.046286225387616,0.35668915762261755,-0.056268317666115314,0.01586663054643722,0.22739842534065247,0.053603459149599075,0.10992249101400375,STATIONARY,0,0.0,0.0,0.0,0.0271649007742112,-0.10220433485591385,0.1948440740539258,0.31177445752499167,0.024549270730872114,10.03041959484118
1769170352.0933125,0.05174899101257324,START_STILL,0.06594529002904892,0.1012445017695427,0.9996444582939148,0.6469232951849699,0.9932085623592138,9.806512135863304,0.664376032119351,0.16277558955166527,10.000785671047868,0.35260157459435937,0.13822631882079314,-0.029633923793310757,-0.17485633492469788,-0.36483922600746155,-0.23002402484416962,STATIONARY,0,0.0,0.0,0.0,0.02810915300667979,-0.10183417056982805,0.19476471564853345,0.31177445752499167,0.024549270730872114,10.03041959484118
1769170352.1461985,0.05293440818786621,START_STILL,0.09576613456010818,0.03981798142194748,1.000862956047058,0.9394657800346613,0.3906143977493048,9.818465598821641,0.7165782364866374,0.2060112539792388,9.966187836185837,0.40480377896164577,0.18146198324836668,-0.06423175865534247,0.04902578890323639,-0.1855502724647522,-0.11365418881177902,STATIONARY,0,0.0,0.0,0.0,0.029243434071142015,-0.10132570473473543,0.19458473494833656,0.31177445752499167,0.024549270730872114,10.03041959484118
1769170352.1989326,0.05275583267211914,START_STILL,0.0846136286854744,0.050015270709991455,1.112476110458374,0.8300596974045039,0.4906498056650162,10.91339064359665,0.7381129627337111,0.26002548009457854,10.14593308261701,0.4263385052087194,0.23547620936370642,0.11551348777583037,0.20174211263656616,-0.07681626826524734,0.18536435067653656,STATIONARY,0,0.0,0.0,0.0,0.0304300099686271,-0.10067033255734945,0.19490622953246317,0.31177445752499167,0.024549270730872114,10.03041959484118
1769170352.2521822,0.05331301689147949,START_STILL,0.13455748558044434,0.052200403064489365,1.026938557624817,1.320008933544159,0.5120859540626407,10.074267250299455,0.8485360250940693,0.3078575511721483,10.132333468479647,0.5367615675690777,0.2833082804412762,0.10191387363846793,-0.33704105019569397,-0.5951354503631592,0.06471846252679825,STATIONARY,0,0.0,0.0,0.0,0.03195563543995725,-0.09986509172977412,0.19519589706996762,0.31177445752499167,0.024549270730872114,10.03041959484118
1769170352.304781,0.055866241455078125,START_STILL,0.18425890803337097,0.030349070206284523,1.0291317701339722,1.8075798878073692,0.2977243787236512,10.095782665014267,1.0305282807050067,0.3059346371302617,10.125397432052452,0.718753823180015,0.2813853663993896,0.09497783721127284,-0.3248237371444702,0.2900083065032959,-0.155193030834198,STATIONARY,0,0.0,0.0,0.0,0.03419889266878369,-0.09898687760846528,0.19549232640784556,0.31177445752499167,0.024549270730872114,10.03041959484118
1769170352.358244,0.0508122444152832,START_STILL,0.12534454464912415,0.004370266571640968,1.0201150178909302,1.2296299830079078,0.0428723150677979,10.007328325510025,1.0683106692972941,0.2560148084136155,10.102992134596263,0.7565362117723025,0.2314655376827434,0.07257253975508426,0.28329259157180786,1.0670288801193237,0.02379048988223076,STATIONARY,0,0.0,0.0,0.0,0.03615218154746105,-0.09838926039792407,0.19567970030032442,0.31177445752499167,0.024549270730872114,10.03041959484118
1769170352.4082243,0.04953789710998535,START_STILL,0.06643018126487732,0.012625213712453842,1.030106544494629,0.6516800782084465,0.1238533465191722,10.10534520149231,0.9892490705772318,0.23093528547400727,10.10343866261095,0.6774746130522401,0.20638601474313514,0.07301906776977063,-0.07070380449295044,0.39782604575157166,-0.11854111403226852,STATIONARY,0,0.0,0.0,0.0,0.03781470644973759,-0.09788278844697347,0.19585888932994922,0.31177445752499167,0.024549270730872114,10.03041959484118
1769170352.466035,0.05775713920593262,START_STILL,0.035639550536870956,0.01383917685598135,1.015241026878357,0.3496239907667041,0.13576232495717705,9.959514473676682,0.8678710861639758,0.2128748583850676,10.076126994396926,0.5560966286389841,0.18832558765419546,0.045707399555746875,-0.05665389820933342,0.1229366585612297,0.048225101083517075,STATIONARY,0,0.0,0.0,0.0,0.03966978203583563,-0.09725455554300874,0.19601136405583888,0.31177445752499167,0.024549270730872114,10.03041959484118
1769170352.528187,0.062400102615356445,START_STILL,-0.03998737409710884,0.05341436713933945,1.0583754777908325,-0.39227613989263777,0.52399494163692,10.382663437128068,0.6287401715225172,0.2719143329265922,10.13429665775493,0.3169657139975255,0.24736506219572005,0.10387706291375132,-0.17027482390403748,-0.15653418004512787,-0.06997732818126678,STATIONARY,0,0.0,0.0,0.0,0.04090397451356258,-0.09629137219057586,0.19641583773862187,0.31177445752499167,0.024549270730872114,10.03041959484118
1769170352.5855417,0.05713319778442383,START_STILL,-0.01184811070561409,-0.026534847915172577,0.9791739583015442,-0.11622996602207424,-0.260306858047843,9.605696530938149,0.48737145944822813,0.17091776874928438,10.033987242163192,0.17559700192323646,0.14636849801841226,0.003567647322013201,-0.10185793042182922,-0.2655736207962036,0.01187861803919077,STATIONARY,0,0.0,0.0,0.0,0.041477158649194955,-0.09581359580429583,0.19642748326117698,0.31177445752499167,0.024549270730872114,10.03041959484118
1769170352.6339016,0.048189640045166016,START_STILL,0.0766129121184349,0.0007283777231350541,1.1090643405914307,0.7515726678818465,0.007145385463954881,10.879921181201935,0.5375074081022717,0.13983962248332343,10.19451527601969,0.22573295057728004,0.11529035175245132,0.1640956811785106,-0.0728418231010437,-0.4943426549434662,0.09373456239700317,STATIONARY,0,0.0,0.0,0.0,0.0420013650541039,-0.09554586377554998,0.19680855304683162,0.31177445752499167,0.024549270730872114,10.03041959484118
1769170352.6941035,0.06025552749633789,START_STILL,0.06570284068584442,-0.019539296627044678,1.0052495002746582,0.6445448671281339,-0.1916804999113083,9.861497597694397,0.5578192930538814,0.07692894946747456,10.131320420400396,0.24604483552888978,0.052379678736602445,0.10090082555921676,0.03375415876507759,-0.13881908357143402,0.2131587117910385,STATIONARY,0,0.0,0.0,0.0,0.0428946870738307,-0.0953556873782237,0.19717489655933373,0.31177445752499167,0.024549270730872114,10.03041959484118
1769170352.7495027,0.05606245994567871,START_STILL,0.03176041692495346,-0.03184181824326515,1.010610818862915,0.3115696900337935,-0.3123682369664312,9.914092133045196,0.5110899176422784,0.0030542542458671523,10.09009825368278,0.19931546011728674,-0.021495016485004962,0.05967865884160162,-0.054821304976940155,-0.87735515832901,0.021957896649837494,STATIONARY,0,0.0,0.0,0.0,0.043521135448411845,-0.09542324620246494,0.19736246654917047,0.31177445752499167,0.024549270730872114,10.03041959484118
1769170352.799723,0.049690961837768555,START_STILL,0.03830645605921745,-0.0562056340277195,1.029375433921814,0.37578633394092326,-0.5513772698119283,10.098173006772996,0.4854141322612148,-0.1021570375084204,10.091630553284002,0.17363967473622316,-0.12670630823929252,0.06121095844282287,-0.12537623941898346,-0.6152939796447754,0.04608707129955292,STATIONARY,0,0.0,0.0,0.0,0.04394988509004051,-0.09573610836563251,0.19751360813899418,0.31177445752499167,0.024549270730872114,10.03041959484118
1769170352.84729,0.049254655838012695,START_STILL,0.10570641607046127,-0.04728027433156967,0.9487118124961853,1.036979941651225,-0.4638194911926985,9.306862880587579,0.5900816137721918,-0.17078764792656387,9.942709691123953,0.27830715624720015,-0.195336918657436,-0.08770990371722576,-0.004119487479329109,-0.22800540924072266,0.0775466337800026,STATIONARY,0,0.0,0.0,0.0,0.04462506412942235,-0.09620999985614737,0.19730082205999208,0.31177445752499167,0.024549270730872114,10.03041959484118
1769170352.9000978,0.0509791374206543,START_STILL,0.04776184633374214,-0.015438457019627094,0.9811235070228577,0.46854371253401045,-0.1514512633625418,9.624821603894235,0.5670180630332531,-0.167118293083699,9.88238589126864,0.2552436055082614,-0.19166756381457112,-0.14803370357253876,-0.055432166904211044,0.20784693956375122,0.006991696543991566,STATIONARY,0,0.0,0.0,0.0,0.04528840970436622,-0.09670811940771651,0.19691610134578708,0.31177445752499167,0.024549270730872114,10.03041959484118
1769170352.9533644,0.05425000190734863,START_STILL,0.14474020898342133,-0.056688085198402405,1.01719069480896,1.4199014501273632,-0.5561101157963276,9.978640716075898,0.7288648538059029,-0.2409350411825755,9.900651617541627,0.41709039628091127,-0.2654843119134476,-0.12976797729955258,0.2521384656429291,0.7118107676506042,0.15634824335575104,STATIONARY,0,0.0,0.0,0.0,0.04651593289508645,-0.09748945638538854,0.19653418605124076,0.31177445752499167,0.024549270730872114,10.03041959484118
1769170353.0059218,0.05274081230163574,START_STILL,0.051883429288864136,-0.010855165310204029,1.006224274635315,0.5089764413237572,-0.10648917169310153,9.87106013417244,0.6871378903934933,-0.2154220193102092,9.895036211391176,0.3753634328685016,-0.23997129004108134,-0.13538338345000334,0.016069801524281502,0.1506001353263855,-0.00483748409897089,STATIONARY,0,0.0,0.0,0.0,0.04756004129835066,-0.09815695891369641,0.1961576045413098,0.31177445752499167,0.024549270730872114,10.03041959484118
1769170353.0541553,0.0525510311126709,START_STILL,0.06521795690059662,-0.029429558664560318,1.0203588008880615,0.6397881571948528,-0.2887039704993367,10.009719836711884,0.6781526029812817,-0.22932831506059123,9.916799065484946,0.36637814545629,-0.25387758579146336,-0.11362052935623268,0.14343520998954773,0.29384803771972656,0.053805578500032425,STATIONARY,0,0.0,0.0,0.0,0.04857183516774137,-0.0988580700145226,0.19584382885227028,0.31177445752499167,0.024549270730872114,10.03041959484118
1769170353.1165106,0.05697298049926758,START_STILL,0.02618415839970112,-0.012784972786903381,1.0508208274841309,0.256866593901068,-0.12542058303952217,10.308552317619323,0.598207572278595,-0.2096103404598984,9.991139834213863,0.28643311475360334,-0.23415961119077053,-0.03927976062731631,0.038322169333696365,0.06728852540254593,-0.022473841905593872,STATIONARY,0,0.0,0.0,0.0,0.04950157428879536,-0.09961813349839083,0.1957163298717412,0.31177445752499167,0.024549270730872114,10.03041959484118
1769170353.176697,0.060118675231933594,START_STILL,0.04000357538461685,-0.009649035520851612,1.0963921546936035,0.39243507452309134,-0.09465703845955432,10.755607037544252,0.5591593050770606,-0.18779631136869512,10.136208392685285,0.2473848475520689,-0.21234558209956725,0.10578879784410589,-0.012990512885153294,-0.00021208077669143677,0.07343200594186783,STATIONARY,0,0.0,0.0,0.0,0.05039568623860338,-0.10038560460392894,0.1960986775751038,0.31177445752499167,0.024549270730872114,10.03041959484118
1769170353.239188,0.06267189979553223,START_STILL,0.04364026337862015,-0.016644585877656937,0.9684512615203857,0.42811098374426365,-0.16328338745981455,9.500506875514985,0.5342910164401806,-0.18314463433155204,10.015574960260407,0.22251655891518896,-0.20769390506242416,-0.01484463458077201,-0.04491414502263069,0.03160147741436958,0.05619659274816513,STATIONARY,0,0.0,0.0,0.0,0.051269679441000235,-0.10120137787531501,0.19604037130891439,0.31177445752499167,0.024549270730872114,10.03041959484118
1769170353.2944236,0.05515003204345703,START_STILL,0.06909708678722382,-0.004342066124081612,1.0432662963867188,0.6778424213826657,-0.042595668677240614,10.234442367553712,0.561531943573262,-0.15647346288914749,10.057108173371573,0.2497574860482703,-0.1810227336200196,0.026688578530393414,-0.07576283812522888,0.024881958961486816,0.010076267644762993,STATIONARY,0,0.0,0.0,0.0,0.05202932333710093,-0.10175196323243753,0.19612154531533554,0.31177445752499167,0.024549270730872114,10.03041959484118
1769170353.3400085,0.04630136489868164,START_STILL,-0.03431015461683273,-0.06826692819595337,1.0488712787628174,-0.3365826167911291,-0.6696985656023026,10.289427244663239,0.3911018923602621,-0.2538652483020367,10.101194031641068,0.07932743483527044,-0.2784145190329088,0.07077443679988882,-0.06507270038127899,0.02671455591917038,-0.010387718677520752,STATIONARY,0,0.0,0.0,0.0,0.052199386792194914,-0.10234883284196654,0.19627327271304498,0.31177445752499167,0.024549270730872114,10.03041959484118
1769170353.3985362,0.05852961540222168,START_STILL,0.027153942734003067,-0.03377162665128708,1.0225520133972168,0.2663801782205701,-0.33129965744912626,10.031235251426697,0.3674341676998618,-0.2685595321929831,10.087918354994764,0.05565971017487015,-0.2931088029238552,0.05749876015358524,-0.006328887306153774,0.05780727416276932,-0.008219501934945583,STATIONARY,0,0.0,0.0,0.0,0.05239006114516885,-0.10335294032245616,0.1964702471287335,0.31177445752499167,0.024549270730872114,10.03041959484118
1769170353.4533522,0.05404782295227051,START_STILL,0.10473663359880447,-0.03739001601934433,1.0876190662384033,1.027466375604272,-0.3667960571497679,10.669543039798738,0.4926846958170519,-0.28720131434222146,10.198289936964962,0.1809102382920602,-0.31175058507309356,0.16787034212378238,-0.08665766566991806,0.29360127449035645,0.008273860439658165,STATIONARY,0,0.0,0.0,0.0,0.05291853019323914,-0.10426361589551555,0.19696062446027054,0.31177445752499167,0.024549270730872114,10.03041959484118
1769170353.5111547,0.05772662162780762,START_STILL,-0.037765853106975555,-0.1338803768157959,1.089324951171875,-0.3704830189794302,-1.313366496562958,10.686277770996094,0.32888630713656347,-0.4819307979483215,10.290892590585791,0.017111849611571806,-0.5064800686791936,0.26047299574461213,-0.022822247818112373,-0.02557583712041378,0.03026500903069973,STATIONARY,0,0.0,0.0,0.0,0.05297555308508644,-0.10595139125789232,0.19782861499330115,0.31177445752499167,0.024549270730872114,10.03041959484118
1769170353.5669909,0.05640912055969238,START_STILL,-0.01900634355843067,-0.04607414826750755,1.0310814380645752,-0.1864522303082049,-0.45198739450424913,10.114908907413483,0.23109346733101632,-0.4762486099428245,10.257497175947886,-0.08068099019397534,-0.5007978806736966,0.22707758110670717,-0.007717853412032127,-0.02426660992205143,-0.1023884043097496,STATIONARY,0,0.0,0.0,0.0,0.05271882707127481,-0.1075449245464844,0.19855117333180633,0.31177445752499167,0.024549270730872114,10.03041959484118
1769170353.6177368,0.05044126510620117,START_STILL,-0.005183548666536808,-0.05331092327833176,1.0203588008880615,-0.05085061241872609,-0.5229801573604346,10.009719836711884,0.1775905557075206,-0.4851165877834405,10.210477890793129,-0.13418390181747106,-0.5096658585143127,0.1800582959519499,-0.06901603192090988,0.0032323356717824936,-0.016078157350420952,STATIONARY,0,0.0,0.0,0.0,0.05237742012175832,-0.10884167820822221,0.19900929947602677,0.31177445752499167,0.024549270730872114,10.03041959484118
1769170353.6646018,0.048105716705322266,START_STILL,-0.0069113983772695065,-0.0492100827395916,0.9713756442070007,-0.06780081808101386,-0.4827509116753936,9.529195069670678,0.1310240415369454,-0.48466766699088126,10.081194755635709,-0.18075041598804625,-0.5092169377217534,0.050775160794529484,-0.3295477032661438,0.006709735840559006,-0.06462068855762482,STATIONARY,0,0.0,0.0,0.0,0.05195913474275874,-0.11002008766649994,0.19912680132110197,0.31177445752499167,0.024549270730872114,10.03041959484118
1769170353.754761,0.0887901782989502,START_STILL,-0.0019746851176023483,-0.005065743811428547,1.0340057611465454,-0.019371661003679038,-0.04969494679011405,10.14359651684761,0.10248431128714955,-0.40212538758501465,10.093036380110442,-0.20929014623784212,-0.42667465831588675,0.06261678526926318,0.08706241101026535,-0.009478192776441574,-0.005366759840399027,STATIONARY,0,0.0,0.0,0.0,0.050309154903759895,-0.11338386086217103,0.19962045300578182,0.31177445752499167,0.024549270730872114,10.03041959484118
1769170353.799244,0.04456281661987305,START_STILL,-0.0029620276764035225,-0.0562056340277195,1.0245015621185303,-0.02905749150551856,-0.5513772698119283,10.050360324382783,0.07752237750276814,-0.4304480616114206,10.08493798967762,-0.23425208002222353,-0.45499733234229267,0.05451839483644072,0.05807739123702049,-0.004243927076458931,0.0020293965935707092,STATIONARY,0,0.0,0.0,0.0,0.0498439666697301,-0.1142874148690362,0.19972871806713666,0.31177445752499167,0.024549270730872114,10.03041959484118
1769170353.8575635,0.05837726593017578,START_STILL,-0.005183548666536808,-0.0007236776873469353,1.0249888896942139,-0.05085061241872609,-0.007099278112873435,10.055141007900238,0.05316177117008671,-0.3501115900332906,10.079283587272373,-0.258612686354905,-0.3746608607641627,0.04886399243119399,-0.002703697420656681,-0.010352578945457935,-0.009271610528230667,STATIONARY,0,0.0,0.0,0.0,0.048962639156938575,-0.11556422355623441,0.19989524191993538,0.31177445752499167,0.024549270730872114,10.03041959484118
1769170353.9097452,0.05376410484313965,START_STILL,-0.007898740470409393,-0.06127138063311577,1.0220645666122437,-0.07748664401471615,-0.6010722440108657,10.02645339846611,0.02836937043024224,-0.39773495457655395,10.069258305219057,-0.28340508709474943,-0.42228422530742604,0.03883871037787756,-0.028426703065633774,-0.008241052739322186,-0.008245897479355335,STATIONARY,0,0.0,0.0,0.0,0.04814343437230934,-0.11678486945709518,0.20000750827935945,0.31177445752499167,0.024549270730872114,10.03041959484118
1769170353.9843943,0.07367515563964844,START_STILL,0.0014546754537150264,-0.051863569766283035,1.040341854095459,0.01427036620094441,-0.5087816194072367,10.205753588676453,0.025693883227499853,-0.4188076435288936,10.095160232630787,-0.2860805742974918,-0.4433569142597657,0.06474063778960826,-0.14060373604297638,-0.006919107399880886,-0.005909335799515247,STATIONARY,0,0.0,0.0,0.0,0.046590580844982916,-0.11919142344931734,0.20035892231017866,0.31177445752499167,0.024549270730872114,10.03041959484118
1769170354.0353742,0.05031585693359375,START_STILL,0.00048489184700883925,-0.06416608393192291,1.0310814380645752,0.0047567890191567135,-0.6294692833721638,10.114908907413483,0.0217207708923301,-0.4587836951948817,10.098907825424783,-0.29005368663266157,-0.4833329659257538,0.06848823058360409,-0.04783115163445473,-0.010387971997261047,-0.006598128005862236,STATIONARY,0,0.0,0.0,0.0,0.04585625614421672,-0.12041507049098849,0.2005323129676572,0.31177445752499167,0.024549270730872114,10.03041959484118
1769170354.0815244,0.047242164611816406,START_STILL,-0.0029620276764035225,-0.07502125203609467,1.0086612701416016,-0.02905749150551856,-0.7359584824740887,9.894967060089112,0.012084871149805875,-0.5113815655286856,10.060207155583205,-0.2996895863751858,-0.5359308362595577,0.02978756074202593,0.025658290833234787,-0.014316581189632416,-0.003044630866497755,STATIONARY,0,0.0,0.0,0.0,0.045187402297047076,-0.12161117278464739,0.200598793504539,0.31177445752499167,0.024549270730872114,10.03041959484118
1769170354.14096,0.05883455276489258,START_STILL,-0.0014810138382017612,-0.06706079840660095,1.0252326726913452,-0.01452874575275928,-0.6578664323687554,10.057532519102097,0.007034557646562982,-0.5391791589084804,10.059699605151925,-0.3047398998784287,-0.5637284296393525,0.029280010310746007,-0.05061494931578636,-0.011701970361173153,-0.008552942425012589,STATIONARY,0,0.0,0.0,0.0,0.0441325437321054,-0.12356252133645639,0.20070014639488973,0.31177445752499167,0.024549270730872114,10.03041959484118
1769170354.1924758,0.05178236961364746,START_STILL,-0.005677219945937395,-0.06585466861724854,1.0074427127838135,-0.055693527669645845,-0.6460342991352082,9.883013012409211,-0.004868991482623108,-0.5594564462668155,10.026170803394638,-0.31664344900761476,-0.5840057169976876,-0.004248791446540778,0.013246668502688408,-0.010787039995193481,-0.007422484457492828,STATIONARY,0,0.0,0.0,0.0,0.04328349161736879,-0.12512848232693066,0.20068875362685973,0.31177445752499167,0.024549270730872114,10.03041959484118
1769170354.247248,0.0540165901184082,START_STILL,-0.008639248088002205,-0.06947305798530579,1.0213334560394287,-0.08475102374330164,-0.6815306988358498,10.019281203746797,-0.020027746779566778,-0.5826217773228981,10.02486340356767,-0.3318022043045584,-0.6071710480537702,-0.00555619127350937,-0.012541125528514385,-0.0110886599868536,-0.00570891797542572,STATIONARY,0,0.0,0.0,0.0,0.04231536179740549,-0.12690008115844315,0.20067254181636685,0.31177445752499167,0.024549270730872114,10.03041959484118
1769170354.3041523,0.05698871612548828,START_STILL,-0.0019746851176023483,-0.06947305798530579,1.021089792251587,-0.019371661003679038,-0.6815306988358498,10.016890861988069,-0.019903245143228426,-0.6013911563117385,10.023350500058838,-0.3316777026682201,-0.6259404270426105,-0.007069094782341523,0.0025536948814988136,-0.00862201675772667,-0.007885698229074478,STATIONARY,0,0.0,0.0,0.0,0.04123816755669688,-0.12893295649981468,0.2006495834199317,0.31177445752499167,0.024549270730872114,10.03041959484118
1769170354.364046,0.0598454475402832,START_STILL,-0.005924055352807045,-0.06754325330257416,1.015241026878357,-0.05811498301103712,-0.6625993148982525,9.959514473676682,-0.027154467569804032,-0.6130062776591984,10.011236703305414,-0.3389289250947957,-0.6375555483900704,-0.019182891535765023,-0.0013268021866679192,-0.0043853214010596275,-0.004324615933001041,STATIONARY,0,0.0,0.0,0.0,0.04002430120642756,-0.13121634740958066,0.20058088032376006,0.31177445752499167,0.024549270730872114,10.03041959484118
1769170354.425591,0.061495065689086914,START_STILL,-0.0024683563970029354,-0.06681957840919495,1.017678141593933,-0.0242145762545988,-0.6555000641942025,9.983422569036485,-0.026596581249368704,-0.6210700799122836,10.005958574504145,-0.33837103877436037,-0.6456193506431557,-0.0244610203370339,-0.002440875396132469,-0.01011896412819624,-0.0038675558753311634,STATIONARY,0,0.0,0.0,0.0,0.03874470270101762,-0.13365784937481717,0.20048837747488316,0.31177445752499167,0.024549270730872114,10.03041959484118
1769170354.483303,0.05930209159851074,START_STILL,-0.004689877387136221,-0.07333267480134964,1.021089792251587,-0.04600769716780633,-0.71939353980124,10.016890861988069,-0.030280117432924792,-0.6397283592052005,10.008033132024963,-0.34205457495791647,-0.6642776299360726,-0.02238646281621648,0.03899598494172096,-0.008971638977527618,0.007316909730434418,STATIONARY,0,0.0,0.0,0.0,0.037541786355943865,-0.1359939398037064,0.20040965014889045,0.31177445752499167,0.024549270730872114,10.03041959484118
1769170354.5424616,0.05865168571472168,START_STILL,-0.0012341781985014677,-0.05837666615843773,1.0218209028244019,-0.0121072881272994,-0.5726750950142742,10.024063056707382,-0.026831563800762077,-0.6270040456772896,10.011075038932091,-0.33860602132575374,-0.6515533164081617,-0.0193445559090879,0.022809946909546852,-0.009109174832701683,-0.057281866669654846,STATIONARY,0,0.0,0.0,0.0,0.03637697479015278,-0.13823529639775123,0.20034310448508397,0.31177445752499167,0.024549270730872114,10.03041959484118
1769170354.59515,0.05218863487243652,START_STILL,-0.020487360656261444,-0.1051744893193245,1.0084174871444702,-0.20098100803792476,-1.0317617402225734,9.892575548887253,-0.05987890543167044,-0.7038125928878148,9.988588070066045,-0.3716533629566621,-0.7283618636186869,-0.041831524775133744,-0.0003961613401770592,-0.0026497934013605118,0.00854550302028656,STATIONARY,0,0.0,0.0,0.0,0.035364719766523535,-0.14021910181687225,0.2002291699016247,0.31177445752499167,0.024549270730872114,10.03041959484118
1769170354.6442883,0.0488893985748291,START_STILL,-0.006417726632207632,-0.055240727961063385,1.036442756652832,-0.06295789826195687,-0.5419115412980319,10.167503442764282,-0.06046318824915117,-0.6730895585093386,10.022539814617856,-0.37223764577414287,-0.6976388292402107,-0.007879780223323252,-0.01564270444214344,-0.05159101262688637,0.005368716083467007,STATIONARY,0,0.0,0.0,0.0,0.03447500728694182,-0.14188657951468792,0.20021033586138015,0.31177445752499167,0.024549270730872114,10.03041959484118
1769170354.701885,0.05787801742553711,START_STILL,-0.015550645999610424,-0.10758674889802933,1.0505770444869995,-0.15255183725617827,-1.0554260066896677,10.306160806417466,-0.07793832322529032,-0.7456433543386056,10.076360944227288,-0.389712780750282,-0.7701926250694777,0.0459413493861085,-0.04252077266573906,0.0009433990344405174,-0.048387426882982254,STATIONARY,0,0.0,0.0,0.0,0.03316952212119217,-0.14446662075650255,0.20036423317519833,0.31177445752499167,0.024549270730872114,10.03041959484118
1769170354.7611778,0.05874204635620117,START_STILL,0.029820848256349564,-0.05910034477710724,1.0376611948013306,0.29254252139478926,-0.579774382263422,10.179456321001053,-0.007634297315257804,-0.7141673504377763,10.095924762829947,-0.31940875484024944,-0.7387166211686484,0.06550516798876771,-0.10879965126514435,0.06355708837509155,-0.08687193691730499,STATIONARY,0,0.0,0.0,0.0,0.03206736132506474,-0.1470156570210439,0.2005902671426676,0.31177445752499167,0.024549270730872114,10.03041959484118
1769170354.820848,0.061226606369018555,START_STILL,0.009212944656610489,-0.06199505552649498,1.068610668182373,0.0903789870813489,-0.6081714947149158,10.48307065486908,0.01096512175271782,-0.6940531245734463,10.169391219247668,-0.30080933577227387,-0.7186023953043184,0.13897162440648891,-0.005868860054761171,-0.18720310926437378,-0.10122726857662201,STATIONARY,0,0.0,0.0,0.0,0.030939718171978173,-0.1497094798998324,0.2011112296996739,0.31177445752499167,0.024549270730872114,10.03041959484118
1769170354.8876417,0.06779813766479492,START_STILL,-0.011107604019343853,-0.08684132248163223,1.055694818496704,-0.10896559542976321,-0.8519133735448122,10.356366169452668,-0.011793442881986495,-0.7240093590050215,10.20487238361723,-0.32356790040697814,-0.7485586297358936,0.1744527887760512,0.07720881700515747,-0.012495636940002441,-0.05755040422081947,STATIONARY,0,0.0,0.0,0.0,0.029452410015009707,-0.15315029511844647,0.20191311720281055,0.31177445752499167,0.024549270730872114,10.03041959484118
1769170354.9445455,0.05414938926696777,START_STILL,-0.016044316813349724,-0.09649036079645157,0.973325252532959,-0.1573947479389608,-0.94657043941319,9.548320727348328,-0.03942336780767933,-0.766243499287298,10.080282339829843,-0.35119782533267097,-0.79079277001817,0.04986274498866372,0.07751424610614777,-0.08366143703460693,0.01605885848402977,STATIONARY,0,0.0,0.0,0.0,0.0284226430785498,-0.15546902316690428,0.20205932256755568,0.31177445752499167,0.024549270730872114,10.03041959484118
1769170355.000577,0.056208133697509766,START_STILL,0.014546754769980907,-0.07888086885213852,0.9998881816864014,0.14270366429351272,-0.773821323439479,9.808903062343598,-0.004862165063472576,-0.7676814995328516,10.028784250163685,-0.31663662258846426,-0.7922307702637237,-0.0016353446774939329,0.10839227586984634,-0.08672648668289185,0.1316557228565216,STATIONARY,0,0.0,0.0,0.0,0.02742227580541418,-0.1579719608525835,0.20205415593432707,0.31177445752499167,0.024549270730872114,10.03041959484118
1769170355.0520372,0.051419973373413086,START_STILL,0.011637403629720211,-0.046797823160886765,1.0449721813201904,0.11416292960755528,-0.45908664520829917,10.251177098751068,0.017724544779183844,-0.7091212232076767,10.070986466057807,-0.29404991274580783,-0.7336704939385488,0.04056687121662783,0.1505887806415558,0.0012327013537287712,0.09934379905462265,STATIONARY,0,0.0,0.0,0.0,0.02664480381888595,-0.15991179566175973,0.20216141529603718,0.31177445752499167,0.024549270730872114,10.03041959484118
1769170355.107091,0.05493927001953125,START_STILL,0.017940998077392578,-0.02532871812582016,0.9521235823631287,0.1760011911392212,-0.24847472481429578,9.340332342982293,0.047759796555993314,-0.621706978102442,9.932334421975339,-0.26401466096899834,-0.6462562488333141,-0.09808517286584006,-0.08887038379907608,-0.13560111820697784,-0.069865882396698,STATIONARY,0,0.0,0.0,0.0,0.025847922192306652,-0.16186240601372726,0.20186536252453666,0.31177445752499167,0.024549270730872114,10.03041959484118
1769170355.16001,0.05287885665893555,START_STILL,0.011152512393891811,-0.05982402339577675,1.119543433189392,0.10940614658407867,-0.5868736695125699,10.982721079587938,0.059458070981160585,-0.6150968608313431,10.131660276104387,-0.2523163865438311,-0.6396461315622152,0.10124068126320829,-0.015448948368430138,-0.17744357883930206,-0.06514740735292435,STATIONARY,0,0.0,0.0,0.0,0.025142401803290696,-0.16365096756438158,0.20214844903273954,0.31177445752499167,0.024549270730872114,10.03041959484118
1769170355.2122319,0.05217480659484863,START_STILL,0.03539710119366646,-0.006995550822466612,1.0322998762130737,0.34724556270986795,-0.06862635356839747,10.126861785650254,0.11406985339551576,-0.511396285593558,10.130749694080741,-0.1977046041294759,-0.5359455563244301,0.10033009923956193,0.07373737543821335,0.18663211166858673,-0.042545389384031296,STATIONARY,0,0.0,0.0,0.0,0.024604208265258765,-0.16510992415479986,0.20242156867665775,0.31177445752499167,0.024549270730872114,10.03041959484118
1769170355.2610896,0.04912710189819336,START_STILL,0.04097335785627365,-0.07598615437746048,0.9528546929359436,0.40194864057004454,-0.7454241744428873,9.347504537701607,0.16869896042322596,-0.5558064163742891,9.982117751113611,-0.1430754971017657,-0.5803556871051612,-0.04830184372756818,0.07666231691837311,0.03449125960469246,0.0028879866003990173,STATIONARY,0,0.0,0.0,0.0,0.024258899538956023,-0.16651059643745003,0.20230499352246642,0.31177445752499167,0.024549270730872114,10.03041959484118
1769170355.3147926,0.053412437438964844,START_STILL,0.003879134776070714,-0.023640137165784836,0.9599218368530273,0.03805431215325371,-0.23190974559634925,9.416833219528199,0.14390727450921312,-0.494342402066351,9.8748469463413,-0.16786718301577855,-0.5188916727972231,-0.15557264849987895,0.04489731788635254,0.021052226424217224,-0.08965809643268585,STATIONARY,0,0.0,0.0,0.0,0.023779993187506565,-0.16799093650959782,0.20186116210682037,0.31177445752499167,0.024549270730872114,10.03041959484118
1769170355.37154,0.05682229995727539,START_STILL,0.00048489184700883925,-0.11578842997550964,0.953342080116272,0.0047567890191567135,-1.1358844980597496,9.352285805940628,0.11750148463006665,-0.6160841676503412,9.775683514580127,-0.194272972894925,-0.6406334383812133,-0.2547360802610523,0.055587463080883026,-0.10814577341079712,-0.13974903523921967,STATIONARY,0,0.0,0.0,0.0,0.023152729707930537,-0.17005939695318767,0.2010386769319807,0.31177445752499167,0.024549270730872114,10.03041959484118
1769170355.4266589,0.05518984794616699,START_STILL,0.05624745413661003,-0.10059119760990143,1.0600812435150146,0.5517875250801444,-0.9867996485531331,10.399396998882294,0.1999134567563926,-0.6864327191425699,9.894042046735231,-0.11186100076859906,-0.710981989873442,-0.1363775481059477,0.08918505162000656,-0.16312365233898163,0.12445016950368881,STATIONARY,0,0.0,0.0,0.0,0.02281201012494646,-0.17222499072969955,0.20062328192389228,0.31177445752499167,0.024549270730872114,10.03041959484118
1769170355.4752653,0.0485689640045166,START_STILL,0.02569926716387272,-0.047521501779556274,0.9499303102493286,0.2521098108775914,-0.46618593245744705,9.318816343545913,0.20981845963531096,-0.6446377491122272,9.784884762820568,-0.10195599788968071,-0.6691870198430993,-0.24553483202061166,0.08618465065956116,0.006284039467573166,0.10824450850486755,STATIONARY,0,0.0,0.0,0.0,0.022571501608496074,-0.17380356561201754,0.20004407894016915,0.31177445752499167,0.024549270730872114,10.03041959484118
1769170355.5273988,0.05206632614135742,START_STILL,0.04509493708610535,-0.04776272922754288,1.0342494249343872,0.4423813328146935,-0.46855237372219566,10.145986858606339,0.25395058279131816,-0.6112230369251679,9.853409037332854,-0.05782387473367351,-0.63577230765604,-0.17701055750832495,0.007383029907941818,-0.10978035628795624,0.10305215418338776,STATIONARY,0,0.0,0.0,0.0,0.022414746732453018,-0.17552708223447236,0.19956422060953447,0.31177445752499167,0.024549270730872114,10.03041959484118
1769170355.5749617,0.04763460159301758,START_STILL,0.029578402638435364,-0.015679681673645973,1.0413166284561157,0.29016412988305096,-0.153817677218467,10.215316125154496,0.26082262000998246,-0.5244238441269966,9.922086070568753,-0.0509518375150092,-0.5489731148578687,-0.10833352427242637,0.00533515028655529,-0.05672077089548111,0.007387582212686539,STATIONARY,0,0.0,0.0,0.0,0.02229913419707815,-0.17677273257323906,0.19931840585548286,0.31177445752499167,0.024549270730872114,10.03041959484118
1769170355.6254225,0.05071139335632324,START_STILL,0.04727695509791374,-0.05427582561969757,0.9472496509552002,0.46378692951053385,-0.5324458493292332,9.292519075870514,0.2993379934257697,-0.5259461340639212,9.802616751304068,-0.012436464099221944,-0.5504954047947933,-0.2278028435371109,0.030380623415112495,-0.030453568324446678,0.08160770684480667,STATIONARY,0,0.0,0.0,0.0,0.0222671520211844,-0.17818841155758558,0.19873257771711705,0.31177445752499167,0.024549270730872114,10.03041959484118
1769170355.6880486,0.0626688003540039,START_STILL,0.0850985199213028,-0.08153434842824936,1.01572847366333,0.8348164804279805,-0.7998519580811263,9.96429632663727,0.4009526759961302,-0.5779236719805217,9.833297757403061,0.08917821847113855,-0.6024729427113938,-0.19712183743811806,0.0352754145860672,0.04903697222471237,0.0835394412279129,STATIONARY,0,0.0,0.0,0.0,0.02261738864244808,-0.18055455086240155,0.19795840564342893,0.31177445752499167,0.024549270730872114,10.03041959484118
1769170355.7489986,0.060686349868774414,START_STILL,0.045822277665138245,-0.009649035520851612,1.0466779470443726,0.4495165438950062,-0.09465703845955432,10.267910660505295,0.41016836278974894,-0.48621693351377715,9.915771756380977,0.09839390526475728,-0.5107662042446492,-0.11464783846020232,0.14309313893318176,0.04292832314968109,0.10736318677663803,STATIONARY,0,0.0,0.0,0.0,0.02297975696969853,-0.18243561752552637,0.19753617679364482,0.31177445752499167,0.024549270730872114,10.03041959484118
1769170355.8041022,0.05616879463195801,START_STILL,0.029335955157876015,-0.03160059452056885,1.0264511108398438,0.28778572009876374,-0.3100018322467804,10.069485397338868,0.38694451030822996,-0.45277760399076705,9.944941112782415,0.0751700527832383,-0.47732687472163915,-0.08547848205876463,0.07386785745620728,-0.08292736858129501,0.08233724534511566,STATIONARY,0,0.0,0.0,0.0,0.023216913486700037,-0.183941552068457,0.19726649786788847,0.31177445752499167,0.024549270730872114,10.03041959484118
1769170355.8575926,0.0551602840423584,START_STILL,0.010910065844655037,0.017966650426387787,1.0527703762054443,0.10702774593606591,0.1762528406828642,10.32767739057541,0.3338263107013008,-0.33341010274820104,10.017570781985047,0.022051853176309144,-0.35795937347907314,-0.012848812856132596,0.09952419996261597,-0.17761148512363434,-0.07862575352191925,STATIONARY,0,0.0,0.0,0.0,0.02328400971071051,-0.1850306996388482,0.1972274033383371,0.31177445752499167,0.024549270730872114,10.03041959484118
1769170355.912078,0.06078624725341797,START_STILL,0.05697479099035263,-0.013267423957586288,1.1392828226089478,0.5589226996153593,-0.1301534290239215,11.176364489793778,0.37654156194376953,-0.2948392490498064,10.237468420530195,0.06476710441877787,-0.3193885197806785,0.20704882568901617,-0.4948476552963257,-0.556958794593811,0.12784670293331146,STATIONARY,0,0.0,0.0,0.0,0.023523322079609273,-0.1862108299527429,0.19799244209370534,0.31177445752499167,0.024549270730872114,10.03041959484118
1769170355.9813993,0.06016254425048828,START_STILL,-0.014069631695747375,-0.02243400737643242,0.9255606532096863,-0.13802308693528176,-0.22007761236280204,9.079750007987023,0.27889557853462105,-0.2806521618655565,10.017774834602903,-0.03287887899037062,-0.3052014325964286,-0.012644760238275765,-0.14573819935321808,-0.029171232134103775,-0.0028784610331058502,STATIONARY,0,0.0,0.0,0.0,0.023404315933834047,-0.18731551622227832,0.19794667398279592,0.31177445752499167,0.024549270730872114,10.03041959484118
1769170356.050897,0.06966018676757812,START_STILL,0.09455391019582748,-0.0984201654791832,1.0030561685562134,0.9275738590210677,-0.9655018233507872,9.839981013536454,0.4019915369379797,-0.41061215586985955,9.984035920474382,0.09021707941298801,-0.43516142660073165,-0.04638367436679758,0.03416161611676216,-0.42898252606391907,0.02033441700041294,STATIONARY,0,0.0,0.0,0.0,0.02384209806656497,-0.18942715515649186,0.1977215952724196,0.31177445752499167,0.024549270730872114,10.03041959484118
1769170356.1185014,0.06765866279602051,START_STILL,-0.03208863362669945,-0.11385862529277802,0.9969637989997864,-0.3147894958779216,-1.1169531141221525,9.780214868187905,0.2659721096593965,-0.5446504300516469,9.945357967891832,-0.04580234786559517,-0.569199700782519,-0.08506162694934716,0.08180910348892212,0.020003419369459152,-0.09237021952867508,STATIONARY,0,0.0,0.0,0.0,0.023632428903721567,-0.19203277758231152,0.1973322091176988,0.31177445752499167,0.024549270730872114,10.03041959484118
1769170356.1747983,0.05643939971923828,START_STILL,0.13213303685188293,-0.0639248639345169,1.0583754777908325,1.2962250915169717,-0.6271029151976109,10.382663437128068,0.46147731156714866,-0.5602969654561774,10.028342919708466,0.149702854042157,-0.5848462361870495,-0.002076675132713035,-0.19430197775363922,-0.10247506201267242,-0.03678148239850998,STATIONARY,0,0.0,0.0,0.0,0.024109293249352116,-0.19389575019895441,0.1973255940646019,0.31177445752499167,0.024549270730872114,10.03041959484118
1769170356.2455304,0.07045722007751465,START_STILL,0.18983514606952667,-0.10203855484724045,1.0354679822921753,1.8622827829420567,-1.000998223051429,10.15794090628624,0.7273001350263436,-0.6439263165615846,10.052935986633681,0.41552567750135194,-0.6684755872924567,0.022516391792501977,0.10532741993665695,0.21548029780387878,0.06706561148166656,STATIONARY,0,0.0,0.0,0.0,0.02617205407038114,-0.19721420998601957,0.19743737038393744,0.31177445752499167,0.024549270730872114,10.03041959484118
1769170356.3088531,0.06325221061706543,START_STILL,0.1544380486011505,-0.08515273779630661,1.0032999515533447,1.5150372567772865,-0.8353483577817679,9.842372524738312,0.8767844925095621,-0.6802513798978435,10.012978565634011,0.5650100349845705,-0.7048006506287156,-0.017441029207168057,0.05554190278053284,0.22097808122634888,0.15991713106632233,STATIONARY,0,0.0,0.0,0.0,0.02843257003235963,-0.20003400613495442,0.19736759157918185,0.31177445752499167,0.024549270730872114,10.03041959484118
1769170356.3698618,0.061516523361206055,START_STILL,0.1651056706905365,-0.031118139624595642,0.9972074627876282,1.6196866294741632,-0.30526894971728324,9.782605209946633,1.017760771969672,-0.6090931139036716,9.969261934659917,0.7059863144446803,-0.6336423846345437,-0.06115766018126223,0.0524875745177269,0.012367604300379753,0.012087738141417503,STATIONARY,0,0.0,0.0,0.0,0.031104221790743694,-0.202431888015182,0.19713615370706042,0.31177445752499167,0.024549270730872114,10.03041959484118
