timestamp,dt,heading_rad,accel_x,accel_y,accel_z,accel_norm,gyro_x_rads,gyro_y_rads,gyro_z_rads,step_event
0.00098,0.00098,1.962522,0.010668,0.090562,0.999157,1.00331,-0.022556,0.004896,-0.018864,0
0.150684,0.149704,1.96197,0.029094,0.089833,0.999157,1.003609,-0.008925,-0.0138,-0.001308,0
0.192443,0.041759,1.960956,0.02279,0.091047,0.999157,1.003556,-0.005867,-0.035807,-0.006647,0
0.238479,0.046036,1.960334,0.032003,0.098331,0.940913,0.946579,0.021267,-0.02815,-0.026772,0
0.281529,0.04305,1.95909,0.015032,0.083035,0.989897,0.993487,0.025684,0.01937,-0.034627,0
0.323459,0.04193,1.957805,0.02279,0.08522,0.991602,0.995519,0.013046,0.037297,-0.025348,0
0.368593,0.045135,1.956951,0.025942,0.094204,1.002813,1.007562,-0.00708,-0.002404,-0.015008,0
0.410121,0.041528,1.956431,0.027154,0.095417,0.984292,0.989278,-0.017042,-0.016057,0.019108,0
0.455144,0.045023,1.955996,0.032488,0.08692,0.97625,0.98065,-0.040668,0.052003,0.026167,0
0.496655,0.041511,1.955579,0.020365,0.085463,0.997451,1.001313,-0.044846,0.050425,0.027701,0
0.534643,0.037988,1.955758,0.015032,0.084006,1.002325,1.005952,-0.010787,-0.026484,0.035832,0
0.584981,0.050338,1.955707,0.024002,0.088619,0.983804,0.988079,0.00435,0.022982,0.028164,0
0.630411,0.045429,1.955818,0.026911,0.092747,0.999157,1.003813,-0.035316,0.002295,-0.04553,0
0.681369,0.050958,1.953799,0.016244,0.080364,1.001594,1.004944,0.006192,-0.067127,0.025231,0
0.722951,0.041582,1.95366,0.024002,0.084977,0.989897,0.993827,0.006045,-0.045072,0.023029,0
0.7688,0.045849,1.953838,0.035882,0.087405,0.991846,0.996336,0.001607,-0.028575,0.025661,0
0.810527,0.041726,1.953113,0.021578,0.088862,0.999401,1.003576,-0.035351,-0.07103,0.003365,0
0.855648,0.045121,1.951259,0.028609,0.084006,0.997207,1.001148,-0.014399,-0.041348,0.017571,0
0.897152,0.041505,1.950003,0.030548,0.085706,1.000132,1.004262,-0.092189,-0.016897,0.019578,0
0.935157,0.038005,1.949873,0.033942,0.078908,0.999401,1.003085,0.017167,-0.026408,0.018768,0
0.983687,0.04853,1.949208,0.037822,0.079636,0.985266,0.989203,0.006161,0.002896,0.017157,0
1.021696,0.038009,1.947644,0.033942,0.082549,1.057401,1.061161,-0.085163,0.012365,0.00219,0
1.063226,0.04153,1.945374,0.032245,0.067739,0.993552,0.996381,0.009184,0.002419,-0.001491,0
1.108556,0.04533,1.942511,0.029094,0.070895,0.93604,0.939171,0.021041,0.001177,-0.004169,0
1.150257,0.041701,1.940049,0.032245,0.088376,0.997939,1.002363,-0.03257,0.010504,0.005737,0
1.195349,0.045091,1.938367,0.03273,0.08085,0.990384,0.994218,0.023365,0.041072,0.018597,0
1.237035,0.041687,1.937217,0.025214,0.084492,0.999157,1.00304,-0.019396,0.025801,0.042726,0
1.280997,0.043962,1.937132,0.032003,0.082549,0.985997,0.989964,-0.001221,0.061391,0.049135,0
1.326651,0.045654,1.93658,0.029336,0.079393,1.043023,1.046451,0.012843,0.00797,0.004967,0
1.375256,0.048605,1.933132,0.009213,0.067011,0.998426,1.000715,-0.000641,-0.01917,-0.03662,0
1.413377,0.038121,1.929118,0.031033,0.075994,0.989897,0.993294,-0.025667,0.01863,-0.004825,0
1.461829,0.048452,1.926564,0.037579,0.082064,1.002569,1.006624,-0.021839,-0.003613,0.018736,0
1.499876,0.038047,1.924754,0.03564,0.090319,0.936771,0.941789,-0.012162,-0.041991,0.00701,0
1.54144,0.041563,1.922698,0.022547,0.077694,0.985754,0.989068,0.025389,-0.013269,0.00912,0
1.58648,0.04504,1.920772,0.022547,0.077208,0.985754,0.98903,-0.009057,0.024986,-0.009894,0
1.628274,0.041795,1.918588,0.034912,0.07648,0.993552,0.997103,-0.026252,0.02908,0.008724,0
1.673484,0.045209,1.916373,0.026911,0.075508,1.000132,1.003339,0.023386,-0.016584,-0.017742,0
1.71531,0.041826,1.912682,0.032488,0.075508,0.991602,0.995004,0.012372,0.011444,-0.024984,0
1.760764,0.045455,1.908923,0.0337,0.083035,0.993552,0.997585,0.015804,-0.00043,-0.014075,0
1.803061,0.042296,1.906832,0.031033,0.081821,0.988678,0.992543,0.065236,0.010623,-0.020106,0
1.848224,0.045164,1.90492,0.026184,0.082792,1.046191,1.049788,-0.050133,0.029755,-0.003361,0
1.891109,0.042885,1.902571,0.045095,0.09299,1.000132,1.005457,0.011582,-0.071497,-0.031427,0
1.932761,0.041652,1.898201,0.039519,0.08522,0.968939,0.973482,0.066793,0.043808,-0.01475,0
1.97792,0.045158,1.894441,0.02376,0.114598,1.011586,1.018333,-0.018749,-0.078914,-0.0217,0
2.019565,0.041645,1.889228,0.019638,0.093961,0.97893,0.983625,0.004368,-0.009776,-0.035789,0
2.064666,0.045101,1.880857,0.045822,0.105372,0.976981,0.983714,-0.012705,0.065815,-0.0818,0
2.106718,0.042052,1.869037,-0.016538,0.168012,0.947737,0.962656,0.051472,-0.068323,-0.070215,0
2.152182,0.045465,1.858635,0.069582,0.125767,0.967233,0.977854,-0.053516,0.01823,-0.010585,0
2.193861,0.041679,1.849157,0.056005,0.10173,0.989653,0.996443,-0.04343,0.019663,-0.074992,0
2.23958,0.045719,1.834199,0.042913,0.109985,0.999401,1.00635,-0.070716,0.017358,-0.131594,0
2.294997,0.055417,1.822367,0.010668,0.093475,0.977712,0.982228,-0.540622,-0.095128,1.400438,0
2.335307,0.04031,1.854855,-0.265595,0.368802,1.153174,1.239502,-0.060482,0.012079,0.328064,1
2.385218,0.049912,1.859377,-0.070101,0.042003,1.034737,1.037959,-0.594907,0.25941,-0.218202,0
2.428618,0.043399,1.858984,0.032245,0.053172,0.942376,0.944425,-0.008476,-0.210651,-0.064875,0
2.471756,0.043138,1.863778,0.127527,0.130622,0.952855,0.970184,0.019294,0.016012,0.139819,0
2.517454,0.045699,1.873239,0.06643,0.160486,0.988434,1.003579,-0.153887,0.201104,0.119049,0
2.561807,0.044353,1.884127,0.025942,0.115084,0.968939,0.976094,0.008128,0.032749,0.299802,0
2.616683,0.054876,1.905808,0.030063,0.122853,0.961384,0.969668,-0.091443,0.241054,0.187403,0
2.681638,0.064955,1.916904,-0.011354,0.048559,0.982098,0.983364,0.102416,0.059601,0.106965,0
2.727663,0.046026,1.926121,0.040488,0.050501,0.999644,1.001738,0.123505,0.008181,0.087633,0
2.778637,0.050974,1.938083,0.089463,0.053657,0.994527,0.999983,-0.038345,0.199858,0.194289,0
2.831051,0.052414,1.954063,0.08025,0.002428,1.000619,1.003835,-0.030098,0.189473,0.18818,0
2.885523,0.054472,1.969673,0.092129,-0.007719,0.962359,0.96679,-0.117147,0.237426,0.231246,0
2.934249,0.048726,1.990154,0.07637,0.011654,0.995745,0.998738,0.010047,0.075178,0.176609,0
3.002051,0.067802,2.001892,0.047277,0.056328,0.972838,0.975613,-0.014377,0.11266,0.108564,0
3.065938,0.063887,2.012053,0.075886,0.066282,0.96309,0.968346,0.036559,0.022295,0.05589,0
3.112593,0.046655,2.020359,0.11201,0.069196,0.959435,0.968426,0.000157,0.031258,0.215033,0
3.165088,0.052495,2.036119,0.117586,0.04346,0.97235,0.980398,0.077432,0.066077,0.306968,0
3.215769,0.050681,2.049831,0.060854,0.041275,1.05009,1.052661,0.06679,-0.11037,0.188681,0
3.263461,0.047691,2.056483,0.068612,0.046859,1.077627,1.080826,0.031428,-0.10816,0.045148,0
3.309189,0.045728,2.056414,0.075401,0.018938,1.076896,1.079699,0.172201,-0.086112,0.081116,0
3.361427,0.052238,2.059821,0.039276,0.059484,1.187778,1.189915,0.036894,0.244672,0.075312,1
3.425385,0.063957,2.067874,-0.04838,0.060941,1.151955,1.15458,0.068659,0.000631,0.206343,0
3.479115,0.05373,2.075709,-0.094291,0.068468,1.058863,1.065255,0.067438,-0.060455,0.309885,0
3.518802,0.039687,2.084535,-0.14119,0.102701,0.99014,1.005415,-0.148198,-0.180185,0.173051,0
3.562958,0.044156,2.092843,-0.041715,0.086434,0.873897,0.879151,-0.163469,-0.193318,0.465044,0
3.606767,0.043809,2.112985,-0.045665,0.083521,0.876578,0.881731,-0.008004,-0.161553,0.593326,0
3.649924,0.043157,2.141482,-0.062943,0.086677,0.936527,0.942633,0.085764,-0.08825,0.637003,0
3.702446,0.052522,2.164073,-0.067633,0.102944,0.975031,0.98278,0.074768,-0.09222,0.549955,0
3.751292,0.048847,2.179388,0.007273,0.131108,0.923855,0.93314,-0.166218,0.150904,0.502307,0
3.796998,0.045706,2.198514,0.038064,0.098574,0.813216,0.820053,-0.262124,0.13716,0.294308,0
3.850619,0.053621,2.203505,0.068855,0.083763,0.856107,0.862946,-0.102078,-0.090999,0.199623,0
3.904519,0.0539,2.206226,0.093342,0.06434,0.89193,0.899106,-0.007644,-0.064729,0.005452,0
3.952848,0.04833,2.199686,0.094796,0.086191,0.979905,0.988245,-0.084232,-0.025536,-0.074755,0
3.99525,0.042402,2.187349,0.071037,0.048559,1.012317,1.015967,0.081313,-0.300731,-0.257404,0
4.040302,0.045051,2.165657,0.105464,0.054871,1.066174,1.072781,0.14637,-0.327303,-0.461433,0
4.091244,0.050942,2.137476,0.075158,0.074537,1.149031,1.153896,-0.002376,-0.259803,-0.571389,0
4.144204,0.05296,2.108184,0.059884,0.032534,1.122955,1.125021,-0.110805,-0.028285,-0.546343,0
4.188141,0.043937,2.079348,0.018668,-0.022675,1.094686,1.09508,0.197682,-0.123885,-0.605597,0
4.234026,0.045885,2.052403,-0.020981,0.016267,1.1444,1.144708,0.362311,-0.196884,-0.618731,0
4.275954,0.041928,2.022615,-0.021228,0.034234,1.086888,1.087634,0.065125,-0.198716,-0.730519,0
4.325018,0.049064,1.991112,0.029578,0.020152,0.921174,0.921869,0.018699,-0.14496,-0.639805,0
4.370262,0.045244,1.967887,0.059884,-0.016403,0.866342,0.868564,0.186076,-0.221318,-0.510913,0
4.41268,0.042418,1.949191,0.041943,0.02695,0.947981,0.949291,-0.056438,-0.128467,-0.412564,0
4.456765,0.044086,1.935963,0.081462,0.037876,0.92751,0.931851,-0.326135,0.152837,-0.222585,0
4.498571,0.041806,1.930758,0.064248,0.013354,0.889981,0.892397,-0.253136,0.089612,-0.108658,0
4.536701,0.03813,1.921132,0.011153,0.005341,0.908258,0.908342,-0.070182,-0.059439,-0.249157,0
4.585424,0.048723,1.909643,0.073219,0.020637,0.932384,0.935482,-0.103474,-0.044473,-0.21617,0
4.62398,0.038556,1.899595,0.111525,0.032777,0.926292,0.933557,-0.142875,-0.005072,-0.188071,0
4.672623,0.048643,1.891191,0.142073,0.035205,0.914351,0.925992,-0.101224,-0.049905,-0.138314,0
4.710606,0.037983,1.883055,0.161711,0.031806,0.916788,0.931484,-0.020659,-0.029829,-0.19117,0
4.752144,0.041538,1.870062,0.145952,0.031077,0.979661,0.990961,0.038289,-0.089694,-0.316092,0
4.797078,0.044934,1.854407,0.098675,0.03302,1.0613,1.066388,0.110066,-0.285476,-0.408944,0
4.838496,0.041418,1.831935,0.080492,0.065554,1.148787,1.153468,-0.171849,-0.146199,-0.605031,0
4.883373,0.044877,1.80168,0.046792,0.073809,1.120031,1.123435,-0.162686,-0.069535,-0.628855,0
4.924946,0.041574,1.779021,0.098191,0.075994,1.053989,1.061277,0.059669,0.224596,-0.142912,0
4.963043,0.038097,1.775364,-0.003456,0.078908,1.089569,1.092428,0.222465,0.162594,-0.054336,0
5.011462,0.048419,1.768678,-0.034063,0.124067,0.994283,1.002573,-0.026463,0.197413,-0.114201,0
5.049378,0.037916,1.76422,0.013819,0.085949,0.905821,0.909995,-0.15902,0.290264,-0.03204,0
5.090773,0.041395,1.758925,-0.02962,0.077451,0.891199,0.895049,-0.002595,0.130432,-0.11048,0
5.136133,0.04536,1.756297,0.062551,0.055599,0.93872,0.942443,0.120767,0.069519,0.251543,0
5.177914,0.041781,1.771027,0.061581,0.093232,0.990628,0.996909,-0.116249,0.360291,0.472066,0
5.223038,0.045124,1.78765,-0.045418,0.031563,0.991115,0.992657,0.043187,0.060662,0.225887,0
5.264592,0.041554,1.790853,-0.006665,0.064583,0.966745,0.968923,0.015457,-0.106322,0.068481,0
5.302669,0.038078,1.792073,0.077825,0.09566,0.927998,0.936156,-0.111565,-0.039213,0.088652,0
5.351387,0.048718,1.794705,0.088978,0.109257,0.898023,0.90901,-0.13523,-0.035683,0.135802,0
5.391007,0.03962,1.799521,0.104979,0.109985,0.889006,0.901914,-0.139206,-0.019915,0.094276,0
5.433472,0.042465,1.803384,0.14765,0.100031,0.904359,0.921776,-0.158143,0.03323,0.1181,0
5.482104,0.048631,1.806874,0.126314,0.050744,1.022552,1.031573,-0.012458,-0.132492,-0.011193,0
5.520108,0.038005,1.805263,0.110555,0.068953,1.183636,1.190786,-0.183195,-0.150207,-0.027075,1
5.56864,0.048532,1.805573,0.104252,0.060941,1.139283,1.145665,-0.380504,0.107578,0.005912,0
5.606706,0.038066,1.806248,0.011395,-0.026294,1.096392,1.096767,-0.103539,0.127992,-0.080674,0
5.648284,0.041578,1.80732,0.02279,-0.02557,1.111501,1.112029,0.256527,-0.011342,0.093115,0
5.693554,0.04527,1.814347,-0.01012,0.020637,1.137821,1.138053,0.12122,-0.01348,0.099224,0
5.735082,0.041528,1.8166,-0.030361,0.001942,0.982829,0.9833,0.046307,-0.055258,-0.091311,0
5.780127,0.045045,1.817728,0.023275,-0.019057,0.921418,0.921909,0.226817,-0.133754,-0.005484,0
5.82165,0.041523,1.82179,0.020365,0.02088,0.977468,0.977903,0.003862,0.011265,0.035779,0
5.866726,0.045077,1.826737,0.012607,0.01651,0.929703,0.929936,-0.104324,0.037304,0.035041,0
5.908206,0.041479,1.833056,0.027639,-0.002895,0.86951,0.869954,-0.044177,0.064962,0.059549,0
5.946436,0.03823,1.838703,0.015274,0.010683,0.885107,0.885303,-0.007638,-0.169617,-0.069589,0
5.995221,0.048785,1.838191,0.052853,0.019909,0.891199,0.892987,0.0027,-0.149349,-0.066918,0
6.033278,0.038057,1.843709,0.13286,0.034477,0.879258,0.889908,-0.082569,-0.019369,0.129834,0
6.081792,0.048514,1.850584,0.099645,0.003399,0.901922,0.907416,-0.004214,-0.059133,-0.021511,0
6.119848,0.038056,1.852158,0.132618,0.001214,0.986729,0.995601,0.132886,-0.138535,0.008231,0
6.161553,0.041705,1.855243,0.126072,0.023065,1.035224,1.043128,0.156763,-0.090989,0.027057,0
6.206677,0.045124,1.857822,0.092614,0.031806,1.183148,1.187194,0.117311,-0.134598,-0.075435,1
6.248294,0.041616,1.855154,0.084129,0.033263,1.140501,1.144084,0.028742,-0.001854,-0.119759,0
6.293325,0.045032,1.852989,0.085826,0.060455,1.171694,1.176388,-0.280677,0.367499,-0.03759,0
6.334815,0.041489,1.857107,0.032245,0.012382,1.13514,1.135665,-0.146898,0.346119,0.096495,0
6.379905,0.04509,1.862501,-0.082443,0.028164,1.043754,1.047383,0.06537,-0.073589,-0.090229,0
6.421891,0.041986,1.863713,0.002909,0.090562,0.954073,0.958366,0.02237,0.075942,0.255171,0
6.467667,0.045777,1.882885,0.047035,0.10343,0.923124,0.93009,-0.081782,0.319066,0.584122,0
6.509324,0.041657,1.910283,-0.035297,0.088376,0.915813,0.920744,-0.150199,0.223771,0.380093,0
6.554518,0.045194,1.92552,-0.001975,0.031806,0.862687,0.863275,0.059633,-0.045926,0.345274,0
6.596175,0.041657,1.939165,0.046065,0.053172,0.852452,0.85535,-0.043909,0.072582,0.234096,0
6.641274,0.045099,1.949753,0.062309,0.056085,0.85367,0.857776,-0.003591,0.080218,0.216076,0
6.683409,0.042135,1.95915,0.074431,0.045645,0.884132,0.888433,0.016873,0.083577,0.215465,0
6.728674,0.045265,1.968486,0.073946,0.046131,0.992334,0.996154,-0.030754,0.060689,0.024099,0
6.770575,0.041901,1.96877,0.091887,0.028892,0.986972,0.991661,0.066886,-0.145105,-0.094344,0
6.815761,0.045186,1.964974,0.157105,0.049772,1.01451,1.027808,-0.05376,-0.071801,-0.19758,0
6.857343,0.041583,1.956625,0.140619,0.032534,1.095905,1.105368,0.076965,-0.165264,-0.213157,0
6.903281,0.045938,1.948274,0.086068,0.073323,1.200451,1.205764,-0.192121,-0.238873,-0.30662,1
6.952194,0.048913,1.936334,0.080492,0.048316,1.116863,1.120801,-0.41356,0.072363,-0.37748,0
6.99035,0.038156,1.927948,0.069824,-0.069232,1.031812,1.036487,0.206774,0.088856,-0.164899,0
7.039545,0.049195,1.924438,-0.029373,0.047587,1.147325,1.148687,0.300236,-0.035455,-0.199108,0
7.084896,0.045351,1.918027,-0.010367,0.04176,1.07714,1.077999,-0.028104,0.117873,-0.230872,0
7.126434,0.041537,1.912993,-0.007899,-0.002895,0.94725,0.947287,0.103592,0.004537,-0.158796,0
7.165301,0.038867,1.910466,0.015032,-0.000724,0.923367,0.92349,0.269747,0.002399,-0.064112,0
7.206805,0.041504,1.911846,0.016729,0.003156,0.954073,0.954225,0.170019,0.10446,0.023752,0
7.248302,0.041497,1.916767,0.010183,0.007769,0.947006,0.947093,-0.059982,0.196472,0.039422,0
7.286242,0.03794,1.918185,-0.009133,-0.008925,0.819552,0.819652,-0.121374,0.268248,-0.097106,0
7.334713,0.048471,1.916024,-0.004196,-0.0591,0.817847,0.81999,0.268664,-0.100409,-0.150252,0
7.37316,0.038446,1.912416,0.09116,0.007041,0.93214,0.936614,0.140725,0.061038,-0.065144,0
7.42224,0.049081,1.914814,0.114677,0.029378,0.912401,0.920049,0.075512,0.063675,0.032265,0
7.465958,0.043718,1.921049,0.126799,0.012868,0.942863,0.951438,0.172272,-0.123014,0.076072,0
7.510916,0.044958,1.927165,0.179168,0.042246,0.98088,0.998004,0.113948,-0.050348,0.118208,0
7.552659,0.041742,1.936173,0.160742,0.046373,1.03888,1.052264,0.098066,-0.126095,0.168299,0
7.590676,0.038017,1.94438,0.120496,0.055599,1.095417,1.103426,-0.013618,-0.137016,-0.02583,0
7.639259,0.048583,1.94407,0.112495,0.029135,1.122955,1.128952,0.127282,-0.201423,-0.128078,0
7.677457,0.038198,1.94254,0.111283,0.054628,1.171694,1.178234,0.110508,0.111202,-0.037522,0
7.725972,0.048515,1.947814,0.039276,0.070167,1.21361,1.216271,0.160293,0.126168,0.245614,1
7.764291,0.038319,1.959445,-0.08343,0.084735,1.17803,1.184017,0.173427,-0.182319,0.139935,0
7.805769,0.041477,1.96423,-0.039,0.137421,0.993552,1.003768,-0.035565,-0.142177,0.059171,0
7.850859,0.04509,1.970455,0.032003,0.151017,0.890712,0.90399,-0.090358,-0.017116,0.267475,0
7.89235,0.041492,1.986638,0.055035,0.14349,0.843922,0.857801,-0.141976,0.138655,0.466617,0
7.937572,0.045222,2.009436,0.041943,0.090562,0.820771,0.826817,-0.18321,0.227535,0.548779,0
7.979071,0.041499,2.03115,0.032488,0.072109,0.848796,0.852473,-0.210393,0.338408,0.387205,0
8.017003,0.037931,2.040373,-0.000741,0.042003,0.86951,0.870525,-0.044696,0.158546,0.075593,0
8.065462,0.04846,2.04047,0.058187,0.016995,0.887057,0.889125,0.04478,0.088754,-0.030819,0
8.103335,0.037872,2.037008,0.097706,0.036662,0.9163,0.922224,-0.087041,0.222197,-0.227587,0
8.145419,0.042084,2.023345,0.093099,0.019666,0.927023,0.931894,-0.052833,0.052682,-0.338765,0
8.190548,0.045129,2.009722,0.140619,0.036904,0.944082,0.95521,-0.101702,0.010532,-0.40596,0
8.232105,0.041558,1.99113,0.165348,0.054628,0.973569,0.98902,-0.162178,-0.037726,-0.375417,0
8.277163,0.045058,1.979668,0.171894,0.060455,0.999157,1.015636,-0.090096,-0.104005,-0.302418,0
8.318609,0.041446,1.968076,0.125345,0.047102,1.112476,1.120506,-0.091012,-0.158067,-0.358007,0
8.363697,0.045088,1.95043,0.042186,0.09129,1.18656,1.190814,-0.29107,-0.155318,-0.60388,1
8.405125,0.041429,1.925918,0.046307,0.077936,1.115644,1.119321,-0.315505,-0.001685,-0.698259,0
8.444766,0.039641,1.903233,0.053823,0.021123,1.091031,1.092562,-0.047946,0.148893,-0.470712,0
8.487118,0.042352,1.891672,-0.004196,0.027678,1.112232,1.112585,0.151501,0.152558,-0.324104,0
8.53028,0.043162,1.878493,-0.061709,0.033748,1.049602,1.051956,-0.004575,0.138814,-0.452691,0
8.580574,0.050294,1.860397,-0.012342,-0.016886,0.869754,0.870005,0.23183,-0.021538,-0.355564,0
8.634288,0.053714,1.849847,0.006788,0.001214,0.892905,0.892932,0.159443,0.084752,-0.274013,0
8.685226,0.050937,1.845263,-0.008146,0.000971,0.936771,0.936807,0.073922,0.031302,-0.20468,0
8.728676,0.04345,1.844863,0.003152,-0.000724,0.928729,0.928734,0.020078,0.112394,-0.011422,0
8.772267,0.043591,1.849779,-0.022709,0.000486,0.949443,0.949715,0.057108,0.063758,-0.029383,0
8.815661,0.043395,1.853117,-0.033816,0.007769,0.987703,0.988313,0.06591,-0.024574,-0.221694,0
8.859927,0.044266,1.851507,0.029336,0.013596,0.969426,0.969965,0.06172,-0.019023,-0.095774,0
8.910442,0.050515,1.853201,0.056247,0.037876,0.97625,0.978602,-0.0147,0.001547,-0.079183,0
8.95361,0.043168,1.858057,0.12292,0.047345,0.963821,0.97278,-0.073927,0.052251,0.067043,0
8.997107,0.043497,1.866875,0.135042,0.049044,0.994527,1.004851,-0.181345,0.065086,0.084627,0
9.041203,0.044096,1.872633,0.117829,0.02258,1.002081,1.009238,0.079798,-0.209175,0.011222,0
9.085022,0.04382,1.875431,0.081704,0.079393,1.107115,1.112961,0.043452,-0.479788,-0.016572,0
9.139268,0.054245,1.876635,0.10207,0.125281,1.094199,1.106067,-0.126806,-0.10655,0.140293,0
9.189675,0.050407,1.887482,0.074431,0.121396,1.055938,1.065497,0.150832,0.108169,0.557514,0
9.232963,0.043288,1.91768,-0.061215,0.183794,1.119056,1.1357,-0.126501,0.223012,0.441144,0
9.287008,0.054046,1.932705,-0.110089,0.156601,0.873897,0.894617,-0.070912,-0.108383,0.232839,0
9.337474,0.050466,1.945892,0.037822,0.128437,0.833443,0.844129,0.053399,-0.153281,0.613408,0
9.39149,0.054016,1.987083,0.094311,0.14956,0.876821,0.894471,-0.116727,0.296316,1.287193,0
9.442184,0.050694,2.039369,-0.010367,0.116783,0.931166,0.938518,-0.060833,0.534859,1.317736,0
9.485636,0.043453,2.087277,-0.083924,0.126495,1.015972,1.027251,-0.181173,0.459111,0.970765,0
9.530224,0.044588,2.121965,-0.056279,0.093961,0.981124,0.987218,-0.151241,0.065714,0.604856,0
9.581399,0.051175,2.13724,0.041216,0.070167,0.936283,0.939813,-0.014102,-0.119989,0.549573,0
9.624757,0.043358,2.153546,0.098433,0.104886,0.945787,0.956663,-0.219658,0.073961,0.810107,0
9.668031,0.043273,2.187568,0.072734,0.085706,0.928241,0.935023,-0.265167,0.213543,0.877913,0
9.718884,0.050854,2.214673,0.017456,0.058513,0.949199,0.951161,-0.180563,0.086178,0.90418,0
9.765703,0.046819,2.246224,0.025942,0.048073,0.982829,0.984346,-0.2951,0.218125,0.686407,0
9.815714,0.050011,2.261755,0.018911,-0.017851,0.99209,0.992431,-0.111535,-0.10991,0.403576,0
9.862139,0.046424,2.266832,0.048489,0.010683,1.114182,1.115288,-0.148798,-0.162444,0.356845,0
9.905298,0.043159,2.270422,0.048974,0.053657,1.190703,1.192917,-0.423382,0.010125,0.414266,1
9.94892,0.043622,2.281224,0.016486,0.013839,1.186804,1.186999,-0.249896,0.005849,0.754824,0
9.992302,0.043382,2.302792,-0.105892,0.019181,1.226526,1.231238,-0.080381,-0.400987,0.717866,0
10.03551,0.043208,2.319173,-0.072323,0.063126,1.115157,1.119281,-0.252339,-0.367084,0.736803,0
10.07876,0.043251,2.343241,-0.030361,0.062883,0.984292,0.986765,-0.343969,-0.337457,0.870277,0
10.129058,0.050298,2.374983,-0.086146,0.026707,0.821989,0.826923,-0.066331,-0.323713,1.117983,0
10.180071,0.051013,2.407317,-0.159949,0.01481,0.943594,0.957169,0.062256,-0.398544,1.237407,0
10.223395,0.043324,2.442427,-0.181918,0.061427,0.968451,0.987302,0.058897,-0.394878,1.593847,0
10.270229,0.046834,2.512666,-0.1365,0.030349,0.960653,0.970777,0.07203,-0.315771,1.859574,0
10.320736,0.050507,2.566411,-0.128355,-0.020263,0.96967,0.978338,0.228717,-0.247354,1.975332,0
10.364178,0.043442,2.626431,-0.093798,-0.045592,0.999644,1.00507,0.426027,-0.575389,2.117664,0
10.407472,0.043294,2.710436,0.042913,-0.028706,0.978199,0.979561,0.248876,-0.038744,2.528471,0
10.458542,0.051069,2.787372,-0.010367,-0.048728,1.011098,1.012325,0.121205,-0.012782,2.532747,0
10.501826,0.043284,2.85954,-0.046405,-0.074539,0.994527,0.998395,0.236964,-0.184435,2.47105,0
10.547423,0.045597,2.936883,0.005819,-0.074539,0.994771,0.997576,0.223525,-0.095554,2.521141,0
10.59123,0.043807,3.005366,-0.053317,-0.072127,0.972107,0.976236,0.221692,-0.050656,2.32994,0
10.634636,0.043406,3.063269,-0.012095,-0.080569,0.931409,0.934966,0.285833,0.007376,2.218457,0
10.679134,0.044498,3.127268,-0.042703,-0.102521,0.99014,0.996349,0.492916,-0.358532,1.881565,0
10.723708,0.044574,-3.120251,0.031033,-0.079122,1.032544,1.036035,0.403425,-0.287672,1.743509,0
10.767102,0.043394,-3.086792,0.067885,-0.04728,1.048628,1.051886,0.080277,-0.169775,1.543451,0
10.810483,0.043381,-3.065688,0.028851,-0.064166,1.008661,1.011112,0.125175,-0.454743,1.344614,0
10.853759,0.043276,-3.047674,0.07831,-0.02943,1.005006,1.008482,0.21314,-0.064706,1.59904,0
10.897023,0.043264,-3.011882,-0.008146,0.002428,1.120031,1.120063,0.089745,0.185749,1.825976,0
10.940709,0.043685,-2.980957,-0.158468,0.044674,0.992577,1.00614,-0.022348,0.102977,1.464038,0
10.984142,0.043434,-2.962646,-0.105646,-0.008925,0.849527,0.856117,0.127924,0.018983,1.236796,0
11.027349,0.043206,-2.952959,-0.02888,0.03302,0.884132,0.88522,0.159689,-0.038744,1.202893,0
11.070784,0.043435,-2.937043,0.039276,0.052686,0.940182,0.942476,0.276365,-0.188406,1.58163,0
11.114141,0.043358,-2.891197,0.053096,0.12868,1.004762,1.014359,0.168547,0.015929,2.150651,0
11.164756,0.050615,-2.836573,-0.013329,0.143976,1.035955,1.045997,-0.022348,0.295399,2.190357,0
11.209163,0.044407,-2.788977,-0.080962,0.085706,0.937014,0.944403,0.116929,0.010431,1.87851,0
11.252388,0.043225,-2.754959,-0.021475,0.112656,1.014997,1.021456,0.045763,-0.120294,1.771609,0
11.295648,0.04326,-2.726347,0.062793,0.101487,0.964552,0.971907,-0.176592,0.20438,1.624696,0
11.338974,0.043326,-2.703142,0.032488,0.020152,0.934334,0.935115,0.109904,-0.042409,1.51138,0
11.382349,0.043374,-2.686192,0.040973,0.061427,1.013048,1.015735,-0.027235,0.07671,1.220608,0
11.42592,0.043571,-2.680611,0.017214,0.038604,0.982586,0.983494,-0.051059,-0.000565,1.005584,0
11.469768,0.043849,-2.683007,0.081219,0.022337,0.931897,0.935696,-0.017156,-0.035079,0.809496,0
11.513037,0.043269,-2.692078,0.094796,0.046131,0.938964,0.944864,-0.140245,-0.072647,0.735582,0
11.557059,0.044022,-2.704813,0.118798,0.027921,0.906796,0.914971,-0.103899,-0.073258,0.579811,0
11.60061,0.043551,-2.718111,0.186198,-0.043421,0.916056,0.935796,-0.336333,0.532721,0.807053,0
11.643882,0.043272,-2.728681,0.003879,-0.108552,1.073241,1.078724,-0.235235,0.6384,0.157703,0
11.688066,0.044184,-2.776156,-0.163899,-0.119166,1.213123,1.229931,0.149305,-0.547289,-0.677044,1
11.738538,0.050472,-2.850526,-0.037025,-0.024123,1.129048,1.129912,0.401592,-0.943741,-0.682848,0
11.792574,0.054036,-2.905533,0.098675,0.026464,1.021577,1.026673,0.564998,-0.43489,0.129603,0
11.843042,0.050468,-2.92362,0.003394,0.0539,1.039854,1.041256,0.312711,0.066325,0.231618,0
11.897247,0.054205,-2.939241,-0.058994,0.046131,0.915569,0.918627,0.372881,0.098701,0.375782,0
11.947954,0.050707,-2.945703,0.03467,0.014325,0.896317,0.897102,0.300188,0.418489,0.502536,0
11.991185,0.043231,-2.949572,-0.007652,-0.031601,0.917031,0.917608,0.111431,0.19369,0.166866,0
12.034603,0.043418,-2.962273,0.037822,-0.04728,0.916788,0.918785,0.007939,0.051277,0.099977,0
12.077974,0.04337,-2.976352,0.10207,-0.040767,0.866586,0.873528,-0.121616,0.102409,0.162046,0
12.131842,0.053869,-2.980219,0.140376,-0.094802,0.84246,0.859321,0.123646,0.147613,0.408835,0
12.182403,0.050561,-2.976291,0.084371,-0.039561,0.99014,0.994516,0.175264,0.168077,0.389899,0
12.233337,0.050934,-2.979275,0.071522,0.011897,1.015728,1.018313,-0.118256,0.227942,0.204806,0
12.276597,0.04326,-2.991811,0.090432,-0.003618,0.885351,0.889965,0.043408,-0.063133,-0.032435,0
12.323521,0.046924,-3.014397,0.141831,0.009226,0.884376,0.895724,0.012865,-0.172783,-0.202561,0
12.374143,0.050622,-3.037838,0.172137,-0.014715,0.940913,0.956643,0.131372,-0.283655,-0.137504,0
12.417085,0.042943,-3.057562,0.112252,0.015539,1.135871,1.14151,0.026915,-0.307785,-0.170491,0
12.467995,0.05091,-3.078095,0.051156,0.025736,1.243098,1.244416,-0.092456,0.065855,-0.138797,1
12.514702,0.046707,-3.089393,-0.024684,0.05997,1.2894,1.29103,-0.106506,0.331887,0.223752,0
12.565088,0.050387,-3.091057,-0.14119,0.040789,1.147812,1.157182,0.124095,-0.287225,0.058513,0
12.61855,0.053462,-3.100591,-0.056032,0.08692,0.933603,0.939313,0.330568,-0.52363,0.144645,0
12.661675,0.043125,-3.096555,0.040488,0.162914,0.881208,0.897055,0.358973,-0.270121,0.599434,0
12.712832,0.051157,-3.073757,0.067885,0.225312,0.957485,0.985977,-0.20119,0.265608,0.733519,0
12.759211,0.046379,-3.052156,0.016971,0.13038,0.840267,0.850491,-0.347187,0.187112,0.553313,0
12.80212,0.042909,-3.040569,0.038064,0.060213,0.776418,0.779679,-0.07352,-0.014779,0.382577,0
12.845508,0.043388,-3.035027,0.081704,0.055114,0.787872,0.794012,0.047126,-0.132981,0.234442,0
12.895939,0.050431,-3.037714,0.126799,0.084492,0.829544,0.843422,-0.104965,-0.040511,0.128581,0
12.939717,0.043777,-3.042414,0.163651,0.071867,0.840998,0.859781,-0.272037,0.085328,0.126443,0
12.983071,0.043354,-3.049587,0.152498,0.059727,0.893393,0.908281,-0.401846,0.239266,-0.082167,0
13.026414,0.043343,-3.065535,0.107161,0.015053,1.005981,1.011784,-0.095191,-0.200557,-0.302384,0
13.080389,0.053975,-3.093273,0.125345,0.038604,1.180468,1.187731,0.016292,-0.275999,-0.34209,1
13.13084,0.050451,-3.119998,0.136255,0.088376,1.206543,1.217424,-0.300442,0.011107,-0.456933,0
13.174593,0.043753,3.13484,0.145952,0.00437,1.149518,1.158755,-0.271731,0.106097,-0.236716,0
13.218086,0.043493,3.120094,0.084129,-0.042938,1.131972,1.135906,-0.037464,0.207195,0.019236,0
13.261416,0.04333,3.104783,-0.128108,0.02258,1.122224,1.129738,-0.015168,-0.016992,-0.57147,0
13.305108,0.043692,3.070034,-0.026411,0.016267,0.93604,0.936553,0.156791,-0.051812,-0.487476,0
13.348522,0.043414,3.044928,0.049701,0.023794,0.907283,0.908955,0.270412,0.071583,-0.304217,0
13.392022,0.0435,3.029396,0.047035,0.058027,0.979661,0.982505,0.108227,0.379765,-0.153639,0
13.436115,0.044093,3.018918,0.021335,0.061669,1.0033,1.00542,-0.095497,0.221551,-0.124317,0
13.479759,0.043644,3.008136,0.045095,0.034477,0.92483,0.92657,-0.256765,0.219107,-0.221139,0
13.52282,0.043061,2.995767,0.092614,-0.008443,0.761065,0.766726,-0.063121,0.215747,-0.174713,0
13.565744,0.042923,2.981323,0.077825,-0.00796,0.746687,0.750774,0.325084,-0.281497,-0.182044,0
13.621969,0.056226,2.970554,0.150801,0.016995,0.831981,0.845708,0.369983,-0.28333,-0.099577,0
13.662151,0.040182,2.963643,0.166075,0.044431,0.988922,1.003754,0.201078,-0.184675,-0.005198,0
13.707117,0.044966,2.962492,0.131891,0.051958,1.11077,1.119779,0.084098,-0.232628,0.11331,0
13.750785,0.043667,2.964774,0.092372,0.080607,1.149518,1.156037,-0.389017,0.019965,0.023207,0
13.794705,0.043921,2.961904,0.023517,-0.006996,1.116619,1.116889,-0.293417,-0.10007,-0.123401,0
13.838279,0.043573,2.956618,0.055763,-0.020263,1.165846,1.167354,0.058441,0.191924,0.101703,0
13.881781,0.043503,2.963094,-0.002468,0.001457,1.24919,1.249193,0.461002,0.126256,0.38881,1
13.933011,0.051229,2.975132,-0.139956,0.085706,1.238711,1.249535,0.31134,-0.10007,0.051612,0
13.976564,0.043553,2.965611,-0.089108,0.121882,0.945787,0.957763,0.00774,-0.080828,-0.32743,0
14.020031,0.043467,2.956938,0.059399,0.097845,0.828569,0.836438,0.407856,-0.354801,0.171953,0
14.070564,0.050533,2.968585,0.12195,0.153202,0.927754,0.948193,-0.010586,-0.074414,0.416604,0
14.114482,0.043918,2.987024,0.059157,0.120911,0.893636,0.903717,-0.251267,0.00561,0.336275,0
14.158161,0.043679,3.002543,0.06546,0.039575,0.806637,0.810255,0.054776,-0.078079,0.233345,0
14.201528,0.043367,3.013926,0.060127,0.081578,0.847334,0.853373,0.125331,-0.23385,0.162484,0
14.245142,0.043615,3.019867,0.124617,0.104644,0.854401,0.869759,-0.207525,0.038315,0.019488,0
14.288714,0.043572,3.021173,0.153953,0.062883,0.782267,0.799748,-0.15659,-0.082749,-0.084143,0
14.332199,0.043484,3.015826,0.180137,0.039332,0.751074,0.773375,0.099057,-0.317321,-0.290615,0
14.375982,0.043783,3.002835,0.289238,0.067982,0.930435,0.976723,0.045606,-0.054649,-0.190128,0
14.419637,0.043655,2.997598,0.273479,0.067982,1.076409,1.112685,-0.130628,0.225432,-0.238997,0
14.470824,0.051188,2.987141,0.141588,0.117997,1.256501,1.269947,-0.288843,0.177479,-0.446997,1
14.514373,0.043548,2.97106,0.185714,0.089105,1.20898,1.226402,-0.46691,0.423047,-0.398433,0
14.557818,0.043445,2.959583,0.121708,0.015053,1.122711,1.129389,-0.114135,0.355241,-0.151949,0
14.601372,0.043554,2.954672,-0.002962,0.011897,1.096392,1.096461,0.188854,0.036064,-0.213341,0
14.646101,0.044728,2.943032,0.000242,0.026464,1.033518,1.033857,0.16503,0.028123,-0.184324,0
14.697237,0.051137,2.940009,0.058672,0.003399,0.970645,0.972422,0.224284,0.16404,0.053608,0
14.740148,0.042911,2.943204,0.010425,0.023065,0.986972,0.987297,0.044995,0.184199,-0.184019,0
14.793631,0.053483,2.939292,0.026911,0.009954,0.9163,0.916749,0.039803,0.081268,-0.215784,0
14.837266,0.043635,2.934588,0.040488,0.000243,0.894855,0.89577,0.119826,-0.291665,-0.2729,0
14.887927,0.050661,2.929432,0.110798,0.027678,0.858544,0.866106,-0.006928,-0.145363,-0.153781,0
14.942464,0.054537,2.935458,0.159772,0.050015,0.88267,0.898407,-0.298972,-0.009133,0.034255,0
14.98612,0.043656,2.949887,0.163166,0.002185,0.879502,0.894512,-0.280952,0.034544,0.088316,0
15.029576,0.043456,2.961491,0.092614,0.002914,1.010123,1.014364,-0.001786,-0.257449,-0.007284,0
15.073382,0.043806,2.971628,0.07928,0.04346,1.106384,1.110072,-0.095249,-0.30754,0.007377,0
15.117197,0.043815,2.982832,0.105706,0.040789,1.111014,1.116776,0.002853,0.08676,0.128397,0
15.160826,0.043628,3.000277,0.039034,0.074537,1.225795,1.228679,-0.105881,0.386084,0.175433,1
15.211752,0.050926,3.025452,-0.00938,0.036904,1.126611,1.127254,0.364791,0.127993,0.365718,0
15.262332,0.05058,3.046896,-0.0975,0.177724,1.179249,1.196545,0.278965,-0.153921,0.019357,0
15.313057,0.050726,3.057441,-0.041222,0.184037,1.02572,1.042914,0.124416,-0.217146,0.055398,0
15.356928,0.043871,3.074708,0.062551,0.179667,0.866586,0.887223,0.041949,-0.094362,0.357471,0
15.401036,0.044107,3.103962,0.113465,0.161457,0.79299,0.817175,-0.185293,0.174724,0.43047,0
15.445003,0.043967,3.137233,0.106434,0.010197,0.756191,0.763713,0.011711,-0.039995,0.450323,0
15.499332,0.05433,-3.115312,0.146922,0.04176,0.869998,0.883304,0.041643,-0.015255,0.312267,0
15.543094,0.043761,-3.093208,0.16947,0.051229,0.890225,0.907659,-0.065563,0.031477,0.368467,0
15.58662,0.043527,-3.069565,0.173834,0.041518,0.923855,0.940983,-0.20759,0.099588,0.212696,0
15.630077,0.043457,-3.056161,0.162439,0.038118,0.926535,0.941439,-0.216447,-0.121851,0.056925,0
15.674108,0.044031,-3.049366,0.22305,0.042731,0.940426,0.96746,-0.194761,-0.172247,0.032796,0
15.724972,0.050864,-3.042434,0.233475,0.055842,1.024745,1.052488,-0.303495,-0.362532,0.038294,0
15.775534,0.050562,-3.042018,0.190805,0.06434,1.117837,1.135829,-0.458655,-0.391242,-0.190475,0
15.829739,0.054205,-3.051732,0.187653,0.073323,1.123686,1.141604,-0.625727,-0.065346,-0.220713,0
15.873464,0.043725,-3.063812,0.167045,-0.029912,1.106627,1.119564,-0.314491,0.021397,-0.199638,0
15.917574,0.04411,-3.082329,0.029336,-0.038837,1.195577,1.196567,0.326307,-0.490202,-0.440624,1
15.968613,0.051039,-3.116418,0.045337,0.017967,1.005006,1.006188,0.183975,-0.267847,-0.314786,0
16.019432,0.050819,-3.135652,0.038064,0.00607,0.918006,0.918815,-0.046295,0.055988,-0.133772,0
16.062986,0.043554,3.13185,-0.021722,-0.002653,0.860494,0.860772,0.070381,0.203512,-0.128579,0
16.106515,0.043529,3.120672,0.028124,-0.020022,0.883645,0.884319,0.376119,0.181215,0.210145,0
16.150339,0.043824,3.122435,0.063521,0.022094,0.963821,0.966165,0.140325,0.47382,0.268788,0
16.194212,0.043873,3.129342,0.08922,0.007769,0.956266,0.960451,0.06641,0.536433,0.445329,0
16.237678,0.043466,3.138713,0.071522,-0.002171,0.94067,0.943387,0.252418,0.19893,0.19243,0
16.280766,0.043087,3.137021,0.106919,0.025493,0.918493,0.925047,0.280518,-0.062215,0.092554,0
16.324233,0.043467,3.134444,0.194199,0.030835,0.848552,0.871037,0.300371,0.011395,0.264818,0
16.367827,0.043594,3.140111,0.204867,0.063612,0.896317,0.92163,0.169952,-0.0558,0.44655,0
16.41167,0.043844,-3.131188,0.209231,0.063126,0.916788,0.942476,0.035256,0.149145,0.452048,0
16.455995,0.044325,-3.11393,0.174804,0.044188,1.051552,1.066898,0.151931,0.071259,0.580635,0
16.499681,0.043686,-3.09709,0.134073,0.051472,1.102241,1.111557,0.082598,-0.009375,0.366221,0
16.543267,0.043586,-3.09348,0.101342,0.071381,1.155123,1.161755,0.019984,-0.100699,0.221446,0
16.586979,0.043712,-3.090194,0.117101,0.083763,1.134896,1.143992,0.159261,-0.073516,0.387296,0
16.630748,0.043769,-3.074053,0.131891,0.122853,1.092737,1.107502,0.040754,0.190378,0.67593,0
16.675339,0.044591,-3.05573,0.037579,0.104644,1.015241,1.021311,0.232871,-0.023119,0.711055,0
16.715827,0.040488,-3.032057,0.062793,0.116298,0.962846,0.971875,0.3245,-0.054273,0.876599,0
16.759157,0.04333,-3.004895,0.039519,0.199333,0.968208,0.989303,0.017846,0.148839,0.861328,0
16.802658,0.043501,-2.974662,0.08025,0.14956,0.903628,0.91943,0.159261,0.194654,1.288933,0
16.846501,0.043843,-2.928226,0.071037,0.168012,0.99014,1.006803,0.161705,0.41029,1.492962,0
16.890632,0.044132,-2.875514,0.033215,0.159515,0.926535,0.940753,0.045946,0.402043,1.254725,0
16.935049,0.044416,-2.840556,0.064733,0.10343,0.879502,0.887926,0.23623,0.099359,1.244646,0
16.97879,0.043741,-2.809915,0.1348,0.127223,0.90509,0.923875,0.022428,0.369056,1.106896,0
17.022594,0.043805,-2.790597,0.134557,0.087405,0.893149,0.907447,-0.085085,0.476569,0.896147,0
17.073571,0.050977,-2.773326,0.102555,0.015782,0.918006,0.923851,0.108254,0.076452,0.629199,0
17.124826,0.051255,-2.777107,0.127284,0.02865,0.969426,0.978166,-0.023998,0.045909,0.515883,0
17.166497,0.041671,-2.785914,0.162196,0.029135,0.996476,1.010011,-0.202982,0.083477,0.473734,0
17.210262,0.043765,-2.799736,0.12486,0.007769,1.015485,1.023161,-0.087528,-0.1682,0.349117,0
17.253646,0.043384,-2.818421,0.140619,0.02088,1.05472,1.064257,-0.044462,-0.19691,0.267261,0
17.296837,0.043192,-2.84394,0.096251,0.088134,1.109064,1.116716,-0.190154,0.026972,0.103855,0
17.34051,0.043672,-2.871541,0.053338,0.079393,1.093468,1.097643,-0.097302,-0.035642,0.166163,0
17.384433,0.043924,-2.900649,0.018183,0.042246,1.085669,1.086643,0.321708,-0.019065,0.202899,0
17.428369,0.043935,-2.927936,-0.089108,0.093232,1.194358,1.201301,0.71144,-0.485766,0.266735,1
17.465908,0.037539,-2.957985,-0.060968,0.137663,1.111745,1.121894,0.06435,-0.067393,0.049039,0
17.509717,0.04381,-2.98455,0.02182,0.126495,0.894611,0.903773,-0.395632,0.381898,0.249709,0
17.553095,0.043378,-3.001313,-0.04838,0.037147,0.819309,0.821576,-0.014147,0.198333,0.312322,0
17.596357,0.043262,-3.015377,-0.075779,0.030349,0.927267,0.930853,0.492566,0.048366,0.488251,0
17.640016,0.043659,-3.017227,-0.075779,0.132322,1.090787,1.101394,0.215844,0.296988,0.71305,0
17.68484,0.044824,-3.014132,-0.079481,0.126981,1.073485,1.083887,-0.204431,0.539502,0.711217,0
17.725111,0.040271,-3.008479,-0.169082,0.087891,0.999157,1.017167,0.031668,0.062416,0.683117,0
17.768363,0.043252,-3.006305,-0.102437,0.093232,0.963821,0.973723,0.177665,-0.109543,0.755505,0
17.811573,0.043211,-3.004764,-0.064671,0.112899,0.98088,0.989471,-0.026364,0.077688,0.793073,0
17.855325,0.043752,-3.002786,-0.05307,0.038118,0.961628,0.963845,0.099169,0.102428,0.881954,0
17.899366,0.044041,-3.003424,-0.061709,0.011897,0.998913,1.000888,0.151703,0.148853,0.743593,0
17.94352,0.044154,-3.011034,-0.0585,0.005341,1.074703,1.076307,0.028614,0.276524,0.504439,0
17.994525,0.051005,-3.034802,-0.055538,-0.000482,1.047165,1.048637,0.19874,-0.11107,0.319653,0
18.038296,0.043772,-3.064589,0.024245,0.037633,1.008905,1.009898,0.111081,-0.170935,0.339506,0
18.082051,0.043755,-3.092626,0.082917,0.061184,0.958703,0.964225,-0.060878,-0.176127,0.374936,0
18.126077,0.044026,-3.126,0.016244,0.062883,0.908502,0.91082,0.192366,-0.162672,0.125764,0
18.177118,0.05104,3.114036,0.023275,0.101487,0.982342,0.987845,0.023067,0.040062,-0.06794,0
18.220953,0.043835,3.067958,0.021335,0.105615,0.982829,0.988718,-0.167523,0.222405,0.040794,0
18.264639,0.043687,3.026068,0.016486,0.075508,0.98746,0.99048,-0.007199,0.050003,-0.045374,0
18.308258,0.043619,2.984371,0.069824,0.089105,0.969182,0.975771,0.070873,-0.137871,0.035447,0
18.351996,0.043737,2.951233,0.13577,0.093718,0.952855,0.967031,0.116377,0.055832,0.272183,0
18.403293,0.051297,2.92537,0.025214,0.076722,1.00793,1.01116,0.067508,0.053694,0.261187,0
18.447429,0.044137,2.898023,-0.014563,0.095903,1.024258,1.028841,-0.031469,-0.034319,0.094047,0
18.491231,0.043802,2.866426,0.051156,0.102944,0.97893,0.985657,-0.081968,0.010355,0.016648,0
18.542001,0.050769,2.835088,0.12486,0.08692,0.925561,0.937981,0.096623,0.047443,0.166872,0
18.596269,0.054268,2.807783,0.08922,0.09299,1.058375,1.066192,0.200165,0.012013,0.211771,0
18.639824,0.043556,2.782626,0.059884,0.107314,1.02767,1.034991,0.034039,0.047547,0.121726,0
18.689173,0.049348,2.754881,0.006304,0.076965,1.010855,1.0138,-0.081474,-0.00511,-0.029482,0
18.733776,0.044603,2.722526,0.061581,0.069681,0.96504,0.96951,-0.147744,0.039495,-0.031363,0
18.777097,0.043321,2.68874,0.05649,0.094204,0.960653,0.966912,0.140504,0.116183,-0.052835,0
18.831047,0.05395,2.656056,0.047035,0.122125,1.115157,1.12281,-0.192112,0.14917,-0.132553,0
18.881643,0.050595,2.624496,0.054308,0.085706,1.010855,1.015934,-0.1048,-0.031415,-0.108404,0
18.92627,0.044627,2.59573,0.076613,0.080607,0.932872,0.939477,0.166239,-0.04786,-0.020172,0
18.976756,0.050487,2.574232,0.064248,0.072109,0.939451,0.944403,0.317428,-0.070768,0.0626,0
19.019971,0.043215,2.557229,0.029578,0.107557,1.039611,1.045578,-0.016726,0.078816,0.01883,0
19.06358,0.043609,2.542723,0.060369,0.134993,1.065199,1.075415,-0.174874,0.201666,0.00586,0
19.107193,0.043614,2.527501,0.011395,0.050501,0.87146,0.872996,0.268919,-0.131255,-0.054311,0
19.15106,0.043867,2.512724,0.056975,0.125524,1.014023,1.023349,0.125662,0.140319,-0.018263,0
19.205471,0.054411,2.497852,0.018911,0.100273,0.936771,0.942312,0.207225,0.058233,-0.078716,0
19.249056,0.043585,2.479586,-0.00938,0.090319,0.949199,0.953533,0.662014,-0.460392,-0.205776,0
