timestamp,dt,heading_rad,accel_x,accel_y,accel_z,accel_norm,gyro_x_rads,gyro_y_rads,gyro_z_rads,step_event
0.01378,0.01378,1.895624,0.035155,0.105372,0.972838,0.979159,-0.01633,0.013003,0.0084,0
0.168722,0.154942,1.895654,0.05746,0.116055,0.990384,0.998815,-0.026596,-0.023325,0.021456,0
0.211162,0.04244,1.893627,0.049944,0.11387,0.970888,0.978818,-0.031979,0.00193,0.023316,0
0.252953,0.041791,1.890949,0.057945,0.112413,0.970401,0.978607,-0.012997,0.032352,0.030173,0
0.291261,0.038308,1.887936,0.056005,0.110228,0.974544,0.982355,-0.013675,0.049155,0.01776,0
0.339854,0.048593,1.88559,0.047035,0.101487,0.973813,0.980216,-0.002569,0.047499,0.002809,0
0.378074,0.03822,1.882574,0.059884,0.109257,0.982586,0.990453,-0.01149,0.040826,-0.00806,0
0.427972,0.049898,1.881612,0.04558,0.109985,0.980149,0.987353,-0.079308,0.048938,0.062899,0
0.470761,0.04279,1.88227,0.050671,0.103187,0.98088,0.987593,-0.027181,0.016745,0.052369,0
0.514779,0.044017,1.881179,0.04558,0.111199,0.979905,0.987247,-0.04517,0.038361,0.006735,0
0.559675,0.044896,1.877883,0.044125,0.115812,0.965771,0.97369,0.002589,0.028431,-0.080809,0
0.605552,0.045877,1.872088,0.051641,0.111927,0.991359,0.998993,0.012612,-0.0211,-0.064945,0
0.657014,0.051461,1.869115,0.053823,0.109985,0.99014,0.997683,-0.01376,-0.054301,-0.030875,0
0.700484,0.04347,1.866389,0.049459,0.109985,0.986241,0.993587,-0.019101,-0.06821,0.006364,0
0.743891,0.043407,1.864907,0.053581,0.101245,0.966989,0.97375,-0.031955,-0.024677,0.005142,0
0.787337,0.043446,1.863535,0.055035,0.097117,0.973813,0.98019,0.00029,-0.009717,-0.00858,0
0.831542,0.044205,1.861975,0.049217,0.103672,0.988434,0.995074,0.001198,-0.004995,-0.01433,0
0.876088,0.044545,1.859976,0.050671,0.101973,0.977955,0.984562,0.006216,0.000292,-0.015702,0
0.915924,0.039837,1.857964,0.052853,0.105372,0.984292,0.991326,0.006949,-0.027855,-0.017297,0
0.959332,0.043408,1.85584,0.055278,0.102458,0.968208,0.975182,0.004933,0.012663,-0.013931,0
1.01054,0.051208,1.855197,0.054793,0.106829,0.983804,0.991103,0.00686,0.004943,0.009946,0
1.054679,0.044139,1.855222,0.058429,0.104644,0.981367,0.988659,0.000544,-0.000152,0.018576,0
1.098567,0.043888,1.855567,0.045095,0.10173,0.971376,0.977729,-0.011599,0.028516,0.01684,0
1.15327,0.054703,1.856103,0.05746,0.10343,0.992577,0.999604,-0.000143,0.005191,0.009262,0
1.197153,0.043883,1.855532,0.045822,0.098817,0.982098,0.98812,-0.008968,0.007571,-0.011207,0
1.247931,0.050778,1.855029,0.059884,0.100759,0.982829,0.989794,0.005118,-0.024154,-0.001357,0
1.298031,0.0501,1.85493,0.053823,0.102944,0.978443,0.985315,0.012265,-0.015429,-0.004292,0
1.341631,0.0436,1.854348,0.055278,0.100273,0.976493,0.983183,0.006913,0.023627,0.004619,0
1.385132,0.043501,1.854316,0.05746,0.102216,0.986241,0.993187,-0.002958,0.001291,0.008088,0
1.428936,0.043803,1.853236,0.051883,0.103915,0.984048,0.990879,0.004135,-0.035312,0.006306,0
1.483115,0.05418,1.853206,0.053096,0.101487,0.9743,0.981009,-0.004903,0.001221,0.010262,0
1.527097,0.043982,1.854031,0.05746,0.098088,0.969913,0.976553,-0.0037,0.022605,0.010008,0
1.578686,0.051588,1.854501,0.05746,0.092747,0.988434,0.994438,0.00408,0.000544,-0.000787,0
1.628979,0.050293,1.854157,0.061096,0.103672,0.982098,0.989443,0.015273,-0.015899,0.013761,0
1.682941,0.053962,1.854468,0.058429,0.104158,0.975762,0.983044,-0.010888,0.010489,0.013394,0
1.733659,0.050718,1.854804,0.055278,0.096146,0.986241,0.992457,-0.006134,-0.001096,-0.002575,0
1.788162,0.054502,1.854122,0.051156,0.092504,0.979418,0.985106,0.015225,0.001576,-0.023947,0
1.832041,0.043879,1.853707,0.052853,0.100759,0.977712,0.98431,-0.000379,0.021136,-0.00712,0
1.883714,0.051674,1.854287,0.057217,0.104158,0.98746,0.994585,0.003012,0.002487,0.011765,0
1.926974,0.04326,1.8548,0.05455,0.10173,0.979418,0.986197,-0.00554,0.006367,0.016582,0
1.977219,0.050245,1.855328,0.05649,0.101487,0.979661,0.986523,-0.008539,-0.013733,-0.020064,0
2.033087,0.055868,1.853765,0.061339,0.093232,0.977468,0.983818,0.016373,0.001851,-0.006823,0
2.084005,0.050918,1.853446,0.05552,0.096874,0.98088,0.987214,0.001509,0.00178,0.006487,0
2.127067,0.043061,1.85334,0.053096,0.09129,0.983804,0.989456,0.027417,0.021582,0.000541,0
2.177076,0.050009,1.853505,0.063521,0.096874,0.984292,0.991085,-0.000732,0.01253,0.001294,0
2.220414,0.043338,1.853121,0.061096,0.098574,0.983561,0.990374,-0.014473,-0.016702,-0.015016,0
2.264022,0.043607,1.852806,0.05746,0.099302,0.986729,0.993376,-0.011055,-0.024687,0.004837,0
2.309053,0.045031,1.852959,0.05455,0.098331,0.97625,0.982704,-0.004911,-0.0103,-0.003886,0
2.352842,0.043789,1.852998,0.059884,0.093718,0.978199,0.984501,-0.008721,0.002528,0.000671,0
2.404004,0.051162,1.852848,0.056005,0.093718,0.977468,0.983546,-0.010686,0.015185,-0.016509,0
2.447992,0.043988,1.851656,0.050186,0.097845,0.983561,0.989689,-0.008014,0.014747,-0.065703,0
2.492091,0.044099,1.849092,0.055278,0.098574,0.979905,0.986401,0.015065,-0.00792,-0.03446,0
2.543311,0.05122,1.848288,0.054308,0.099059,0.970157,0.976712,0.004448,0.040544,-0.019088,0
2.587211,0.0439,1.848255,0.056247,0.101487,0.98746,0.994254,0.024457,0.020077,-0.000191,0
2.630781,0.043571,1.848644,0.046792,0.10343,0.977224,0.983796,0.005923,0.041463,-0.010326,0
2.674342,0.043561,1.849346,0.050914,0.097603,0.984292,0.990428,0.015854,0.0172,0.003197,0
2.718018,0.043676,1.849918,0.053338,0.102944,0.979174,0.986014,0.008321,0.016903,-0.001996,0
2.761672,0.043654,1.850263,0.052611,0.097845,0.986972,0.993205,-0.007735,0.006011,0.004053,0
2.812864,0.051193,1.850956,0.051399,0.098331,0.982098,0.988346,-0.017636,0.012039,-0.021791,0
2.855884,0.043019,1.850783,0.047035,0.099545,0.985266,0.991399,-0.037798,0.001803,-0.010827,0
2.909934,0.05405,1.850867,0.057217,0.091533,0.982829,0.988739,0.002867,-0.006029,-0.014524,0
2.960101,0.050167,1.850948,0.053096,0.09566,0.977468,0.983572,0.014075,0.018402,-0.030389,0
3.003779,0.043679,1.850644,0.049944,0.090319,0.971619,0.977085,0.022574,0.043069,-0.051042,0
3.047919,0.04414,1.849715,0.055035,0.100031,0.98746,0.994038,0.009499,0.015199,-0.036299,0
3.091611,0.043692,1.849742,0.04655,0.100516,0.986241,0.992442,0.04874,-0.016274,-0.015386,0
3.135225,0.043614,1.85033,0.049217,0.100516,0.978199,0.984581,0.037636,-0.001624,-0.049591,0
3.178781,0.043556,1.849397,0.036852,0.09736,0.979661,0.985177,0.012457,0.008145,-0.091419,0
3.222318,0.043537,1.848048,0.05552,0.110713,0.989409,0.997131,0.029242,-0.032387,-0.04726,0
3.265821,0.043503,1.848188,0.047277,0.102458,0.970888,0.977424,-0.005349,0.039794,0.020909,0
3.314804,0.048984,1.852981,0.06837,0.125281,0.989165,0.999409,-0.088739,0.034452,0.096852,0
3.362509,0.047704,1.858875,0.049701,0.108528,0.984779,0.991987,-0.007827,0.011918,0.105604,0
3.406478,0.04397,1.863597,0.033942,0.102458,0.975031,0.980987,-0.016815,0.048186,0.03612,0
3.450852,0.044374,1.866866,0.02182,0.096631,1.001594,1.006481,0.008798,-0.021156,0.148261,0
3.504762,0.05391,1.867329,0.591083,1.063674,1.037174,1.59891,1.146534,0.008166,-0.024003,1
3.544201,0.039439,1.875232,-0.016538,0.022823,0.764721,0.76524,-0.033352,0.111707,0.118023,0
3.592485,0.048284,1.884074,0.014304,0.011654,0.98088,0.981053,0.016845,0.039668,0.074193,0
3.64138,0.048895,1.899929,0.156135,0.142276,0.963577,0.986459,0.044788,0.09355,0.303976,0
3.699425,0.058045,1.921726,0.055278,0.114841,0.983317,0.991542,0.015771,0.078584,0.278625,0
3.746104,0.046679,1.937419,-0.025918,0.092018,0.983804,0.988438,0.012106,0.106378,0.231588,0
3.800096,0.053992,1.959759,0.072491,0.154659,0.960166,0.97524,0.033487,0.298801,0.489679,0
3.854974,0.054878,1.989205,0.107161,0.173111,0.948468,0.970074,0.002332,0.254819,0.666219,0
3.899054,0.04408,2.019535,0.03467,0.130622,0.995258,1.004392,-0.130225,0.245656,0.679047,0
3.943714,0.04466,2.048672,-0.018266,0.095903,1.043266,1.047824,-0.287218,0.277726,0.621931,0
3.989694,0.045979,2.077693,-0.016044,0.065797,0.989897,0.992211,-0.075858,0.042543,0.619488,0
4.04184,0.052146,2.106006,0.025699,0.109257,0.967964,0.974449,-0.015383,0.151888,0.664997,0
4.091639,0.049798,2.142202,0.045822,0.147375,0.959435,0.971768,-0.070666,0.2313,0.718753,0
4.145905,0.054266,2.174265,0.020123,0.142519,0.958216,0.968966,0.014855,0.278642,0.399576,0
4.217708,0.071803,2.19367,0.082189,0.099059,1.001594,1.009831,0.042344,0.139365,0.295118,0
4.270283,0.052575,2.20227,0.082674,0.099059,1.017434,1.025583,0.030822,0.078164,0.043913,0
4.323917,0.053635,2.212593,0.074188,0.182094,1.034981,1.053493,-0.120447,-0.069695,0.184616,0
4.399338,0.07542,2.217675,0.086311,0.11994,0.9453,0.95678,-0.399917,-0.14697,0.045644,0
4.477568,0.078231,2.215789,0.113707,0.067982,0.836124,0.846554,-0.237122,-0.285636,-0.00292,0
4.535187,0.057619,2.208073,0.123163,0.075751,0.973569,0.984248,-0.177257,-0.498217,-0.135478,0
4.599818,0.06463,2.184148,0.030063,-0.013267,1.227988,1.228428,0.188346,-0.709577,-0.500775,1
4.653667,0.05385,2.156871,0.061824,0.046616,1.323274,1.325537,0.169409,0.050034,-0.079278,0
4.706626,0.052959,2.150923,-0.06862,0.117997,1.307434,1.31454,0.404592,-0.04129,-0.050873,0
4.752429,0.045803,2.131988,-0.068127,0.152959,1.079821,1.092726,-0.172676,-0.046483,-0.478478,0
4.800567,0.048137,2.11037,0.086796,0.059241,0.821746,0.828438,0.007224,0.197863,-0.011777,0
4.850977,0.050411,2.103052,0.020365,0.015296,0.833931,0.834319,-0.002563,-0.227462,-0.287488,0
4.909343,0.058365,2.084776,0.058429,0.022823,0.848309,0.850625,-0.166886,-0.090934,-0.099647,0
4.954535,0.045192,2.078364,0.043155,-0.00796,0.862199,0.863316,-0.068568,-0.179684,0.003023,0
4.997563,0.043028,2.075638,0.048004,-0.010131,0.853183,0.854592,0.133666,-0.139487,0.294168,0
5.04141,0.043848,2.085303,0.045095,0.036419,0.868536,0.870468,-0.015996,0.086533,0.336317,0
5.091469,0.050058,2.093901,0.078068,0.03909,0.78909,0.793906,-0.140307,0.428312,0.393433,0
5.134799,0.04333,2.107074,0.08922,-0.06103,0.766427,0.774012,0.054253,0.332711,0.458185,0
5.178812,0.044013,2.118728,0.107161,0.008255,0.833687,0.840586,0.125114,0.22245,0.184823,0
5.223926,0.045113,2.118075,0.175288,0.02088,0.912157,0.929082,0.135499,0.096307,0.05257,0
5.265506,0.04158,2.117926,0.178198,0.008012,1.158779,1.172428,0.182841,-0.259217,0.339983,0
5.310558,0.045053,2.123252,0.097221,0.064826,1.498979,1.503527,-0.260648,-0.065267,-0.169785,1
5.352032,0.041474,2.1027,0.01285,-0.020504,1.41198,1.412187,-0.09999,-0.344738,-0.454142,0
5.398914,0.046882,2.08211,0.02085,-0.047763,1.264543,1.265616,0.550887,-0.071376,-0.154513,0
5.447737,0.048823,2.071666,-0.116506,0.131836,1.269661,1.281793,0.294934,-0.26105,-0.415963,0
5.48577,0.038033,2.046386,-0.02888,0.184037,0.941157,0.959417,-0.238046,-0.049079,-0.450172,0
5.528125,0.042355,2.032205,0.074431,0.03909,0.760334,0.764968,0.101871,-0.106686,0.033752,0
5.569704,0.041579,2.036291,0.017456,0.027193,0.777637,0.778308,0.152573,-0.214809,0.235032,0
5.614999,0.045295,2.03941,-0.032829,0.09299,0.827595,0.833449,-0.273506,-0.126539,-0.003511,0
5.656881,0.041883,2.035545,0.020608,0.046859,0.791527,0.793181,-0.225858,0.178894,-0.026113,0
5.701119,0.044237,2.031477,-0.006171,0.013354,0.84441,0.844538,0.094514,-0.260273,-0.085532,0
5.744348,0.043229,2.023234,0.050186,0.088619,0.868048,0.874002,-0.161744,0.150534,-0.158836,0
5.787004,0.042656,2.019095,0.083886,0.014325,0.852452,0.856689,-0.160523,0.422064,0.008847,0
5.832391,0.045387,2.018339,0.04461,0.024036,0.835149,0.836685,0.080158,0.254076,-0.000316,0
5.874099,0.041709,2.012712,0.062309,0.11994,0.847821,0.858527,-0.03835,0.273318,-0.205567,0
5.919511,0.045411,1.996827,0.089705,0.073809,0.819309,0.827503,-0.309574,0.203985,-0.510999,0
5.961107,0.041596,1.973976,0.145225,0.035448,0.826863,0.840268,-0.191677,0.103192,-0.501226,0
6.006832,0.045725,1.953053,0.146437,0.001457,1.01256,1.023096,-0.139753,-0.19491,-0.517108,0
6.048338,0.041506,1.930409,0.098675,-0.014715,1.270148,1.27406,-0.166937,-0.302117,-0.672879,1
6.093352,0.045015,1.904201,0.047035,-0.016162,1.430744,1.431608,0.056335,-0.298452,-0.403487,0
6.134877,0.041525,1.891087,-0.022709,0.001214,1.524324,1.524493,-0.063395,-0.219039,-0.452356,0
6.172931,0.038054,1.868601,-0.052576,0.03302,1.267955,1.269474,-0.246349,0.29256,-0.54704,0
6.221499,0.048568,1.845442,-0.04912,-0.089977,0.939695,0.94527,0.058778,0.143509,-0.562618,0
6.259471,0.037972,1.826938,-0.021475,-0.09649,0.826376,0.832267,0.597867,0.065013,-0.396462,0
6.301025,0.041554,1.819007,0.053581,0.043945,0.936527,0.939087,0.227988,0.14412,0.005487,0
6.345944,0.044919,1.812497,-0.058747,0.058999,0.926048,0.929783,-0.357832,-0.156426,-0.569642,0
6.388217,0.042274,1.78591,0.012607,0.021851,0.749612,0.750036,-0.097909,-0.456666,-0.52902,0
6.430223,0.042005,1.77246,0.153711,-0.00989,0.850015,0.863857,0.018156,-0.197964,-0.001843,0
6.468387,0.038164,1.773461,0.051156,-0.027741,0.96967,0.971414,0.112049,-0.16037,0.179984,0
6.510304,0.041917,1.783084,0.02279,0.000971,1.014754,1.01501,0.267515,-0.196105,0.365382,0
6.555504,0.0452,1.795811,0.070794,0.087405,0.983804,0.990213,-0.566011,0.676821,0.249012,0
6.604719,0.049216,1.802207,0.039276,-0.026052,0.850746,0.85205,-0.345183,0.465767,0.19098,0
6.643064,0.038345,1.801323,0.063278,-0.06103,0.794939,0.799786,-0.06671,-0.049567,-0.12334,0
6.691718,0.048654,1.79379,0.182077,-0.034013,0.756435,0.778783,-0.07007,0.075355,-0.045455,0
6.729848,0.03813,1.797682,0.220626,-0.048245,0.827595,0.857855,0.002179,0.206708,0.285005,0
6.778461,0.048614,1.811246,0.145468,-0.057653,1.256014,1.265723,-0.045774,0.685932,0.661603,1
6.817096,0.038635,1.831545,-0.196481,-0.07478,1.745844,1.758456,-0.256828,0.022838,0.347618,0
6.865679,0.048582,1.83427,-0.197962,-0.102039,1.518719,1.534962,-0.116635,-0.070014,-0.207353,0
6.904175,0.038496,1.827925,-0.116753,-0.06682,1.214098,1.221528,0.577919,-0.865971,-0.204604,0
6.952847,0.048672,1.821474,-0.020241,0.075994,0.927023,0.930353,0.479875,-0.762735,-0.242783,0
6.990898,0.038051,1.820803,0.098675,0.131351,0.83125,0.847329,-0.223231,0.145622,0.241022,0
7.039529,0.048631,1.839152,0.03176,0.055114,0.716956,0.719772,-0.051272,0.092171,0.584634,0
7.077853,0.038324,1.860047,-0.049367,0.043703,0.739864,0.742796,0.004622,-0.17661,0.272176,0
7.126773,0.04892,1.870279,0.053823,0.036662,0.734746,0.737626,-0.070584,0.13581,0.306715,0
7.164901,0.038128,1.885907,0.057217,-0.006513,0.761065,0.763241,0.163988,0.148639,0.311297,0
7.214412,0.04951,1.893628,0.042913,0.009954,0.875603,0.87671,0.117955,0.026888,-0.013787,0
7.259588,0.045177,1.893464,0.144255,0.033991,0.87804,0.89046,-0.060417,0.319493,0.014007,0
7.301171,0.041583,1.891728,0.104737,0.005584,0.864149,0.870491,-0.022849,0.15517,-0.268213,0
7.346291,0.04512,1.88072,0.124375,0.056085,0.885351,0.895802,-0.147466,0.19793,-0.40413,0
7.388159,0.041867,1.866777,0.14571,0.094689,0.946519,0.962338,-0.316981,0.4661,-0.427343,0
7.434081,0.045923,1.856323,0.109101,0.032049,1.178274,1.183748,-0.287659,0.258406,-0.343654,1
7.475939,0.041857,1.842174,-0.003456,0.038604,1.218484,1.219101,-0.209163,-0.122468,-0.67963,0
7.521352,0.045413,1.821225,0.003152,-0.075986,1.216535,1.218909,0.453015,-0.175919,-0.351901,0
7.570032,0.04868,1.831775,-0.048133,-0.10831,1.421727,1.426659,1.077625,-0.630708,0.35823,0
7.608116,0.038085,1.845544,-0.192285,0.065554,1.257476,1.27378,0.645132,-0.480435,-0.241029,0
7.649631,0.041514,1.841288,-0.017278,0.098817,1.044485,1.049291,-0.250396,0.44136,-0.096254,0
7.695119,0.045489,1.84779,-0.081456,0.013839,0.816141,0.820312,0.003961,-0.034825,0.022781,0
7.736726,0.041606,1.85437,-0.055538,0.068225,0.769107,0.774122,-0.094331,-0.180488,-0.064198,0
7.781706,0.04498,1.857925,-0.020981,0.06871,0.743519,0.746982,-0.166018,-0.041118,-0.044801,0
7.823282,0.041576,1.871153,0.007273,0.022094,0.825889,0.826216,0.06214,-0.044478,0.536743,0
7.868536,0.045254,1.8994,-0.081703,0.036904,0.944569,0.948814,0.204472,-0.137024,0.512002,0
7.91039,0.041855,1.924426,-0.052082,0.064826,1.003056,1.006497,0.089934,0.244766,0.657999,0
7.955381,0.044991,1.954973,-0.016044,0.093961,0.996964,1.00151,-0.173349,0.52271,0.535826,0
7.996891,0.04151,1.976525,-0.007158,0.060455,0.91825,0.920266,0.059697,0.305242,0.416707,0
8.034878,0.037987,1.993396,0.070552,0.079879,0.895099,0.901421,0.060613,0.21911,0.284455,0
8.083484,0.048606,2.006754,0.11104,0.071867,0.865124,0.875177,0.049923,0.070975,0.321107,0
8.121615,0.038131,2.020638,0.13577,0.057299,0.859275,0.87182,0.006551,-0.108314,0.357759,0
8.16309,0.041476,2.044561,0.144255,0.054386,0.964065,0.976314,-0.034377,0.001948,0.649447,0
8.208054,0.044964,2.065845,-0.030114,0.085706,1.123443,1.127109,-0.194118,-0.494075,0.270405,0
8.249582,0.041528,2.071718,-0.003456,0.089833,1.12856,1.132135,-0.202059,-0.207579,0.36234,0
8.29459,0.045008,2.095795,0.032003,0.045645,1.250652,1.251894,0.073136,0.255762,1.119508,1
8.336098,0.041508,2.138986,-0.178215,0.096146,1.335215,1.350483,0.096654,-0.170316,0.843091,0
8.374225,0.038127,2.158439,-0.105646,0.170926,1.106384,1.124483,-0.214887,0.178182,0.419762,0
8.422979,0.048753,2.173604,-0.006665,0.118726,0.95846,0.965808,-0.189536,-0.05303,0.800025,0
8.461722,0.038743,2.212018,-0.001481,0.121639,0.858788,0.867361,-0.160215,-0.18009,1.211443,0
8.511699,0.049977,2.260222,-0.017032,0.165585,0.830031,0.846558,-0.337671,0.094799,1.472283,0
8.554865,0.043165,2.324429,-0.071089,0.120425,0.876578,0.887662,-0.087827,-0.143133,1.395619,0
8.608932,0.054067,2.377044,-0.074051,0.122367,1.048628,1.058337,0.064278,-0.135803,1.048342,0
8.659637,0.050705,2.407098,0.056732,0.121396,0.999401,1.008344,-0.14647,0.371826,1.081023,0
8.703286,0.043649,2.436944,0.060854,0.045402,0.960409,0.963406,0.050534,0.333647,1.073693,0
8.747406,0.04412,2.463945,0.07734,0.04953,0.967964,0.972311,0.060918,0.19101,0.957934,0
8.791017,0.043611,2.48369,0.087038,0.060698,0.923611,0.929687,-0.188315,0.186429,0.622569,0
8.834735,0.043718,2.497338,0.113707,0.028407,0.935065,0.942381,-0.084162,-0.200554,0.676631,0
8.885464,0.05073,2.510807,0.150074,0.048073,0.912401,0.92591,-0.249707,-0.116255,0.778951,0
8.929048,0.043583,2.528023,0.046307,0.002185,1.095905,1.096885,-0.166324,-0.297987,0.59844,0
8.983016,0.053969,2.537508,-0.025424,-0.028465,1.175594,1.176213,0.265253,-0.302263,0.681212,0
9.036315,0.053298,2.561766,-0.091082,-0.000241,1.465349,1.468177,0.654985,-0.080519,0.895015,1
9.080081,0.043766,2.570463,-0.123911,0.087891,1.288425,1.297351,-0.128145,0.450323,0.074012,0
9.130587,0.050505,2.544703,-0.081703,-0.052587,0.900947,0.906171,-0.283304,-0.213077,-0.41468,0
9.181129,0.050542,2.514821,0.036852,-0.138946,0.697217,0.711881,0.513264,-0.62144,-0.166363,0
9.224727,0.043598,2.501457,0.075886,-0.036908,0.852939,0.857103,0.300072,-0.367321,0.031557,0
9.279182,0.054454,2.488401,0.029821,-0.001689,0.954073,0.954541,0.137582,-0.138857,0.153425,0
9.32298,0.043798,2.488165,0.051156,-0.024364,0.995014,0.996626,0.220049,-0.117782,0.59111,0
9.366593,0.043613,2.504067,0.003637,0.066768,1.067392,1.069485,0.139414,0.211474,0.819879,0
9.41829,0.051697,2.528921,0.033215,0.090319,0.970645,0.975403,-0.258259,0.527597,0.678158,0
9.471675,0.053385,2.548579,0.023517,0.003156,0.836611,0.836948,0.078939,0.139698,0.591415,0
9.520105,0.04843,2.555347,0.073219,0.009954,0.821015,0.824333,0.063056,0.13817,0.412737,0
9.563514,0.043409,2.558035,0.102797,0.009712,0.835636,0.841992,0.033735,0.108849,0.352567,0
9.607114,0.0436,2.556573,0.073219,-0.004101,0.872191,0.875269,0.15377,-0.191086,0.220314,0
9.650747,0.043633,2.555717,0.120011,0.007284,0.982342,0.989672,0.08352,-0.201776,0.349512,0
9.694472,0.043725,2.552881,0.105706,0.039818,1.043266,1.049364,0.038064,-0.095952,0.06102,0
9.738073,0.043601,2.54136,0.121708,0.001457,1.097123,1.103854,-0.02688,-0.011803,-0.072944,0
9.79243,0.054357,2.534023,0.147407,-0.012544,1.291837,1.30028,0.373848,0.411527,0.457592,1
9.836488,0.044058,2.54372,-0.060968,0.174568,1.30061,1.313689,0.412332,-0.275696,0.309457,0
9.880691,0.044204,2.549108,-0.047392,0.217057,1.150737,1.171987,-0.023215,-0.108625,0.444764,0
9.931434,0.050743,2.56134,-0.056032,0.164613,0.930922,0.947023,-0.249235,-0.280583,0.628634,0
9.98168,0.050246,2.589045,-0.007405,0.105615,0.904115,0.910293,0.043675,-0.540812,1.11641,0
10.035933,0.054253,2.635624,0.025942,0.180395,0.990384,1.007013,-0.35858,0.100291,1.229726,0
10.086737,0.050804,2.671077,-0.031348,0.103672,0.957972,0.964076,-0.177458,-0.035321,1.171083,0
10.130327,0.043589,2.70032,0.021335,0.068468,0.875846,0.878778,-0.010997,0.030958,1.008287,0
10.174209,0.043882,2.72364,0.092372,0.061669,0.861956,0.869082,0.073913,0.38526,0.962778,0
10.21776,0.043551,2.744096,0.091645,0.049772,0.867804,0.874048,0.033596,0.367545,0.753862,0
10.261371,0.043611,2.755041,0.100373,0.007527,0.819796,0.825952,-0.000612,0.303404,0.564493,0
10.305039,0.043668,2.755259,0.116374,-0.012785,0.788603,0.797246,-0.050093,0.119533,0.270056,0
10.348839,0.043799,2.749529,0.120253,-0.030153,0.864636,0.873479,0.018019,-0.002334,0.23707,0
10.400571,0.051732,2.741031,0.056975,-0.004342,1.09493,1.09642,-0.217775,0.109454,0.151854,0
10.444231,0.04366,2.729924,-0.090095,-0.114341,1.320349,1.32835,0.052533,-0.351138,0.111231,1
10.487857,0.043626,2.717566,-0.123911,-0.053793,1.472904,1.479085,-0.039341,-0.055148,0.188341,0
10.539605,0.051748,2.708423,-0.109348,-0.001206,1.283308,1.287958,-0.302013,0.191642,-0.079524,0
10.58361,0.044006,2.686115,-0.049614,-0.103003,0.995745,1.002287,0.022357,0.13758,-0.22491,0
10.634083,0.050473,2.667225,-0.003949,-0.144977,0.828326,0.840926,0.329622,0.257615,-0.042566,0
10.677366,0.043283,2.648723,-0.084171,-0.119648,0.928241,0.939698,0.274339,-0.002002,-0.271641,0
10.721274,0.043907,2.626714,-0.095032,-0.074298,0.941401,0.949098,0.008001,-0.216416,-0.216663,0
10.765504,0.04423,2.605911,-0.078494,-0.068026,0.930922,0.936699,0.013272,-0.062629,-0.141851,0
10.809133,0.043629,2.592298,-0.078494,-0.060789,1.005493,1.010383,0.106743,-0.188813,0.188976,0
10.853214,0.04408,2.597745,-0.083924,-0.0,1.042048,1.045422,-0.010848,0.093101,0.442791,0
10.904842,0.051628,2.606457,-0.124899,0.005827,0.986485,0.994377,-0.180669,0.164878,0.233875,0
10.956206,0.051364,2.607253,-0.058994,-0.042938,0.848065,0.851198,0.005984,-0.094148,0.178767,0
11.010566,0.054359,2.601834,0.025699,-0.014232,0.917275,0.917745,0.076844,-0.270688,-0.000522,0
11.054123,0.043558,2.59533,0.106434,-0.030877,0.936771,0.943303,0.29309,-0.235564,0.307049,0
11.097723,0.0436,2.607648,0.098675,-0.0,1.15756,1.161758,0.447639,0.267484,0.622256,0
11.141017,0.043293,2.617364,-0.050354,0.080607,1.152199,1.156112,-0.209041,0.314215,0.125928,0
11.191314,0.050298,2.614799,-0.038013,0.013354,0.919956,0.920837,-0.100423,-0.140314,-0.029942,0
11.245646,0.054331,2.6033,0.036852,-0.040285,0.809805,0.811643,0.228834,-0.166275,-0.071176,0
11.289244,0.043598,2.595457,0.09916,0.009954,0.930922,0.936241,0.347647,0.185888,0.097729,0
11.333111,0.043867,2.59675,0.044852,0.030592,1.054964,1.05636,0.219671,0.292179,0.244947,0
11.377344,0.044232,2.599617,-0.040481,0.040789,1.081039,1.082566,-0.017954,0.084566,0.053143,0
11.428358,0.051015,2.59727,0.002182,0.047587,0.991115,0.992259,-0.049784,0.103091,0.15592,0
11.471556,0.043198,2.599511,0.043883,0.035691,0.958216,0.959884,-0.02535,0.35599,0.097582,0
11.523554,0.051998,2.598815,0.007516,0.002185,1.026695,1.026725,0.032377,0.297347,0.027027,0
11.573227,0.049674,2.596066,-0.000494,0.03739,1.047165,1.047833,-0.091934,0.294903,0.01145,0
11.616983,0.043756,2.592582,0.037579,0.026464,1.007443,1.008491,-0.12095,0.235038,-0.0026,0
11.660205,0.043222,2.587958,-0.002222,0.028407,1.033031,1.033424,-0.144539,0.07928,-0.036215,0
11.703544,0.043339,2.585287,0.00097,0.005584,0.999157,0.999173,0.041665,0.005759,0.031564,0
11.748752,0.045208,2.584338,-0.011601,0.004856,0.976493,0.976574,0.20124,-0.052153,0.032933,0
11.793197,0.044446,2.582804,-0.02962,0.015296,1.004762,1.005315,0.208265,-0.0885,0.032017,0
11.844389,0.051191,2.580955,-0.015551,0.019181,0.96504,0.965355,0.197663,-0.030085,-0.010142,0
11.88876,0.044371,2.576499,-0.020734,0.017967,1.009149,1.009522,0.245922,-0.007789,-0.050154,0
11.939664,0.050905,2.568752,-0.03357,0.032534,1.03035,1.03141,0.521422,-0.276875,-0.075505,0
11.993834,0.054169,2.562924,0.017941,0.094689,0.995745,1.000398,0.281352,-0.387747,-0.067258,0
