timestamp,dt,heading_rad,accel_x,accel_y,accel_z,accel_norm,step_event
0.000614,0.000614,1.896624,0.026427,0.0539,0.995502,0.99731,0
0.14184,0.141226,1.89661,0.02376,0.057299,0.994527,0.996459,0
0.172118,0.030278,1.896721,0.018668,0.055114,0.999157,1.00085,0
0.200403,0.028285,1.896581,0.021578,0.055357,0.995258,0.99703,0
0.232863,0.032459,1.896412,0.023275,0.054386,0.994039,0.995798,0
0.260615,0.027753,1.895432,0.020365,0.059241,0.999401,1.001362,0
0.291537,0.030921,1.895401,0.03273,0.056085,0.994771,0.996888,0
0.319532,0.027995,1.894861,0.03273,0.066768,0.999157,1.00192,0
0.347035,0.027503,1.894496,0.02376,0.062398,1.002569,1.00479,0
0.381332,0.034297,1.893615,0.023032,0.053414,0.98551,0.987225,0
0.408898,0.027566,1.893231,0.032003,0.054386,0.981611,0.983637,0
0.440044,0.031146,1.891171,0.029821,0.063612,0.988678,0.991171,0
0.466974,0.02693,1.886655,0.02182,0.053414,0.977712,0.979413,0
0.500525,0.03355,1.882797,0.02376,0.058513,0.997939,0.999935,0
0.527154,0.026629,1.878901,0.022063,0.068225,1.00793,1.010477,0
0.553663,0.026509,1.873021,0.023517,0.071624,1.018653,1.021438,0
0.587188,0.033524,1.867397,0.033458,0.065797,1.001107,1.003824,0
0.613687,0.0265,1.859784,0.018426,0.071624,1.009392,1.012098,0
0.640457,0.026769,1.852773,0.048247,0.123581,0.995989,1.004786,0
0.667007,0.026551,1.845951,0.07928,0.112899,0.990384,0.999946,0
0.701276,0.034269,1.839955,0.059399,0.102458,0.984779,0.991875,0
0.727962,0.026686,1.832187,0.061339,0.073809,0.985023,0.989687,0
0.761524,0.033562,1.827926,0.08025,0.060213,0.988434,0.993513,0
0.788452,0.026929,1.826249,0.090675,0.116783,1.012073,1.022816,0
0.815973,0.027521,1.823645,0.072249,0.102701,1.007199,1.014996,0
0.842664,0.026691,1.820878,0.066188,0.100031,1.055451,1.062245,0
0.869713,0.027049,1.818389,0.072976,0.085949,1.006468,1.012764,0
0.903268,0.033555,1.816895,0.07637,0.081578,0.972838,0.979235,0
0.929795,0.026527,1.81363,0.063521,0.087891,0.986729,0.99267,0
0.956315,0.02652,1.808841,0.077583,0.082307,0.936771,0.943575,0
0.989841,0.033526,1.805566,0.07637,0.069439,0.976006,0.981449,0
1.016377,0.026536,1.801504,0.064976,0.081821,0.978687,0.984248,0
1.042985,0.026608,1.798929,0.092129,0.074537,1.056913,1.063536,0
1.069541,0.026556,1.797787,0.053338,0.079879,1.029375,1.033847,0
1.103018,0.033477,1.794912,0.065218,0.06434,0.997939,1.002135,0
1.129555,0.026536,1.790519,0.069824,0.07041,1.006955,1.011826,0
1.156106,0.026551,1.788445,0.095281,0.049044,0.966014,0.97194,0
1.182593,0.026487,1.784161,0.078068,0.089348,1.026207,1.033044,0
1.216098,0.033505,1.778135,0.009455,0.016267,1.004762,1.004938,0
1.242568,0.02647,1.774088,0.071764,0.075508,1.033275,1.038512,0
1.270153,0.027586,1.776981,0.077098,-0.068508,0.958947,0.964478,0
1.300587,0.030434,1.771901,0.028366,0.132079,1.045703,1.054393,0
1.328471,0.027884,1.758261,0.041943,2.56219,0.901678,2.716542,1
1.355695,0.027225,1.765996,0.25578,-0.017851,0.628738,0.679009,0
1.382259,0.026564,1.789644,0.041943,-0.011579,0.847578,0.848694,0
1.422312,0.040053,1.820414,0.036367,-0.090942,1.003787,1.008554,0
1.465638,0.043326,1.846797,0.137952,0.038118,1.074459,1.08395,0
1.497061,0.031422,1.864962,0.001697,-0.002653,1.057157,1.057162,0
1.537157,0.040097,1.870785,-0.001728,0.04346,1.026939,1.027859,0
1.569013,0.031855,1.873465,0.024002,0.123581,0.978687,0.98675,0
1.605866,0.036853,1.878323,0.055278,0.119211,0.956998,0.965977,0
1.636535,0.030669,1.887429,0.040488,0.168012,0.972107,0.987349,0
1.670474,0.033938,1.893672,0.056247,0.13305,0.984779,0.995317,0
1.705306,0.034832,1.900984,0.083401,0.066768,0.96967,0.975537,0
1.737461,0.032155,1.907517,0.051399,0.06264,0.979418,0.982764,0
1.762257,0.024796,1.919642,0.056975,0.067011,0.978687,0.982631,0
1.794698,0.032442,1.936076,0.072976,0.031077,0.975031,0.978252,0
1.826755,0.032057,1.950098,-0.007899,0.011411,1.01256,1.012655,0
1.860869,0.034114,1.960538,0.035397,0.006798,1.077871,1.078474,0
1.887789,0.02692,1.974316,-0.002962,0.03132,1.000863,1.001357,0
1.924102,0.036314,1.978064,-0.044677,0.037633,0.973813,0.975563,0
1.952784,0.028682,1.979239,0.006304,0.077208,0.975762,0.978832,0
1.980445,0.027661,1.980196,0.059642,0.176753,1.021821,1.038709,0
2.008182,0.027738,1.980139,0.068612,0.213657,1.034737,1.058791,0
2.036982,0.0288,1.975239,0.072006,0.160486,1.036443,1.051263,0
2.062922,0.02594,1.973323,0.033215,0.040789,0.999157,1.000541,0
2.095181,0.032259,1.974291,0.016244,0.071867,0.991602,0.994336,0
2.12302,0.027839,1.97693,0.051156,0.041518,0.994039,0.99622,0
2.155088,0.032068,1.980133,0.069097,0.055357,1.015972,1.019823,0
2.18398,0.028892,1.976928,0.017456,0.060698,0.995502,0.997503,0
2.219288,0.035307,1.979252,0.06643,-0.046074,0.9453,0.948751,0
2.25088,0.031592,1.987281,0.053823,-0.030153,0.964796,0.966766,0
2.28443,0.03355,1.994239,0.027154,0.014082,0.988922,0.989395,0
2.316912,0.032481,2.001851,0.009213,0.000728,0.979174,0.979218,0
2.349352,0.032441,2.004816,-0.000494,-0.025329,0.976006,0.976335,0
2.386425,0.037073,2.008049,0.054793,-0.041491,0.971376,0.973804,0
2.418122,0.031697,2.013453,0.060369,0.008255,0.970888,0.972798,0
2.449766,0.031643,2.013443,0.083886,0.015782,0.983804,0.9875,0
2.48025,0.030484,2.016276,0.087281,-0.113859,0.945056,0.955883,0
2.513698,0.033448,2.024191,0.086068,-0.069714,0.969182,0.975491,0
2.548445,0.034747,2.034714,0.060127,-0.052828,1.027913,1.031025,0
2.583099,0.034654,2.043483,0.029336,-0.02364,1.060812,1.061481,0
2.617681,0.034582,2.04717,0.046307,0.000971,1.081283,1.082275,0
2.652114,0.034433,2.048276,0.048247,-0.029188,1.000376,1.001964,0
2.679135,0.027021,2.051708,0.043883,-0.024364,0.883888,0.885312,0
2.71328,0.034146,2.050836,0.029578,0.017967,0.927267,0.927912,0
2.749112,0.035831,2.047943,0.070794,-0.008684,0.934334,0.937052,0
2.782918,0.033807,2.049577,0.10013,-0.016886,0.927267,0.93281,0
2.817918,0.034999,2.048266,0.069097,0.014568,0.943838,0.946476,0
2.852242,0.034324,2.044918,0.088978,-0.01182,0.93409,0.938393,0
2.880814,0.028572,2.044683,0.12292,-0.045592,0.918737,0.928044,0
2.912157,0.031343,2.043801,0.136497,0.007041,0.985754,0.995184,0
2.946987,0.03483,2.041389,0.151044,-0.06103,0.999157,1.012351,0
2.981809,0.034822,2.04053,0.213352,0.005341,1.047409,1.068931,0
3.016087,0.034278,2.039128,0.17747,-0.060548,1.072022,1.088299,0
3.043534,0.027447,2.035352,0.095281,-0.02364,1.085669,1.090099,0
3.070777,0.027244,2.021733,0.059884,0.042974,1.146594,1.14896,0
3.105146,0.034368,2.002898,0.060611,0.054143,1.192896,1.195661,1
3.13221,0.027065,1.979884,0.066673,0.017724,1.220677,1.222625,0
3.162786,0.030576,1.966093,0.096251,-0.057894,1.180468,1.185799,0
3.189815,0.027029,1.961314,-0.035051,-0.080328,1.127585,1.130986,0
3.216962,0.027148,1.958279,-0.156247,-0.053552,1.099804,1.112137,0
3.244122,0.02716,1.954049,-0.207095,0.002428,1.031569,1.052154,0
3.27119,0.027068,1.950947,-0.14588,0.000971,0.932872,0.944209,0
3.304553,0.033363,1.955492,-0.112557,-0.05114,0.862931,0.871742,0
3.331635,0.027082,1.962832,-0.156494,0.006798,0.84051,0.854982,0
3.366748,0.035113,1.969148,-0.091576,0.048559,0.888762,0.894786,0
3.400998,0.03425,1.982843,-0.011848,0.049287,0.922636,0.924028,0
3.435129,0.034132,1.995419,-0.036532,0.043217,0.918493,0.920235,0
3.462359,0.02723,2.006479,-0.084418,0.033991,0.898023,0.902622,0
3.495999,0.03364,2.010906,-0.076766,-0.005789,0.890956,0.894275,0
3.522734,0.026735,2.010804,-0.016291,0.003399,0.88267,0.882827,0
3.54954,0.026806,2.009209,0.036609,-0.010131,0.862443,0.863279,0
3.583143,0.033603,2.009842,0.061824,-0.034978,0.884132,0.886981,0
3.609733,0.02659,2.011801,0.058187,-0.016162,0.9163,0.918288,0
3.636317,0.026583,2.013678,0.0674,0.000728,0.930922,0.933359,0
3.67004,0.033724,2.01547,0.038064,0.010926,0.938477,0.939312,0
3.696674,0.026634,2.020739,0.061339,0.020152,0.960409,0.962577,0
3.72328,0.026606,2.026134,0.051399,0.0539,0.95651,0.959405,0
3.756923,0.033643,2.02384,-0.055538,0.098331,0.945056,0.95178,0
3.783509,0.026585,2.017535,0.06837,0.005827,0.947493,0.949975,0
3.810428,0.026919,2.016778,0.094069,0.000486,1.043997,1.048227,0
3.844082,0.033654,2.015859,0.141104,0.01044,1.028401,1.038088,0
3.879332,0.03525,2.011669,0.046792,0.048073,1.109308,1.111335,0
3.906003,0.02667,1.999237,0.076128,0.047345,1.154636,1.158111,0
3.939681,0.033678,1.991352,0.144498,0.008983,1.17998,1.188829,1
3.966391,0.026711,1.984599,0.032973,-0.014232,1.151468,1.152027,0
3.993017,0.026626,1.979211,-0.089355,-0.105174,1.189484,1.197464,0
4.026639,0.033622,1.974927,-0.102684,-0.064166,1.296955,1.302595,0
4.053434,0.026795,1.967671,-0.032335,-0.034737,1.17072,1.171681,0
4.080232,0.026798,1.955894,0.01285,-0.012303,1.005737,1.005894,0
4.113924,0.033692,1.947188,-0.003209,-0.095525,0.888031,0.89316,0
4.140557,0.026633,1.935096,-0.051589,-0.080328,0.749612,0.755666,0
4.167165,0.026608,1.91539,-0.09281,-0.09842,0.821015,0.832085,0
4.200811,0.033647,1.902735,-0.040234,-0.127126,0.896073,0.90594,0
4.227506,0.026695,1.892849,-0.027399,-0.089977,0.938964,0.943663,0
4.254083,0.026576,1.88854,0.014062,-0.094319,0.968208,0.972893,0
4.289932,0.035849,1.891784,-0.007652,-0.126885,0.937502,0.94608,0
4.320571,0.030639,1.895001,-0.100709,-0.058859,0.963821,0.970854,0
4.347222,0.02665,1.893441,-0.066646,-0.01375,0.992334,0.994664,0
4.374872,0.027651,1.891607,0.009213,-0.052105,0.955779,0.957243,0
4.401354,0.026482,1.89162,0.000242,-0.060065,0.922393,0.924346,0
4.427869,0.026515,1.889852,-0.005677,-0.041491,0.890956,0.891939,0
4.461426,0.033557,1.888444,0.073219,-0.048728,0.882914,0.887283,0
4.487911,0.026485,1.888185,0.095281,-0.056929,0.870241,0.877291,0
4.515014,0.027103,1.8923,0.123405,-0.046074,0.93214,0.941402,0
4.548511,0.033496,1.898498,0.125102,-0.028465,0.906309,0.915345,0
4.574995,0.026484,1.905351,0.120011,-0.002412,0.902166,0.910116,0
4.601468,0.026473,1.917521,0.108373,-0.01568,0.902897,0.909513,0
4.627963,0.026496,1.944759,0.296026,-0.07671,1.03693,1.081083,0
4.661553,0.033589,1.957863,0.213595,0.000971,1.058375,1.079714,0
4.688055,0.026503,1.958249,0.125587,-0.0,1.075922,1.083226,0
4.714663,0.026608,1.948426,0.086311,-0.026294,1.105896,1.109571,0
4.741146,0.026483,1.927346,0.123163,-0.040526,1.135384,1.142763,0
4.774646,0.0335,1.91018,0.100858,-0.088047,1.128316,1.136232,0
4.802424,0.027778,1.896121,0.02085,-0.084912,1.125879,1.129269,0
4.835968,0.033545,1.883195,-0.0195,-0.000482,1.169745,1.169908,0
4.862865,0.026896,1.863184,-0.023449,0.006798,1.142694,1.142955,0
4.89696,0.034095,1.848768,0.009213,-0.005548,1.058375,1.05843,0
4.923447,0.026487,1.84169,0.03273,-0.008202,0.937014,0.937622,0
4.94994,0.026493,1.838604,-0.021968,0.027193,0.974544,0.97517,0
4.983571,0.033632,1.838574,-0.035791,0.011897,0.984292,0.985014,0
5.010048,0.026477,1.843445,-0.025424,0.027678,1.022796,1.023486,0
5.036547,0.026499,1.850491,-0.01481,0.090804,0.944325,0.948797,0
5.06306,0.026513,1.862734,-0.000494,0.071138,0.841485,0.844487,0
5.096566,0.033506,1.869655,-0.050108,0.01481,0.777149,0.778904,0
5.123222,0.026656,1.875101,-0.035297,-0.02557,0.782511,0.783724,0
5.149834,0.026612,1.876848,-0.007405,-0.000724,0.837586,0.837619,0
5.176377,0.026542,1.875259,0.026911,-0.002895,0.884376,0.88479,0
5.209886,0.033509,1.873837,0.061824,0.022094,0.911183,0.913545,0
5.236382,0.026496,1.873978,0.114192,-0.000241,0.940182,0.947092,0
5.262933,0.026551,1.876497,0.138437,-0.004583,0.942376,0.952501,0
5.289421,0.026488,1.881881,0.106919,-0.014474,0.928729,0.934975,0
5.323708,0.034287,1.885141,0.088978,-0.030153,0.931653,0.936378,0
5.350476,0.026768,1.885417,0.083886,-0.012785,0.935065,0.938907,0
5.381431,0.030955,1.882402,0.106676,-0.004342,0.922393,0.928551,0
5.408041,0.02661,1.876333,0.118071,-0.020745,0.916056,0.923867,0
5.434614,0.026573,1.872106,0.164378,-0.038837,0.914594,0.93006,0
5.461274,0.02666,1.873096,0.175773,-0.032565,0.965283,0.981697,0
5.494934,0.03366,1.870671,0.115404,-0.061271,1.048628,1.056737,0
5.521616,0.026681,1.862249,0.016001,-0.031601,1.139039,1.13959,0
5.5489,0.027285,1.847043,0.056732,0.004613,1.194846,1.196201,1
5.575511,0.026611,1.827172,0.071764,-0.015921,1.186804,1.189078,0
5.601957,0.026446,1.809164,0.033215,-0.124955,1.148056,1.155313,0
5.628458,0.026501,1.803767,-0.049614,-0.175612,1.24456,1.257867,0
5.654912,0.026453,1.804901,-0.065905,-0.137016,1.236518,1.24583,0
5.68853,0.033618,1.802197,-0.061215,0.013596,1.107359,1.109133,0
5.715045,0.026515,1.795158,-0.023696,-0.012544,0.959678,0.960053,0
5.741507,0.026462,1.792353,0.005091,-0.103003,0.846603,0.852861,0
5.767981,0.026474,1.793467,-0.044184,-0.107587,0.860737,0.86856,0
5.801648,0.033667,1.794853,-0.127367,-0.029912,0.941645,0.95069,0
5.828168,0.02652,1.793262,-0.086392,-0.009408,0.995502,0.999288,0
5.855561,0.027393,1.791839,-0.037025,-0.026535,0.995014,0.996056,0
5.885747,0.030186,1.79521,-0.026165,-0.034737,0.949687,0.950682,0
5.91223,0.026483,1.800928,-0.058747,-0.044144,0.935309,0.938191,0
5.938795,0.026565,1.808219,-0.035791,-0.048486,0.93872,0.940653,0
5.965307,0.026512,1.814753,-0.039,-0.040767,0.915813,0.917549,0
5.991798,0.026491,1.820194,-0.047146,-0.00796,0.952855,0.954054,0
6.025284,0.033486,1.822987,-0.004196,0.000728,0.950418,0.950427,0
6.051755,0.02647,1.825472,0.019153,-0.020263,0.917519,0.917942,0
6.078257,0.026502,1.8298,0.052126,-0.022434,0.918006,0.919758,0
6.104966,0.02671,1.836944,0.096736,-0.024605,0.92751,0.932866,0
6.138519,0.033553,1.842985,0.070067,-0.008443,0.927754,0.930434,0
6.16501,0.02649,1.848806,0.080977,-0.015197,0.951636,0.955196,0
6.191485,0.026476,1.855626,0.089705,-0.009649,0.972838,0.977013,0
6.217935,0.02645,1.860044,0.099888,0.008983,0.96504,0.970237,0
6.251401,0.033466,1.865007,0.111283,-0.008684,0.949443,0.955982,0
6.277905,0.026504,1.871313,0.144013,-0.020504,0.946275,0.95739,0
6.304417,0.026512,1.877714,0.147165,-0.02171,0.97625,0.987518,0
6.329655,0.025238,1.884663,0.160984,-0.016162,1.036686,1.049236,0
6.356671,0.027016,1.891241,0.136497,-0.036425,1.056182,1.065589,0
6.383421,0.026751,1.896476,0.070794,-0.022193,1.106627,1.109112,0
6.417069,0.033647,1.895267,0.051883,0.012868,1.151468,1.152708,0
6.443698,0.026629,1.890903,0.004122,0.007769,1.166333,1.166366,0
6.470324,0.026626,1.883521,-0.042949,0.036419,1.173888,1.175237,0
6.503899,0.033575,1.883058,-0.016044,0.024279,1.175837,1.176197,0
6.530578,0.026679,1.889564,-0.039987,0.007041,1.144157,1.144877,0
6.55711,0.026531,1.897015,-0.07331,0.077694,1.056426,1.061813,0
6.583912,0.026802,1.904314,-0.07257,0.08522,0.915569,0.922386,0
6.617519,0.033607,1.909146,-0.065165,0.084735,0.825401,0.832294,0
6.644086,0.026567,1.916153,-0.059241,0.043703,0.804687,0.808047,0
6.67078,0.026694,1.928551,-0.073063,0.027921,0.854401,0.857974,0
6.704495,0.033716,1.943619,-0.080468,0.030592,0.898754,0.902868,0
6.731066,0.02657,1.965438,-0.067139,0.024765,0.950905,0.953594,0
6.75763,0.026565,1.991929,-0.098981,0.096146,0.98746,0.997055,0
6.791218,0.033588,2.003415,-0.089108,0.141791,0.952367,0.966979,0
6.819203,0.027985,2.013846,-0.014316,0.037876,0.873653,0.874591,0
6.845814,0.026611,2.026712,-0.001234,0.023308,0.846847,0.847168,0
6.872975,0.027161,2.040553,-0.007652,0.027436,0.894124,0.894577,0
6.906524,0.03355,2.049758,-0.012835,0.058756,0.96504,0.966912,0
6.933022,0.026498,2.059318,0.027154,0.04953,1.01646,1.018028,0
6.959549,0.026527,2.070709,0.031518,0.031563,1.026695,1.027663,0
6.986094,0.026545,2.083419,0.026669,0.037147,1.010611,1.011645,0
7.019588,0.033494,2.090564,-0.007405,0.032777,0.992334,0.992902,0
7.04606,0.026472,2.094886,0.040488,0.035691,0.982829,0.98431,0
7.072623,0.026563,2.100835,0.104979,0.003156,0.972838,0.978491,0
7.09912,0.026497,2.111054,0.086311,0.014568,0.982098,0.985991,0
7.132645,0.033525,2.117384,0.045822,0.025979,1.006224,1.007602,0
7.15949,0.026845,2.122806,0.035397,0.007041,1.011586,1.012229,0
7.185986,0.026495,2.128787,0.007516,-0.000482,1.11735,1.117375,0
7.212502,0.026516,2.136469,-0.016291,0.042489,1.102485,1.103423,0
7.245981,0.033479,2.138523,-0.019994,0.069439,1.140014,1.142302,0
7.272512,0.026532,2.139252,-0.021968,0.0539,1.096148,1.097693,0
7.298991,0.026479,2.144601,-0.021722,-0.033048,1.039854,1.040606,0
7.325468,0.026477,2.158199,-0.100709,-0.02943,1.03035,1.035678,0
7.356809,0.031341,2.171608,-0.132304,0.019909,1.129048,1.136947,0
7.383852,0.027043,2.184238,-0.075285,0.04346,1.132703,1.136034,0
7.41049,0.026638,2.204282,-0.075285,0.002185,0.999157,1.001992,0
7.443946,0.033456,2.219135,-0.131317,-0.047522,0.898754,0.909539,0
7.470451,0.026505,2.230692,-0.19895,-0.060306,0.861468,0.886197,0
7.496854,0.026402,2.244888,-0.137981,-0.019539,0.897535,0.90829,0
7.523404,0.02655,2.273897,-0.083677,0.022337,1.031812,1.035441,0
7.556871,0.033467,2.29686,-0.075532,0.061669,1.061787,1.066255,0
7.583359,0.026487,2.322066,-0.073557,0.045645,1.017191,1.020868,0
7.610411,0.027052,2.356534,-0.119222,-0.005066,0.956998,0.964408,0
7.644057,0.033647,2.383667,-0.100462,-0.003377,0.946031,0.951356,0
7.671978,0.027921,2.410772,-0.035297,-0.016886,0.948712,0.949518,0
7.699504,0.027525,2.450312,-0.02888,0.001214,0.981611,0.982036,0
7.734167,0.034663,2.48834,-0.007652,0.017238,0.996233,0.996411,0
7.769194,0.035027,2.520872,-0.025177,-0.013991,0.876821,0.877294,0
7.801069,0.031875,2.54785,-0.011601,-0.023158,0.897535,0.897909,0
7.828905,0.027836,2.576379,0.032003,-0.003136,0.950661,0.951205,0
7.857022,0.028117,2.613979,0.072976,0.027436,1.026695,1.029651,0
7.88855,0.031528,2.645367,0.081704,0.048801,1.032787,1.037163,0
7.91598,0.02743,2.676259,0.093584,0.061669,0.976006,0.98242,0
7.943609,0.027629,2.716238,0.062551,0.006555,0.931409,0.93353,0
7.974819,0.03121,2.748144,0.051883,0.017967,0.936283,0.937892,0
8.002361,0.027542,2.774176,0.024972,0.057542,0.900947,0.903128,0
8.029988,0.027627,2.806763,0.109586,0.033505,0.899972,0.907239,0
8.064813,0.034825,2.83778,0.093827,-0.010614,0.908014,0.912911,0
8.09982,0.035007,2.856904,0.109343,-0.004342,0.914107,0.920634,0
8.131221,0.031401,2.868522,0.125829,-0.116995,0.912401,0.928438,0
8.159098,0.027877,2.87761,0.077825,-0.120613,0.932384,0.943369,0
8.186978,0.02788,2.882379,0.07831,-0.12785,0.983561,0.994922,0
8.218351,0.031373,2.878379,0.084129,-0.138464,1.03888,1.051437,0
8.246294,0.027943,2.87397,0.11201,-0.115547,1.128804,1.140217,0
8.274183,0.027889,2.868827,0.092857,-0.043662,1.200694,1.205071,1
8.305615,0.031432,2.859555,0.024972,-0.005548,1.217753,1.218022,0
8.333449,0.027834,2.855129,-0.016044,-0.046315,1.240417,1.241385,0
8.363501,0.030052,2.85077,-0.05381,0.020395,1.140257,1.141709,0
8.387875,0.024374,2.840677,-0.030361,0.058999,1.088594,1.090614,0
8.419243,0.031368,2.825858,-0.001481,0.033263,0.962359,0.962935,0
8.447144,0.027901,2.811957,0.013092,-0.022916,0.811023,0.811452,0
8.474845,0.027702,2.802047,-0.01876,-0.04921,0.861712,0.86332,0
8.505908,0.031062,2.796749,-0.088614,-0.030636,0.910695,0.915509,0
8.533622,0.027715,2.794847,-0.102684,0.030106,0.990871,0.996633,0
8.561331,0.027709,2.796801,-0.026658,0.065797,1.064712,1.067076,0
8.592588,0.031257,2.798824,-0.038506,0.11994,1.040342,1.047941,0
8.620353,0.027766,2.795322,-0.08738,0.071381,0.95651,0.963142,0
8.648112,0.027758,2.785487,-0.056032,0.009469,0.868779,0.870636,0
8.679469,0.031357,2.77412,-0.009873,0.008012,0.812485,0.812585,0
8.708463,0.028995,2.760806,0.020123,0.042731,0.914107,0.915326,0
8.743365,0.034902,2.751284,0.095524,0.055842,0.947981,0.954416,0
8.778201,0.034835,2.744204,0.105949,0.078908,0.969913,0.978869,0
8.813329,0.035129,2.737793,0.077825,0.055599,0.93214,0.937035,0
8.844723,0.031394,2.726878,0.051399,0.018452,0.920199,0.921818,0
8.873123,0.0284,2.71296,0.049459,0.002671,0.908989,0.910338,0
8.900921,0.027798,2.696744,0.127284,-0.001206,0.924098,0.932824,0
8.932317,0.031396,2.680948,0.162924,0.015053,0.912401,0.926955,0
8.96015,0.027833,2.665732,0.194684,0.001457,0.898023,0.918885,0
8.987901,0.027752,2.654872,0.21214,0.000728,0.937745,0.961442,0
9.019331,0.03143,2.646282,0.185714,0.061427,0.996964,1.015972,0
9.047082,0.027751,2.636768,0.083401,0.004613,1.118812,1.121926,0
9.074921,0.027839,2.619607,0.055035,0.008498,1.162921,1.164254,0
9.106153,0.031231,2.602115,0.03176,0.008012,1.146594,1.147061,0
9.134195,0.028043,2.58807,0.013577,-0.06103,1.141963,1.143674,0
9.162035,0.02784,2.576536,-0.126627,-0.012544,1.149762,1.156782,0
9.194784,0.032749,2.566518,-0.121196,0.019909,1.169014,1.175448,0
9.222409,0.027625,2.554496,-0.064424,0.043217,1.074216,1.077013,0
9.253696,0.031287,2.541006,-0.041715,0.028407,1.000863,1.002135,0
9.281534,0.027838,2.527367,0.017699,-0.003136,0.941157,0.941329,0
9.30916,0.027625,2.513128,-0.002222,-0.038114,0.88925,0.890069,0
9.344318,0.035158,2.500245,-0.059487,-0.046798,0.907527,0.910678,0
9.377426,0.033108,2.489584,-0.071336,-0.041973,0.938477,0.942119,0
9.405522,0.028096,2.480067,-0.022215,-0.029671,1.008905,1.009586,0
9.43695,0.031428,2.476659,-0.000494,-0.029912,1.000619,1.001066,0
9.464638,0.027687,2.47543,-0.008146,-0.022916,0.978443,0.978745,0
9.49235,0.027712,2.477646,-0.037519,-0.022434,0.95188,0.952883,0
9.523489,0.03114,2.477131,-0.067386,0.000728,0.950418,0.952804,0
9.551081,0.027592,2.474886,-0.05381,0.051229,0.956023,0.958905,0
9.578955,0.027874,2.472836,0.01285,0.038361,0.950905,0.951765,0
9.610315,0.031359,2.473162,0.016971,0.016267,0.899729,0.900036,0
9.638071,0.027756,2.475502,0.011637,-0.003377,0.922393,0.922472,0
9.665937,0.027866,2.478529,0.027396,0.019423,0.971619,0.9722,0
9.697473,0.031536,2.480414,0.04364,0.033263,0.996964,0.998473,0
9.725425,0.027951,2.48509,0.063763,-0.0,0.984048,0.986112,0
9.758798,0.033373,2.492231,0.082674,-0.061513,0.983804,0.989186,0
9.786287,0.027489,2.499786,0.05649,-0.000241,0.960166,0.961826,0
9.813874,0.027587,2.504648,0.052853,0.026222,0.962602,0.964409,0
9.848581,0.034707,2.508757,0.102555,0.011654,0.990871,0.996233,0
9.880789,0.032208,2.514374,0.107888,-0.005789,0.968451,0.974459,0
9.908596,0.027807,2.518879,0.072976,-0.0,0.954804,0.957589,0
9.936351,0.027755,2.520333,0.05746,-0.003136,0.956266,0.957996,0
9.967797,0.031446,2.517905,0.056975,0.01214,0.998913,1.000611,0
9.99553,0.027733,2.515332,0.103524,0.023065,1.111989,1.117035,0
10.023303,0.027773,2.517676,0.018911,0.017238,1.101997,1.102294,0
10.054595,0.031292,2.517896,-0.030608,0.069196,1.111501,1.114074,0
10.082434,0.027839,2.5177,-0.00543,0.061427,1.07714,1.078904,0
10.110208,0.027773,2.523483,0.024002,0.053172,1.017922,1.019592,0
10.141604,0.031396,2.531629,-0.018266,0.116783,0.998182,1.005157,0
10.169557,0.027953,2.534965,-0.103671,0.087891,0.995014,1.004254,0
10.197305,0.027749,2.535609,-0.075038,0.051472,0.979174,0.983393,0
10.230666,0.033361,2.53879,-0.025177,0.01651,1.000376,1.000828,0
10.258495,0.027828,2.545697,-0.062449,0.054143,1.017678,1.021029,0
10.289596,0.031102,2.550329,-0.060228,0.072838,0.999888,1.004345,0
10.317109,0.027512,2.554716,-0.055538,0.049044,0.960897,0.963749,0
10.344821,0.027712,2.559182,-0.082196,0.055357,0.937258,0.942483,0
10.380906,0.036085,2.559992,-0.065165,0.050258,0.92946,0.933096,0
10.412372,0.031465,2.562413,-0.023696,0.053414,0.97235,0.974105,0
10.447265,0.034894,2.56601,0.002182,0.036662,0.997451,0.998127,0
10.474905,0.027639,2.567468,-0.021475,0.064097,1.007199,1.009465,0
10.509493,0.034589,2.566011,-0.012589,0.031077,0.99867,0.999232,0
10.544188,0.034694,2.568161,0.007516,0.010926,0.936527,0.936621,0
10.579062,0.034874,2.569996,-0.000741,0.045402,0.999644,1.000675,0
10.6139,0.034839,2.566048,-0.007405,0.073566,1.00793,1.010638,0
10.648707,0.034806,2.566235,0.048247,0.030592,0.936527,0.938268,0
10.683594,0.034887,2.566462,0.022547,0.041032,0.994527,0.995628,0
10.718477,0.034883,2.561106,0.013577,0.051229,0.93604,0.937539,0
10.754179,0.035702,2.556669,0.003152,0.010683,0.975518,0.975582,0
10.785619,0.031441,2.551644,0.00097,0.017967,0.972838,0.973004,0
10.813727,0.028108,2.546406,0.028366,0.013596,0.971132,0.971641,0
10.841652,0.027925,2.545282,0.045095,-0.009408,0.958947,0.960053,0
10.874318,0.032666,2.545459,0.03273,0.028407,1.045947,1.046844,0
10.902347,0.028029,2.542942,0.017941,0.063126,1.000863,1.003012,0
10.933788,0.031441,2.540046,0.028851,0.042731,0.969913,0.971283,0
10.961699,0.027912,2.539235,0.013577,0.02695,0.9743,0.974767,0
10.989311,0.027611,2.538664,0.037822,0.034962,0.979905,0.981258,0
11.020462,0.031151,2.540735,0.047035,0.015539,0.977712,0.978966,0
11.048057,0.027596,2.542974,0.054308,0.029621,1.000132,1.002043,0
11.075994,0.027937,2.546824,0.053338,0.01481,1.011829,1.013342,0
11.10742,0.031426,2.546939,0.022063,0.016024,0.993552,0.993926,0
11.135297,0.027877,2.547243,0.024245,0.002671,1.048871,1.049155,0
11.163281,0.027985,2.548891,0.052368,0.005584,0.993796,0.99519,0
11.19476,0.031478,2.547599,0.026669,0.016024,0.988922,0.989411,0
11.222814,0.028055,2.542191,0.025214,0.02695,0.979418,0.980113,0
11.257777,0.034963,2.540601,0.057945,0.015053,0.976493,0.978327,0
11.29276,0.034983,2.540366,0.047519,0.011168,0.978199,0.979416,0
11.327721,0.034961,2.536425,0.03273,0.038604,1.060081,1.061289,0
11.363784,0.036063,2.532594,0.034185,-0.002653,0.971619,0.972224,0
11.399333,0.035549,2.531213,0.040246,0.005827,0.985997,0.986836,0
11.424013,0.02468,2.528688,0.039034,0.020395,0.998182,0.999153,0
11.455619,0.031605,2.526092,0.028366,0.019666,0.992334,0.992934,0
11.483106,0.027487,2.524884,0.034912,0.004127,0.985266,0.985893,0
11.510595,0.027489,2.521827,0.018668,0.042731,1.002325,1.003409,0
11.545188,0.034593,2.517049,0.032488,0.050744,1.000376,1.002188,0
11.58008,0.034891,2.515635,0.055035,0.015053,0.982342,0.983998,0
11.611611,0.031531,2.516106,0.043155,0.035933,0.991115,0.992705,0
11.641011,0.0294,2.514417,0.038791,0.051958,0.996233,0.998341,0
11.672589,0.031578,2.513547,0.042186,0.035205,0.977712,0.979254,0
11.700665,0.028076,2.513733,0.044125,0.044188,0.993552,0.995513,0
11.728553,0.027888,2.514313,0.035882,0.037876,0.983561,0.984943,0
11.759962,0.031409,2.515015,0.027154,0.034234,0.995745,0.996704,0
11.787781,0.027819,2.514541,0.029094,0.035448,1.002325,1.003374,0
11.81585,0.028069,2.514512,0.039519,0.025979,0.990871,0.991999,0
11.84721,0.03136,2.514624,0.030306,0.029378,0.990871,0.99177,0
11.873513,0.026303,2.514322,0.033942,0.03132,0.980149,0.981236,0
11.901599,0.028085,2.514974,0.043883,0.023551,0.973325,0.974599,0
11.936726,0.035127,2.515622,0.037337,0.036419,0.990628,0.992,0
11.968408,0.031682,2.515634,0.032973,0.027436,0.989653,0.990582,0
11.996474,0.028066,2.516659,0.046307,0.013839,0.993065,0.99424,0
12.024448,0.027974,2.517094,0.027639,0.03739,0.999157,1.000238,0
12.055935,0.031487,2.516364,0.027154,0.02695,0.985754,0.986496,0
12.083954,0.028019,2.516436,0.043883,0.016753,0.97235,0.973484,0
12.113273,0.029319,2.517447,0.048974,0.023308,0.981855,0.983352,0
12.138023,0.02475,2.517516,0.027154,0.032534,0.982829,0.983743,0
12.169721,0.031698,2.516531,0.018911,0.021609,0.999157,0.99957,0
12.205148,0.035426,2.515716,0.033942,0.035933,1.006224,1.007438,0
12.23307,0.027922,2.514592,0.025457,0.03739,0.999401,1.000424,0
12.264535,0.031465,2.514545,0.041943,0.026464,0.992334,0.993572,0
12.292592,0.028057,2.515246,0.038064,0.036662,0.98746,0.988873,0
12.320494,0.027902,2.515573,0.026427,0.039818,0.991359,0.99251,0
12.352114,0.03162,2.515715,0.030306,0.034234,0.985754,0.986813,0
12.382375,0.03026,2.516391,0.047035,0.034477,0.994283,0.995992,0
12.408721,0.026346,2.517275,0.037822,0.032777,0.989653,0.990918,0
12.433492,0.024771,2.518212,0.035397,0.02695,0.994771,0.995765,0
12.46481,0.031318,2.519016,0.040488,0.028892,0.999888,1.001125,0
12.492095,0.027284,2.519081,0.02279,0.029378,0.98746,0.988159,0
12.519406,0.027311,2.518625,0.025214,0.037633,0.985754,0.986794,0
12.553705,0.0343,2.518923,0.038306,0.037876,0.999401,1.000852,0
12.581896,0.02819,2.518713,0.02279,0.049044,0.997451,0.998916,0
12.613662,0.031766,2.520745,0.0337,0.019909,0.975275,0.97606,0
12.648921,0.035259,2.522016,0.031033,0.030106,0.983561,0.98451,0
12.676982,0.028062,2.522696,0.031276,0.045888,1.004031,1.005566,0
12.708647,0.031665,2.523337,0.036367,0.033748,0.993796,0.995033,0
12.736542,0.027895,2.524335,0.0337,0.020152,0.978687,0.979474,0
12.764749,0.028207,2.524496,0.025214,0.027678,0.985997,0.986708,0
12.796586,0.031837,2.524157,0.045822,0.030592,1.006712,1.008218,0
12.824593,0.028007,2.52384,0.031518,0.027921,0.986485,0.987383,0
12.85683,0.032237,2.524075,0.032245,0.024279,0.981611,0.98244,0
12.885682,0.028852,2.523787,0.04364,0.042974,0.988191,0.990087,0
12.91737,0.031688,2.524038,0.031276,0.037633,0.994039,0.995243,0
12.945227,0.027857,2.523367,0.031518,0.024522,0.993796,0.994598,0
12.973168,0.027941,2.522183,0.036124,0.009469,0.987216,0.987922,0
13.00464,0.031472,2.521631,0.041458,0.011411,0.997207,0.998134,0
13.032525,0.027885,2.520636,0.048732,0.027436,0.998182,0.999748,0
13.067501,0.034976,2.519814,0.043398,0.02865,0.999401,1.000753,0
13.10244,0.034939,2.51992,0.033458,0.023308,1.005493,1.00632,0
13.137324,0.034884,2.519088,0.021093,0.033505,0.980392,0.981192,0
13.172345,0.035021,2.518403,0.022305,0.02865,0.970888,0.971567,0
13.204474,0.032129,2.518251,0.049459,0.038118,1.002081,1.004025,0
13.232815,0.028341,2.51801,0.034912,0.030835,0.983561,0.984663,0
13.268015,0.0352,2.519152,0.032488,0.026464,0.981124,0.982018,0
13.302994,0.034979,2.521096,0.039034,0.043703,1.009149,1.010849,0
13.33438,0.031386,2.521828,0.032003,0.042974,1.001107,1.002539,0
13.362414,0.028034,2.52275,0.024487,0.02088,0.990384,0.990907,0
13.390481,0.028067,2.523512,0.030306,0.02695,0.987703,0.988536,0
13.424393,0.033912,2.52304,0.027396,0.035448,0.987947,0.988962,0
13.459929,0.035536,2.522417,0.036367,0.031563,0.995745,0.996909,0
13.491488,0.031559,2.521601,0.028609,0.034234,0.98088,0.981894,0
13.519118,0.02763,2.52038,0.034912,0.035205,0.994039,0.995275,0
13.546707,0.027588,2.520358,0.042913,0.016024,0.985266,0.986331,0
13.578015,0.031309,2.52125,0.045337,0.038361,1.009149,1.010895,0
13.605846,0.02783,2.521827,0.032973,0.03132,1.003787,1.004817,0
13.633671,0.027825,2.52214,0.030063,0.021123,0.994771,0.995449,0
13.665033,0.031363,2.52259,0.035155,0.016753,0.976981,0.977756,0
13.693209,0.028176,2.522965,0.026184,0.034477,1.050577,1.051469,0
13.721441,0.028232,2.522859,0.032488,0.032291,0.997695,0.998746,0
13.752732,0.031291,2.522807,0.023032,0.017724,0.971863,0.972297,0
13.78065,0.027918,2.522244,0.017214,0.021366,0.977955,0.97834,0
13.810443,0.029794,2.522016,0.035155,0.027921,0.999157,1.000165,0
13.841848,0.031405,2.521327,0.0337,0.036419,0.994283,0.99552,0
13.877467,0.035619,2.520499,0.028609,0.028164,0.984535,0.985353,0
13.909241,0.031774,2.520161,0.032488,0.031077,0.999644,1.000655,0
13.937312,0.028071,2.520103,0.046065,0.035933,0.93604,0.937861,0
13.96538,0.028068,2.521113,0.03176,0.029135,0.979661,0.980609,0
13.996588,0.031208,2.521791,0.034912,0.032291,0.993796,0.994933,0
14.024247,0.027659,2.522804,0.041943,0.024036,1.00135,1.002517,0
14.051923,0.027676,2.525297,0.023517,0.019423,1.007199,1.007661,0
14.083368,0.031445,2.524583,0.016001,0.042974,0.999644,1.000696,0
14.111319,0.027951,2.52403,0.028366,0.017238,0.986972,0.98753,0
14.139199,0.027881,2.523362,0.024729,0.023308,0.982586,0.983173,0
14.17056,0.031361,2.522625,0.020365,0.025493,0.983073,0.983614,0
14.198521,0.027961,2.522027,0.026911,0.032049,0.993796,0.994676,0
14.233716,0.035195,2.521379,0.027154,0.033748,0.995502,0.996444,0
14.268848,0.035132,2.520858,0.024002,0.030835,1.054233,1.054957,0
14.300342,0.031494,2.520705,0.046065,0.047587,1.039854,1.041961,0
14.328309,0.027967,2.520635,0.019881,0.025979,1.010123,1.010653,0
14.356225,0.027916,2.521146,0.008001,0.003156,0.979661,0.979699,0
14.388414,0.032189,2.520382,0.010183,0.017724,0.98088,0.981093,0
14.423409,0.034995,2.520397,0.030306,0.022094,0.982342,0.983058,0
14.460949,0.03754,2.520582,0.014304,0.030106,0.980149,0.980715,0
14.492266,0.031318,2.519997,0.013819,0.026707,0.994527,0.994981,0
14.519967,0.0277,2.519351,0.024487,0.042489,1.001838,1.003037,0
14.547641,0.027674,2.518847,0.019638,0.042003,0.979905,0.981001,0
14.578876,0.031235,2.517888,0.015759,0.029863,0.981611,0.982191,0
14.60682,0.027945,2.517778,0.014789,0.050258,1.004275,1.00564,0
14.634735,0.027915,2.514295,0.023517,0.05827,0.998913,1.000888,0
14.666146,0.031411,2.513487,0.031033,0.031806,0.992821,0.993815,0
14.694153,0.028007,2.513318,0.045095,0.049772,1.007686,1.009922,0
14.722144,0.027992,2.510811,0.033458,0.036176,0.990384,0.991609,0
14.754312,0.032167,2.508888,0.039276,0.034719,0.992821,0.994204,0
14.782529,0.028218,2.509228,0.042186,0.010926,0.963334,0.964319,0
14.81503,0.032501,2.507241,0.028609,0.02695,0.98746,0.988242,0
14.842748,0.027719,2.505166,0.055763,0.022823,0.991602,0.993431,0
14.877973,0.035225,2.502724,0.003879,0.052929,0.951636,0.953115,0
14.909573,0.031599,2.49956,0.049217,0.111442,1.168526,1.17486,0
