timestamp,dt,heading_rad,accel_x,accel_y,accel_z,accel_norm,step_event
0.001192,0.001192,2.078439,-0.044677,0.102944,1.010123,1.016338,0
0.134835,0.133643,2.079393,-0.022462,0.11654,0.991359,0.998438,0
0.171741,0.036906,2.078765,-0.027152,0.11217,0.999888,1.006527,0
0.205657,0.033916,2.077933,-0.029373,0.115326,1.002325,1.009366,0
0.242755,0.037098,2.076671,-0.019994,0.120425,0.97625,0.983852,0
0.275018,0.032262,2.076888,-0.018019,0.132079,0.971376,0.98048,0
0.313287,0.03827,2.076907,-0.027892,0.117512,0.99867,1.005946,0
0.343581,0.030294,2.079149,-0.026411,0.120425,1.027913,1.03528,0
0.381876,0.038295,2.081294,-0.01012,0.124067,1.017434,1.025021,0
0.414684,0.032808,2.08294,-0.02419,0.102458,1.004031,1.009535,0
0.45078,0.036096,2.083257,-0.022462,0.09736,0.998426,1.003413,0
0.488576,0.037795,2.082137,-0.042456,0.118968,1.0033,1.01122,0
0.520315,0.031739,2.081813,-0.025177,0.102944,0.994283,0.999915,0
0.553236,0.032921,2.080669,-0.026165,0.109014,1.010367,1.016568,0
0.58969,0.036455,2.080049,-0.015551,0.118483,1.00793,1.014989,0
0.624338,0.034647,2.07922,-0.0195,0.112899,1.001107,1.007641,0
0.65112,0.026782,2.077464,-0.023696,0.104886,1.00525,1.010984,0
0.683072,0.031953,2.075189,-0.027646,0.100759,1.000132,1.005575,0
0.718444,0.035371,2.073612,-0.021968,0.105858,1.000376,1.006201,0
0.752923,0.034479,2.072842,-0.021722,0.106343,1.001594,1.007458,0
0.785567,0.032644,2.072093,-0.019994,0.1078,1.002569,1.008546,0
0.813722,0.028155,2.07086,-0.021968,0.108528,1.004518,1.010603,0
0.846662,0.03294,2.068536,-0.018266,0.104886,1.004275,1.009902,0
0.88755,0.040889,2.067878,-0.002962,0.110713,1.002081,1.008183,0
0.919635,0.032084,2.066338,-0.025424,0.101002,1.0033,1.008691,0
0.962099,0.042464,2.064276,-0.030608,0.105858,1.003056,1.009091,0
1.000523,0.038424,2.062916,-0.022709,0.110228,1.001594,1.007897,0
1.030333,0.02981,2.061713,-0.020487,0.1078,1.000619,1.006618,0
1.066314,0.03598,2.060835,-0.013329,0.107314,0.998913,1.00475,0
1.105762,0.039449,2.060672,-0.016785,0.113141,1.00135,1.007862,0
1.138875,0.033113,2.059721,-0.029127,0.104158,1.002813,1.008628,0
1.194051,0.055176,2.058678,-0.021722,0.11217,1.006224,1.01269,0
1.23197,0.03792,2.058502,-0.018266,0.114113,1.006468,1.013081,0
1.271955,0.039984,2.057406,-0.022956,0.117026,0.999157,1.006249,0
1.319978,0.048024,2.056388,-0.017278,0.112656,0.995745,1.002247,0
1.356961,0.036983,2.054968,-0.032582,0.115326,1.006955,1.014062,0
1.396327,0.039366,2.053787,-0.02962,0.111199,1.01646,1.022953,0
1.433527,0.037201,2.052506,-0.023943,0.119454,1.004762,1.012121,0
1.47604,0.042513,2.051702,-0.022462,0.117026,1.000619,1.00769,0
1.512784,0.036744,2.051286,-0.021228,0.11387,0.999401,1.006091,0
1.547925,0.03514,2.051671,-0.023449,0.115569,0.999401,1.006334,0
1.584619,0.036694,2.052029,-0.021228,0.113627,0.999401,1.006063,0
1.617377,0.032758,2.052418,-0.022709,0.112656,1.004031,1.010587,0
1.648105,0.030728,2.053047,-0.022462,0.108771,1.003787,1.009913,0
1.676828,0.028723,2.053484,-0.026905,0.111442,0.998913,1.005471,0
1.711674,0.034846,2.053814,-0.025671,0.112656,1.005737,1.012352,0
1.751131,0.039457,2.05366,-0.020981,0.110228,0.999644,1.005922,0
1.788486,0.037355,2.053934,-0.022709,0.112899,0.998182,1.004803,0
1.825641,0.037155,2.054316,-0.028633,0.108771,0.999157,1.005468,0
1.860456,0.034814,2.054207,-0.020734,0.114598,1.00135,1.0081,0
1.906436,0.045981,2.053864,-0.026165,0.11387,1.011098,1.017826,0
1.943941,0.037505,2.053422,-0.02888,0.114598,1.002325,1.009268,0
1.975823,0.031882,2.053313,-0.022462,0.11217,0.991602,0.998179,0
2.007932,0.032109,2.053465,-0.027152,0.108771,0.99672,1.003005,0
2.047917,0.039985,2.053453,-0.024437,0.109257,1.002813,1.009043,0
2.073745,0.025828,2.053393,-0.017525,0.11387,1.002569,1.009167,0
2.124739,0.050994,2.053122,-0.025671,0.108285,1.002813,1.008969,0
2.163893,0.039154,2.053128,-0.021722,0.109257,0.997207,1.00341,0
2.201787,0.037894,2.0528,-0.026905,0.114598,1.00135,1.008246,0
2.234471,0.032684,2.051836,-0.030608,0.110228,1.000132,1.006653,0
2.266026,0.031555,2.052116,-0.01407,0.118483,1.000619,1.007708,0
2.300108,0.034082,2.052671,-0.027892,0.109742,1.006955,1.013302,0
2.332783,0.032675,2.051832,-0.027892,0.111685,1.001107,1.007703,0
2.361674,0.028891,2.050801,-0.019006,0.116783,0.999157,1.006138,0
2.395308,0.033634,2.050345,-0.017525,0.121396,0.999644,1.007141,0
2.43327,0.037962,2.050137,-0.022215,0.117997,1.002081,1.009249,0
2.477118,0.043848,2.049353,-0.031101,0.109257,0.994283,1.000751,0
2.514753,0.037635,2.046081,-0.052823,0.093232,1.012317,1.017972,0
2.548083,0.03333,2.044063,-0.033816,0.099545,0.98551,0.991102,0
2.579378,0.031295,2.043547,-0.017032,0.123096,1.00988,1.017497,0
2.613992,0.034614,2.041281,-0.027399,0.114841,1.019384,1.026198,0
2.658049,0.044056,2.03899,-0.015304,0.123581,0.940913,0.949118,0
2.691743,0.033694,2.040284,-0.002222,0.113384,0.983317,0.989835,0
2.732135,0.040392,2.039939,-0.035297,0.101245,1.009392,1.015071,0
2.762477,0.030342,2.038918,-0.024437,0.096874,1.002569,1.007535,0
2.795925,0.033448,2.037142,-0.033816,0.115326,0.999157,1.006359,0
2.824019,0.028094,2.034237,-0.022709,0.112656,0.999644,1.006229,0
2.868396,0.044377,2.031018,-0.015797,0.064826,1.008174,1.010379,0
2.910234,0.041837,2.029132,-0.010861,0.105372,0.988191,0.993852,0
2.945314,0.03508,2.028722,-0.024684,0.129408,1.007199,1.015778,0
2.978152,0.032838,2.029127,-0.015551,0.11217,0.997451,1.003859,0
3.008945,0.030793,2.028451,-0.034557,0.113384,1.00135,1.008342,0
3.043913,0.034967,2.028341,-0.01407,0.120668,1.014023,1.021274,0
3.067994,0.024081,2.028613,-0.012835,0.119211,1.004518,1.011649,0
3.099042,0.031048,2.027053,-0.037519,0.1078,0.999401,1.005898,0
3.131397,0.032354,2.025726,-0.019747,0.105372,0.994527,1.000288,0
3.160444,0.029047,2.024855,-0.006665,0.120911,0.999644,1.006952,0
3.189238,0.028794,2.022289,-0.024437,0.114113,1.00793,1.014664,0
3.221214,0.031976,2.019532,-0.038013,0.113141,1.003056,1.010132,0
3.255247,0.034034,2.018445,-0.017278,0.114598,1.006712,1.013361,0
3.301549,0.046301,2.018152,-0.022462,0.116783,0.99672,1.00379,0
3.338942,0.037393,2.017868,-0.0195,0.118483,0.999157,1.006346,0
3.37135,0.032408,2.017562,-0.026905,0.114598,0.937989,0.945347,0
3.41245,0.041101,2.018457,-0.016291,0.1061,1.000376,1.006118,0
3.452691,0.040241,2.018737,-0.020241,0.1061,1.000132,1.005948,0
3.486818,0.034127,2.018519,-0.021722,0.112656,0.999157,1.005723,0
3.5199,0.033082,2.017953,-0.032582,0.115084,1.000376,1.0075,0
3.556456,0.036556,2.018008,-0.021968,0.109499,0.998426,1.004653,0
3.590607,0.034151,2.017593,-0.032335,0.117512,1.001838,1.009224,0
3.627486,0.03688,2.016964,-0.033076,0.111199,1.012317,1.018943,0
3.661174,0.033687,2.016599,-0.018266,0.109742,1.020359,1.026406,0
3.692523,0.031349,2.016968,-0.021475,0.123096,1.021821,1.029433,0
3.727477,0.034954,2.0173,-0.040234,0.107314,0.993065,0.999656,0
3.765905,0.038428,2.0237,-0.019006,0.109985,1.017191,1.023296,0
3.805369,0.039464,2.026383,-0.017772,0.168984,0.997695,1.01206,0
3.842597,0.037228,2.034137,0.01091,0.072352,1.0033,1.005965,0
3.879898,0.037301,2.039724,0.040004,0.099788,1.025233,1.030854,0
3.916578,0.03668,2.040593,0.012365,0.085463,1.037661,1.041248,0
3.948998,0.03242,2.038022,-0.00543,0.064583,0.991359,0.993475,0
3.984304,0.035306,2.033233,-0.041468,0.055842,0.999157,1.001575,0
4.020008,0.035703,2.022732,-0.034804,0.076722,0.960166,0.963855,0
4.058818,0.03881,2.020373,0.056975,0.356662,0.570251,0.675011,0
4.108176,0.049359,2.029115,0.087523,0.213172,1.035712,1.061038,0
4.136502,0.028326,2.042344,0.026669,0.064097,0.873166,0.875921,0
4.184158,0.047656,2.050153,-0.137734,0.07915,1.037661,1.049751,0
4.243343,0.059185,2.064824,0.086796,0.154902,1.0033,1.018891,0
4.285304,0.041961,2.06866,-0.026165,0.097117,1.004762,1.009784,0
4.322217,0.036912,2.061683,-0.09207,0.068225,0.976981,0.983678,0
4.36038,0.038163,2.055436,-0.042949,0.129408,0.979174,0.988622,0
4.401272,0.040892,2.057232,0.017699,0.183308,0.955292,0.972881,0
4.434877,0.033605,2.069976,0.027639,0.169712,0.976006,0.991037,0
4.472495,0.037618,2.086568,0.011395,0.125038,0.997695,1.005564,0
4.506454,0.033959,2.100121,-0.015551,0.088376,1.033031,1.036921,0
4.538166,0.031713,2.108067,-0.026165,0.115569,1.072754,1.079278,0
4.57301,0.034844,2.115873,-0.028139,0.11994,1.062762,1.069879,0
4.608573,0.035563,2.118215,-0.014316,0.166798,1.043754,1.057094,0
4.642042,0.033469,2.130948,0.020123,0.182823,1.007443,1.024095,0
4.696401,0.054358,2.141479,0.005334,0.160971,0.963334,0.976705,0
4.731261,0.034861,2.153849,-0.0,0.136449,0.923124,0.933154,0
4.767998,0.036736,2.168951,-0.001234,0.133536,0.950661,0.959995,0
4.804394,0.036397,2.18184,0.019396,0.142276,0.997695,1.007975,0
4.844421,0.040026,2.201581,0.065218,0.105858,1.012073,1.019682,0
4.883523,0.039102,2.219409,0.01188,0.065797,1.044728,1.046866,0
4.919951,0.036428,2.230836,0.053096,0.087405,1.089812,1.0946,0
4.94853,0.028579,2.241839,0.011637,0.101487,1.11272,1.117399,0
4.981416,0.032886,2.254551,0.011395,0.089833,1.03693,1.040876,0
5.018936,0.03752,2.263748,0.038549,0.076965,0.987216,0.990962,0
5.051776,0.03284,2.273381,0.037094,0.001457,0.952367,0.953091,0
5.08751,0.035735,2.279138,0.050186,0.075023,0.95651,0.960759,0
5.117755,0.030245,2.281925,0.075643,0.09299,0.915325,0.923141,0
5.14794,0.030185,2.286835,0.085099,0.069681,0.868779,0.875714,0
5.18128,0.03334,2.293977,0.091887,0.062883,0.877552,0.884588,0
5.219067,0.037787,2.299233,0.117586,0.069439,0.885351,0.89582,0
5.259985,0.040918,2.301626,0.157832,0.088619,0.908746,0.926597,0
5.290895,0.03091,2.300163,0.161711,0.094932,0.966014,0.984046,0
5.325315,0.03442,2.295568,0.176743,0.082307,1.029132,1.047437,0
5.358578,0.033263,2.29173,0.201957,0.073081,1.118569,1.139001,0
5.392686,0.034108,2.282001,0.129224,0.103915,1.234325,1.245413,1
5.432852,0.040165,2.271251,0.104009,0.122367,1.289644,1.299605,0
5.460679,0.027827,2.261731,0.047277,0.120668,1.227257,1.234081,0
5.500089,0.03941,2.254956,-0.070595,0.028164,1.179493,1.181939,0
5.547592,0.047503,2.254623,-0.190063,0.120425,1.422459,1.440144,0
5.587035,0.039443,2.242988,-0.229557,0.152474,1.367627,1.395116,0
5.62851,0.041475,2.227755,-0.140203,0.074295,1.028157,1.040328,0
5.664045,0.035535,2.211392,-0.017278,0.046131,0.84051,0.841953,0
5.704012,0.039967,2.198514,-0.022709,0.031806,0.811754,0.812694,0
5.744796,0.040784,2.185127,-0.049367,0.012625,0.79104,0.792679,0
5.78229,0.037494,2.170357,-0.039741,0.002914,0.777149,0.77817,0
5.820167,0.037877,2.162593,-0.02493,0.003885,0.835636,0.836017,0
5.85408,0.033914,2.15807,-0.023203,0.000971,0.925561,0.925852,0
5.89275,0.03867,2.155262,-0.008146,0.03132,0.947493,0.948046,0
5.923704,0.030954,2.152956,0.008728,0.065068,0.970888,0.973105,0
5.956402,0.032698,2.151722,0.059399,0.059484,0.90704,0.910927,0
5.9914,0.034998,2.148776,0.068127,0.024522,0.869267,0.872277,0
6.024912,0.033513,2.144131,0.098675,0.018938,0.883157,0.888855,0
6.063109,0.038197,2.140584,0.156378,0.021851,0.950905,0.963925,0
6.093823,0.030714,2.133194,0.104737,-0.002653,1.033762,1.039058,0
6.139948,0.046125,2.121409,0.086068,0.010683,1.080796,1.08427,0
6.167234,0.027285,2.105023,0.076613,0.030106,1.109308,1.112358,0
6.198487,0.031253,2.086543,0.05552,0.038361,1.114426,1.116467,0
6.234379,0.035892,2.078871,0.027881,0.026464,1.181199,1.181824,1
6.269802,0.035423,2.083641,-0.044184,0.007769,1.286719,1.287501,0
6.309219,0.039417,2.079272,-0.166614,0.045402,1.201669,1.214014,0
6.342038,0.03282,2.072432,-0.081209,0.013596,0.983561,0.987001,0
6.374122,0.032084,2.062805,-0.107374,-0.019781,0.94993,0.956184,0
6.406973,0.032851,2.046122,-0.072323,0.001457,0.933603,0.936401,0
6.4467,0.039726,2.041705,0.016244,0.001457,0.92483,0.924973,0
6.478267,0.031567,2.044986,0.0337,-0.018816,0.922149,0.922956,0
6.514517,0.03625,2.045171,-0.052329,-0.012303,0.875115,0.876765,0
6.547071,0.032554,2.0494,0.015759,-0.007237,0.947737,0.947896,0
6.586265,0.039194,2.053519,0.003637,-0.029912,0.965771,0.966241,0
6.617166,0.030901,2.046837,-0.05381,-0.032324,0.92946,0.931577,0
6.651456,0.03429,2.034597,0.029094,-0.033772,0.886569,0.887689,0
6.689896,0.03844,2.024839,0.075401,-0.060548,0.894124,0.899338,0
6.723914,0.034019,2.008507,0.055278,-0.060789,0.966745,0.970231,0
6.754107,0.030193,1.994572,0.12292,-0.030877,1.016703,1.024572,0
6.784055,0.029947,1.984367,0.111525,-0.04728,1.064468,1.071338,0
6.809408,0.025354,1.967086,0.019881,-0.048486,1.13319,1.134401,0
6.841558,0.03215,1.946351,0.001455,-0.05307,1.128804,1.130052,0
6.869143,0.027584,1.921014,0.000242,-0.040043,1.127098,1.127809,0
6.904253,0.03511,1.906829,-0.013823,-0.016162,1.172913,1.173106,0
6.928107,0.023854,1.902363,-0.017032,0.019666,1.249921,1.250192,1
6.963932,0.035825,1.89977,-0.059981,0.053414,1.217509,1.220156,0
6.987664,0.023732,1.899948,-0.04443,0.048801,1.10809,1.110053,0
7.014278,0.026613,1.904413,-0.038013,-0.052587,1.05277,1.054768,0
7.04356,0.029282,1.887714,-0.17945,0.00437,0.952611,0.969376,0
7.07723,0.03367,1.867441,-0.032335,-0.021228,0.883888,0.884734,0
7.103855,0.026625,1.852171,0.01091,-0.056447,0.860737,0.862655,0
7.130467,0.026612,1.83684,-0.055291,-0.074056,0.908014,0.912706,0
7.164078,0.03361,1.822854,0.01188,0.002428,0.939451,0.93953,0
7.190627,0.026549,1.81417,0.073704,0.018452,0.92288,0.926002,0
7.217099,0.026473,1.813325,0.041701,0.000243,0.888275,0.889253,0
7.244082,0.026983,1.812155,0.007758,-0.012061,0.860494,0.860613,0
7.279164,0.035082,1.807919,0.064733,0.020152,0.857569,0.860245,0
7.309826,0.030662,1.810919,0.152498,0.047587,0.858788,0.87352,0
7.337003,0.027178,1.822914,0.124617,0.033505,0.860006,0.869634,0
7.370797,0.033793,1.829989,0.086311,-0.052828,0.884863,0.890631,0
7.397926,0.027129,1.836898,0.128011,0.000486,0.925073,0.933888,0
7.431616,0.03369,1.845024,0.171167,-0.061513,0.962359,0.979396,0
7.458266,0.02665,1.852522,0.169227,-0.026776,1.026695,1.040892,0
7.485076,0.02681,1.854582,0.140619,-0.029912,1.115644,1.124869,0
7.519449,0.034374,1.852161,0.138679,0.008012,1.21556,1.223471,1
7.554392,0.034943,1.846492,0.095039,0.075266,1.204106,1.210194,0
7.588143,0.033751,1.840602,0.073946,0.033991,1.188022,1.190806,0
7.614793,0.02665,1.834711,0.018426,0.078422,1.183636,1.186374,0
7.641407,0.026615,1.835276,0.017699,0.132565,1.217266,1.224591,0
7.67524,0.033832,1.846638,-0.064424,0.134264,1.246753,1.255616,0
7.702309,0.027069,1.862525,-0.182905,0.165585,1.283551,1.307049,0
7.735855,0.033546,1.870827,-0.156741,0.227497,1.177299,1.209279,0
7.76271,0.026855,1.87939,-0.100462,0.199575,0.99867,1.023359,0
7.789299,0.026589,1.890196,-0.084171,0.135235,0.844166,0.859063,0
7.822864,0.033566,1.899221,-0.056032,0.104644,0.795183,0.803994,0
7.849481,0.026617,1.907862,-0.039494,0.09129,0.80225,0.808393,0
7.876099,0.026618,1.917665,-0.001481,0.097117,0.799326,0.805205,0
7.902663,0.026564,1.935984,0.019153,0.101002,0.841485,0.847741,0
7.936244,0.033581,1.954164,-0.000987,0.107557,0.892905,0.89936,0
7.962798,0.026553,1.969883,-0.027399,0.128923,0.950174,0.959272,0
7.989355,0.026557,1.987656,0.006304,0.17214,0.967476,0.982692,0
8.023013,0.033658,2.001382,0.047519,0.158786,0.912401,0.927333,0
8.049603,0.02659,2.012646,0.033215,0.097117,0.837586,0.843852,0
8.076204,0.026601,2.021417,0.052853,0.054386,0.822477,0.825966,0
8.109783,0.033578,2.026104,0.097463,0.062398,0.852695,0.860513,0
8.136398,0.026615,2.029125,0.121223,0.002185,0.898023,0.90617,0
8.163095,0.026697,2.030357,0.147407,0.060213,0.927267,0.940839,0
8.189652,0.026557,2.034998,0.177713,0.028407,1.002325,1.018354,0
8.223204,0.033552,2.038907,0.180137,0.023794,1.084451,1.099568,0
8.249969,0.026765,2.039347,0.160742,0.045888,1.152442,1.164503,0
8.276665,0.026697,2.03964,0.172137,0.066525,1.195333,1.209495,1
8.310233,0.033568,2.043322,0.150801,0.095903,1.228963,1.241889,0
8.336979,0.026745,2.047748,0.080492,0.101002,1.221165,1.227976,0
8.364121,0.027142,2.052203,0.010668,0.055357,1.203619,1.204938,0
8.390958,0.026837,2.06036,-0.031595,0.043703,1.20435,1.205557,0
8.417653,0.026695,2.071625,-0.124158,0.075508,1.309383,1.317422,0
8.444515,0.026862,2.077789,-0.197715,0.153931,1.187778,1.213921,0
8.478207,0.033692,2.079466,-0.122677,0.167284,1.115157,1.134288,0
8.504788,0.026581,2.08544,-0.11626,0.15126,1.033762,1.051218,0
8.538682,0.033894,2.087471,-0.155506,0.158544,0.995014,1.019496,0
8.565401,0.026719,2.088259,-0.09281,0.179424,0.881451,0.904303,0
8.592134,0.026733,2.099997,-0.045665,0.16777,0.902166,0.918768,0
8.625752,0.033619,2.109996,-0.09676,0.140334,0.888762,0.904961,0
8.652469,0.026716,2.116402,-0.081456,0.147861,0.865855,0.882158,0
8.679145,0.026676,2.12998,0.002667,0.167527,0.867804,0.883831,0
8.71279,0.033644,2.146833,0.061824,0.156358,0.868048,0.884182,0
8.739479,0.026689,2.168052,0.039034,0.134507,0.875359,0.886493,0
8.7662,0.026721,2.196401,0.029578,0.135235,0.893149,0.903813,0
8.799784,0.033584,2.218695,0.058429,0.144947,0.897779,0.91128,0
8.826352,0.026568,2.242439,0.078068,0.126252,0.88072,0.893142,0
8.852919,0.026566,2.274941,0.049701,0.082307,0.890956,0.896129,0
8.886602,0.033684,2.297455,0.032973,0.084977,0.940426,0.944833,0
8.913183,0.026581,2.319754,0.065945,0.105615,0.982342,0.990202,0
8.939701,0.026518,2.343589,0.093827,0.099788,1.000863,1.010192,0
8.966354,0.026652,2.374533,0.058914,0.102458,1.025476,1.032265,0
8.999953,0.033599,2.395121,0.022305,0.080364,1.035468,1.038821,0
9.026547,0.026595,2.411946,0.015517,0.110713,1.067636,1.073473,0
9.053095,0.026548,2.436339,0.042186,0.106829,1.124905,1.130753,0
9.086706,0.033611,2.45709,0.017699,0.129166,1.141963,1.149381,0
9.113288,0.026582,2.490858,-0.012835,0.11387,1.18461,1.19014,1
9.139886,0.026598,2.530345,-0.192038,0.138392,1.362022,1.382438,0
9.166506,0.02662,2.561338,-0.275962,0.164856,1.314013,1.352762,0
9.200056,0.03355,2.574131,-0.117247,0.164613,1.20435,1.221189,0
9.226629,0.026573,2.590012,-0.005677,0.138635,0.99867,1.008262,0
9.253537,0.026908,2.624002,0.021578,0.140577,0.954804,0.965339,0
9.287145,0.033608,2.650068,-0.026411,0.112656,0.895099,0.902547,0
9.313719,0.026574,2.675049,-0.072817,0.050501,0.839536,0.844199,0
9.340394,0.026675,2.698719,-0.116753,0.024765,0.825645,0.834227,0
9.371208,0.030814,2.707582,-0.096019,0.040546,0.892662,0.898726,0
9.398332,0.027124,2.713847,-0.007405,0.08959,0.958216,0.962424,0
9.425025,0.026694,2.732183,0.085826,0.142276,0.991359,1.005187,0
9.458592,0.033567,2.746756,0.061824,0.147861,0.991115,1.003989,0
9.485269,0.026676,2.753352,-0.036285,0.111927,0.963334,0.970493,0
9.511864,0.026595,2.759956,0.019153,0.084249,0.908502,0.912601,0
9.545881,0.034017,2.760697,0.065218,0.078908,0.879502,0.88544,0
9.572572,0.026691,2.757818,0.074916,0.054386,0.865855,0.87079,0
9.599178,0.026606,2.752498,0.096736,0.043703,0.871704,0.878143,0
9.632825,0.033647,2.746643,0.140619,0.051229,0.906796,0.919063,0
9.659641,0.026816,2.74384,0.159529,0.046859,0.956998,0.971334,0
9.686296,0.026656,2.737108,0.128981,0.064583,1.000132,1.010481,0
9.71982,0.033524,2.727736,0.150074,0.06264,1.017922,1.03083,0
9.746506,0.026686,2.719008,0.147407,0.071624,1.066661,1.079178,0
9.773557,0.027051,2.70699,0.027639,0.06871,1.136846,1.139256,0
9.800186,0.026629,2.689343,0.030791,0.114355,1.17998,1.185908,1
9.826796,0.02661,2.671012,0.003394,0.117026,1.158047,1.16395,0
9.8534,0.026604,2.653896,-0.035791,0.09129,1.139526,1.143738,0
9.887096,0.033696,2.645578,-0.075532,0.071381,1.216778,1.221208,0
9.913764,0.026668,2.639613,-0.15131,0.109742,1.302803,1.316144,0
9.940394,0.026629,2.63015,-0.169823,0.118483,1.216778,1.234272,0
9.967096,0.026702,2.610368,-0.137241,0.085463,1.081039,1.093062,0
10.000728,0.033632,2.592504,-0.050354,0.042246,0.968208,0.970436,0
10.027331,0.026603,2.577413,-0.001728,0.065554,0.912888,0.915241,0
10.05393,0.026599,2.567419,0.001455,0.074052,0.902653,0.905687,0
10.087532,0.033603,2.560345,-0.02419,0.040546,0.877065,0.878335,0
10.11413,0.026598,2.555497,-0.036038,0.037633,0.904359,0.905859,0
10.140765,0.026635,2.557577,-0.018266,0.07041,0.954073,0.956842,0
10.174415,0.033649,2.563348,-0.009627,0.109014,0.96114,0.967351,0
10.200997,0.026582,2.573701,-0.03826,0.112656,0.963334,0.970653,0
10.227617,0.026619,2.592803,-0.054304,0.121396,0.962602,0.971746,0
10.261706,0.034089,2.607149,-0.062203,0.129166,0.971132,0.981657,0
10.288463,0.026757,2.628733,-0.060722,0.124067,0.968451,0.978252,0
10.32211,0.033647,2.642765,-0.054057,0.105615,0.94335,0.950782,0
10.349183,0.027073,2.655936,-0.050354,0.106829,0.94067,0.948055,0
10.383858,0.034676,2.661318,-0.030114,0.08692,0.932872,0.937396,0
10.410695,0.026836,2.668068,-0.0,0.060698,0.921418,0.923415,0
10.444208,0.033513,2.670824,0.037579,0.055599,0.953098,0.955458,0
10.470798,0.02659,2.670754,0.072976,0.07915,1.058132,1.063594,0
10.497331,0.026533,2.67524,0.121465,0.089105,1.030594,1.041546,0
10.530851,0.03352,2.681051,0.116374,0.070653,1.082014,1.090545,0
10.557718,0.026867,2.686214,0.060369,0.07041,1.087863,1.091809,0
10.584494,0.026776,2.692044,0.015274,0.072838,1.087619,1.090162,0
10.618024,0.03353,2.696214,-0.002715,0.100516,1.11735,1.121865,0
10.644521,0.026497,2.703219,-0.050601,0.103672,1.132947,1.138805,0
10.671429,0.026908,2.718128,-0.113544,0.082064,1.132947,1.141576,0
10.704973,0.033544,2.728407,-0.154766,0.103672,1.133678,1.14888,0
10.731484,0.02651,2.735268,-0.139709,0.132079,1.113695,1.130168,0
10.758207,0.026723,2.7393,-0.097747,0.144462,0.951392,0.967249,0
10.784724,0.026518,2.746861,-0.069854,0.111685,0.91825,0.927651,0
10.818242,0.033518,2.754073,-0.052082,0.107072,0.892905,0.900809,0
10.844812,0.02657,2.763574,-0.065165,0.104644,0.927754,0.935908,0
10.87136,0.026548,2.77375,-0.078494,0.123339,0.963821,0.974846,0
10.897894,0.026534,2.788536,-0.104411,0.13038,1.05667,1.06979,0
10.931414,0.03352,2.795159,-0.100462,0.127466,0.994771,1.007923,0
10.957913,0.026499,2.798452,-0.083677,0.108771,0.947981,0.957862,0
10.984426,0.026513,2.798705,-0.040728,0.101245,0.927754,0.93415,0
11.010942,0.026517,2.79568,0.004122,0.11217,0.93604,0.942746,0
11.044447,0.033505,2.792197,0.072734,0.135721,0.947737,0.960165,0
11.071022,0.026575,2.791392,0.072734,0.130865,0.954804,0.966471,0
11.097519,0.026497,2.792438,0.056005,0.118483,0.957241,0.96617,0
11.124013,0.026494,2.793689,0.041216,0.107072,0.952124,0.959011,0
11.157553,0.03354,2.791967,0.030063,0.082307,0.946031,0.950081,0
11.184199,0.026646,2.78962,0.020365,0.063854,0.956023,0.958369,0
11.210693,0.026494,2.78544,0.003152,0.06871,0.959435,0.961897,0
11.237205,0.026513,2.777919,0.004122,0.05827,0.961872,0.963644,0
11.270996,0.033791,2.767637,-0.023449,0.030835,0.984292,0.985054,0
11.297509,0.026513,2.751906,-0.038013,0.064826,1.105653,1.108204,0
11.324088,0.026579,2.727963,-0.023696,0.077208,1.08177,1.084781,0
11.357633,0.033545,2.707078,-0.023696,0.076237,1.047653,1.05069,0
11.384788,0.027155,2.690954,0.011395,0.044917,1.045216,1.046242,0
11.418603,0.033815,2.682802,-0.084418,0.067011,1.192896,1.197755,1
11.445191,0.026588,2.673081,-0.110336,0.112656,1.259669,1.2695,0
11.471992,0.026801,2.664732,-0.03826,0.128194,1.089081,1.097267,0
11.50572,0.033728,2.661602,-0.124158,0.008255,0.974544,0.982456,0
11.532243,0.026523,2.652039,-0.186608,0.008983,0.956754,0.974824,0
11.559028,0.026785,2.636111,-0.113298,0.060455,0.964552,0.973063,0
11.592578,0.03355,2.628293,-0.14193,0.016995,0.980636,0.991,0
11.619108,0.02653,2.621253,-0.216228,-0.002171,0.997939,1.021098,0
11.645607,0.026499,2.609325,-0.243133,-0.003136,0.978443,1.008203,0
11.672387,0.02678,2.590331,-0.187595,0.024522,0.983561,1.001591,0
11.707937,0.03555,2.580662,-0.093057,0.050258,1.000132,1.005708,0
11.739163,0.031227,2.575172,-0.131563,0.055114,1.027426,1.03728,0
11.766933,0.027769,2.568558,-0.114285,0.061184,1.024014,1.032187,0
11.794143,0.02721,2.562997,-0.071829,0.055357,1.013048,1.017099,0
11.827848,0.033705,2.56056,-0.052329,0.051715,0.983317,0.986065,0
11.85446,0.026612,2.557759,-0.030114,0.058999,0.982829,0.985059,0
11.8811,0.02664,2.552743,-0.037519,0.079393,1.021577,1.025344,0
11.914756,0.033656,2.551075,-0.02888,0.08085,1.019384,1.022993,0
11.941349,0.026593,2.552205,-0.037025,0.08959,1.027913,1.032474,0
11.968021,0.026672,2.559523,-0.029867,0.101973,1.031569,1.037027,0
12.001608,0.033587,2.568243,-0.10688,0.085463,1.038636,1.047612,0
12.028173,0.026565,2.57489,-0.153532,0.093475,0.964796,0.981397,0
12.055183,0.027009,2.575834,-0.077506,0.088134,0.895586,0.903244,0
12.088831,0.033648,2.575873,-0.067633,0.061184,0.924342,0.92883,0
12.115439,0.026608,2.578349,0.007273,0.060698,0.909233,0.911286,0
12.142051,0.026612,2.58411,0.015517,0.056328,1.017922,1.019597,0
12.175714,0.033663,2.590015,-0.029127,0.058027,1.080552,1.082501,0
12.202395,0.026681,2.594589,-0.088614,0.040546,1.127585,1.131789,0
12.229002,0.026608,2.595082,-0.109842,0.031806,1.102728,1.108642,0
12.262987,0.033985,2.594882,-0.068127,0.051958,1.00793,1.011565,0
12.289889,0.026902,2.596631,-0.027892,0.078179,0.958703,0.96229,0
12.323596,0.033707,2.599624,-0.038753,0.089105,0.96114,0.96604,0
12.350204,0.026607,2.602747,-0.059734,0.055357,1.053501,1.056645,0
12.376799,0.026596,2.604331,-0.086392,0.025736,1.014266,1.018264,0
12.409557,0.032757,2.603851,-0.085405,0.017724,1.013048,1.016796,0
12.44308,0.033524,2.602591,-0.06319,0.011654,0.990628,0.992709,0
12.469522,0.026442,2.601213,-0.03431,0.028892,0.984779,0.9858,0
12.496031,0.026509,2.600853,-0.031101,0.045402,0.994771,0.996292,0
12.52248,0.026448,2.600318,-0.059241,0.04346,1.00135,1.004042,0
12.555853,0.033374,2.59907,-0.070348,0.067011,1.008417,1.013087,0
12.582263,0.026409,2.598042,-0.054304,0.072352,0.998913,1.003001,0
12.608669,0.026406,2.597164,-0.041962,0.093232,1.000376,1.005587,0
12.63509,0.026421,2.597254,-0.026658,0.088134,0.994771,0.999023,0
12.661655,0.026565,2.598411,-0.047146,0.075023,0.990871,0.994825,0
12.695158,0.033503,2.599527,-0.044184,0.059484,0.982829,0.985619,0
12.721578,0.026421,2.60164,-0.056032,0.060698,0.989653,0.993095,0
12.748094,0.026516,2.603983,-0.079481,0.054871,0.994527,0.999206,0
12.774604,0.02651,2.603641,-0.082196,0.060213,1.00793,1.013067,0
12.808011,0.033407,2.603133,-0.074544,0.054386,0.999401,1.003652,0
12.834457,0.026446,2.60306,-0.054551,0.063369,0.994527,0.998036,0
12.860937,0.026479,2.603844,-0.047639,0.078179,1.017434,1.021545,0
12.887483,0.026546,2.604637,-0.070842,0.002671,1.006224,1.008718,0
12.914338,0.026855,2.604229,-0.071089,0.0539,1.000863,1.004831,0
12.947868,0.03353,2.603534,-0.070595,0.050501,0.999644,1.003406,0
12.974475,0.026607,2.603006,-0.058747,0.055357,0.999401,1.002655,0
13.000981,0.026506,2.60268,-0.055538,0.063612,0.999644,1.003205,0
13.034621,0.033639,2.602981,-0.051835,0.065554,1.000376,1.00386,0
13.061137,0.026517,2.603219,-0.049614,0.061184,0.994039,0.997156,0
13.087666,0.026528,2.603726,-0.055785,0.059241,0.999401,1.002708,0
13.11418,0.026514,2.603202,-0.061215,0.058999,1.000619,1.004225,0
13.147663,0.033483,2.603461,-0.050848,0.065554,1.006712,1.010124,0
13.174192,0.026529,2.604038,-0.051589,0.064826,1.000132,1.003558,0
13.200762,0.02657,2.604274,-0.054798,0.058756,0.999401,1.002625,0
13.227256,0.026494,2.604434,-0.042703,0.06264,0.983804,0.986721,0
13.261036,0.03378,2.604783,-0.049367,0.067739,0.994527,0.998053,0
13.287604,0.026568,2.605033,-0.049861,0.069924,1.00793,1.011582,0
13.314163,0.026559,2.605588,-0.043937,0.06264,0.994527,0.997466,0
13.347731,0.033567,2.606473,-0.035544,0.065797,0.993552,0.996363,0
13.374253,0.026522,2.606282,-0.042949,0.00607,1.009392,1.010324,0
13.402243,0.02799,2.606249,-0.067139,0.048801,1.008661,1.012071,0
13.428826,0.026582,2.604836,-0.069608,0.048559,1.003544,1.007126,0
13.45557,0.026744,2.603098,-0.055044,0.053657,0.98551,0.988503,0
13.489293,0.033723,2.603465,-0.041468,0.06434,0.998426,1.001356,0
13.515801,0.026507,2.604379,-0.053317,0.064097,1.008661,1.012101,0
13.542243,0.026442,2.605017,-0.05307,0.059727,1.005737,1.008905,0
13.5688,0.026557,2.607336,-0.049614,0.06264,0.999401,1.00259,0
13.602321,0.03352,2.608488,-0.050848,0.067496,1.001594,1.005153,0
13.628831,0.02651,2.609541,-0.047146,0.071381,1.009392,1.013011,0
13.656783,0.027951,2.610567,-0.046158,0.07041,1.007686,1.011197,0
13.688987,0.032205,2.611038,-0.052329,0.066282,0.999888,1.003448,0
13.717577,0.028589,2.611243,-0.051095,0.05997,0.992334,0.995456,0
13.749831,0.032254,2.610873,-0.060722,0.058513,0.998182,1.001738,0
13.779071,0.029239,2.609773,-0.054551,0.061669,0.992334,0.995743,0
13.810292,0.031221,2.608405,-0.044924,0.066768,0.994283,0.997535,0
13.845221,0.034929,2.607959,-0.041222,0.069681,0.999888,1.003161,0
13.880164,0.034943,2.607663,-0.05381,0.06264,1.007686,1.011065,0
13.914742,0.034578,2.606997,-0.052082,0.068468,1.001594,1.005281,0
13.949389,0.034647,2.605956,-0.053317,0.071867,0.998182,1.002185,0
13.98434,0.034951,2.604863,-0.047639,0.072109,0.983561,0.98735,0
14.019168,0.034828,2.604186,-0.051342,0.077451,0.999157,1.003469,0
14.053925,0.034756,2.602638,-0.052082,0.073323,1.0033,1.007323,0
14.088717,0.034792,2.60193,-0.04838,0.07041,1.006224,1.009844,0
14.123517,0.0348,2.601565,-0.050108,0.084249,0.999157,1.003954,0
14.158289,0.034772,2.602351,-0.043196,0.076237,0.985997,0.989883,0
14.193094,0.034805,2.603215,-0.052082,0.079636,0.996964,1.001495,0
14.227974,0.03488,2.602974,-0.047886,0.072352,0.998426,1.002189,0
14.263603,0.035629,2.602886,-0.046405,0.074052,1.006955,1.01074,0
14.291463,0.02786,2.601816,-0.054551,0.06264,0.997939,1.00139,0
14.322804,0.031341,2.600324,-0.048627,0.06604,0.998426,1.001789,0
