timestamp,dt,accel_raw_x_g,accel_raw_y_g,accel_raw_z_g,accel_raw_x_mps2,accel_raw_y_mps2,accel_raw_z_mps2,accel_filt_x_mps2,accel_filt_y_mps2,accel_filt_z_mps2,accel_lin_x_mps2,accel_lin_y_mps2,accel_lin_z_mps2,gyro_x,gyro_y,gyro_z,step_state,step_count,velocity_x,velocity_y,velocity_z,pos_x,pos_y,pos_z
1769183766.517175,2.0339508056640625,0.061581265181303024,-0.0349777527153492,1.0174343585968018,0.6041122114285827,-0.34313175413757563,9.981031057834626,0.6927350738581447,-0.3771892744760096,9.971027571667355,0.07613948858580177,0.0030594168394023624,0.01232877990191028,-0.0026593171060085297,2.110842615365982e-06,-0.004820785019546747,INITIALIZING,0,0.1548639741519412,0.006222703345364635,0.02507613181434532,0.31498570499467937,0.012656672482712857,0.05100361850672589
1769183766.5673218,0.049663543701171875,0.061581265181303024,-0.0349777527153492,1.0145100355148315,0.6041122114285827,-0.34313175413757563,9.952343448400498,0.6759176213313927,-0.3707263740937776,9.967481992711427,0.05932203605904973,0.009522317221634324,0.008783200945982728,-0.0010944195091724396,-0.0015045031905174255,-0.002308179624378681,INITIALIZING,0,0.1578101166822023,0.006695615362837692,0.025512336698362306,0.322823114621013,0.012989200468891383,0.05227065155526402
1769183766.617244,0.049861907958984375,0.061338815838098526,-0.03739001601934433,1.016459584236145,0.6017337833717465,-0.3667960571497679,9.971468521356583,0.6618401796991028,-0.3699805403798925,9.968238493397577,0.045244594426759877,0.010268150935519471,0.009539701632132136,-0.0013481471687555313,0.0017984653823077679,-0.0007247021421790123,INITIALIZING,0,0.16006609848515096,0.007207604959693524,0.025988004423099852,0.3308043156910333,0.013348585403996341,0.0535664630398463
1769183766.6651769,0.048050642013549805,0.06255104392766953,-0.041973307728767395,1.0145100355148315,0.6136257409304381,-0.4117581488192082,9.952343448400498,0.6526908020682406,-0.3779084376216212,9.965222181835067,0.03609521679589767,0.0023402536937907614,0.006523390069622437,-0.0007076617330312729,-0.0006386381573975086,-0.0006652178708463907,INITIALIZING,0,0.1618004968258121,0.007320055652154751,0.026301457504050024,0.3385789334416249,0.01370031877765729,0.054830264958808
1769183766.7153409,0.050338029861450195,0.06449060887098312,-0.043420661240816116,1.0147536993026733,0.6326528730243445,-0.4259566867724061,9.954733790159226,0.6488883191513974,-0.3870262784014665,9.963231859876885,0.032292733879054514,-0.006777587086054526,0.004533068111440386,-0.00034339912235736847,-0.0006123045459389687,-0.0026946701109409332,INITIALIZING,0,0.1634260494281238,0.006978885271028359,0.0265296432220077,0.3468054787978766,0.014051622112829952,0.056165714931531045
1769183766.7666888,0.05115818977355957,0.062066156417131424,-0.03811369463801384,1.0149974822998047,0.6088689944520593,-0.3738953443989158,9.957125301361085,0.6412940813347312,-0.3845344963356894,9.962073053276354,0.024698496062388275,-0.004285805020277478,0.003374261510909804,0.0002888329327106476,1.3749580830335617e-05,-0.0037959569599479437,INITIALIZING,0,0.16468957977680498,0.00675963124446853,0.026702264332728442,0.3552306995738262,0.014397432610833755,0.05753175443764852
1769183766.8209534,0.054175376892089844,0.06303593516349792,-0.03883736953139305,1.0149974822998047,0.6183825239539147,-0.38099459510296585,9.957125301361085,0.636946286442955,-0.3838627495730746,9.961134146760946,0.020350701170612107,-0.0036140582576626445,0.0024353549955016263,-0.000626739114522934,-0.0020686155185103416,-0.0033842758275568485,INITIALIZING,0,0.1657920866827412,0.006563838276249687,0.026834200607475777,0.36421254835558975,0.014753031023308306,0.05898550736915647
1769183766.8702927,0.04929637908935547,0.06521795690059662,-0.041973307728767395,1.0149974822998047,0.6397881571948528,-0.4117581488192082,9.957125301361085,0.6374855719630452,-0.38915629956317466,9.960373411152199,0.0208899866907023,-0.00890760824776271,0.0016746193867547277,-0.0006008017808198929,6.709946319460869e-05,-0.0041673253290355206,INITIALIZING,0,0.16682188738581766,0.006124725443288507,0.026916753279595623,0.37243626335656277,0.015054957810578877,0.06031240584268207
1769183766.917982,0.0476834774017334,0.061096370220184326,-0.03714878484606743,1.0154846906661987,0.5993553918600083,-0.3644295793399215,9.96190481543541,0.6302498262859182,-0.3844640516251513,9.960664016963456,0.013654241013575263,-0.004215360309739347,0.0019652251980115665,0.0009207185357809067,-0.000571065116673708,-0.004293394275009632,INITIALIZING,0,0.1674729690786263,0.005923722405218886,0.027010462050914324,0.38042195689302466,0.015337421494022273,0.061600358599497224
1769183766.9632142,0.04521536827087402,0.060611478984355927,-0.034254077821969986,1.0159721374511719,0.5945986088365317,-0.3360325034335256,9.966686668395997,0.6234844991396358,-0.37527347438378617,9.961806900997837,0.006888913867292845,0.004975216931625781,0.0031081092323930193,-0.0012221597135066986,-0.0008523305878043175,-0.0008873753249645233,INITIALIZING,0,0.16778445385612228,0.006148678671009834,0.02715099635448308,0.3880083927642567,0.015615436264511251,0.06282800089858634
1769183767.0128903,0.049675703048706055,0.06012658774852753,-0.0349777527153492,1.01572847366333,0.5898418258130551,-0.34313175413757563,9.96429632663727,0.6171003218965176,-0.3691741244017382,9.96227930502951,0.0005047366241747175,0.011074566913673756,0.003580513264065388,0.0009105764329433441,-0.0023607476614415646,0.0003585400991141796,INITIALIZING,0,0.1678095270027826,0.006698815568406517,0.027328860868150742,0.39634444899639076,0.015948204637465463,0.064185581275732
1769183767.0665982,0.053839683532714844,0.06352083384990692,-0.04004349932074547,1.0123167037963867,0.623139380067587,-0.39282672833651305,9.930826864242555,0.6182463193436095,-0.3736625434496255,9.956310755658793,0.0016507340712665908,0.006586147865786429,-0.0023880361066517253,-0.0029429104179143906,-0.0011414289474487305,0.0006468892097473145,INITIALIZING,0,0.16789840200277625,0.007053411685200123,0.027200289759903917,0.4053840458258688,0.01632795809042259,0.06565003626840336
1769183767.117015,0.05027961730957031,0.06497550755739212,-0.046797823160886765,1.0159721374511719,0.6374097291380167,-0.45908664520829917,9.966686668395997,0.6218828497561122,-0.389872985502417,9.958279733133633,0.005287264483769261,-0.009624294187005056,-0.00041905863181135317,0.00010770373046398163,-0.0014238711446523666,-0.0029479817021638155,INITIALIZING,0,0.16816424363763466,0.006569505856602787,0.02717921965226617,0.4138392796411224,0.01665827033080556,0.06701659703129206
1769183767.16277,0.04581427574157715,0.06473305821418762,-0.04173208028078079,1.0154846906661987,0.6350313010811806,-0.4093917075544596,9.96190481543541,0.6243779559837563,-0.39357694148503936,9.958967644219378,0.007782370711413411,-0.01332825016962741,0.000268852453933377,0.0004094596952199936,0.0009654173627495766,-0.0028244873974472284,INITIALIZING,0,0.16852078731533052,0.005958881728178754,0.027191536932724473,0.4215599374593746,0.016931272181411786,0.06826235760216517
1769183767.2129922,0.05077934265136719,0.062066156417131424,-0.038354918360710144,1.0159721374511719,0.6088689944520593,-0.3762617491185665,9.966686668395997,0.6214349092670489,-0.3902911366979712,9.960432439184066,0.004839323994705991,-0.010042445382559273,0.0017336474186215867,-0.00018459931015968323,-0.0011284798383712769,-0.003606006968766451,STATIONARY,0,0.0,0.0,0.0,0.43012979066076823,0.017207965414918536,0.06964759625534747
1769183767.276878,0.06389784812927246,0.060611478984355927,-0.03811369463801384,1.0184091329574585,0.5945986088365317,-0.3738953443989158,9.990593594312669,0.6163423383873553,-0.38717980119075934,9.966155948678361,-0.0002532468849876235,-0.0069311098753473965,0.007457156912916929,-0.0019701458513736725,-0.0010908665135502815,-0.002589964307844639,STATIONARY,0,0.0,0.0,0.0,0.430128756670199,0.017179666143850466,0.06967804334227454
1769183767.3426638,0.06588101387023926,0.061823710799217224,-0.038354918360710144,1.017678141593933,0.606490602940321,-0.3762617491185665,9.983422569036485,0.6144728310317528,-0.38510794504241336,9.96943253623387,-0.0021227542405901634,-0.004859253727001411,0.010733744468424788,0.0010833721607923508,0.00011136149987578392,-0.003063860582187772,STATIONARY,0,0.0,0.0,0.0,0.43011954326301083,0.01715857548608067,0.06972463109913812
1769183767.3950775,0.052899837493896484,0.05915680527687073,-0.03184181824326515,1.0132914781570435,0.5803282597661019,-0.3123682369664312,9.940389400720596,0.6079934114941274,-0.3713045476589231,9.963921186912348,-0.008602173778215483,0.008944143656488823,0.00522239514690348,-0.0007848162204027176,-0.0002027438022196293,0.0006115701980888844,STATIONARY,0,0.0,0.0,0.0,0.43009547100178636,0.017183604713352698,0.0697392454121519
1769183767.4396806,0.04406166076660156,0.06327838450670242,-0.040525950491428375,1.015241026878357,0.6207609520107508,-0.3975595743209124,9.959514473676682,0.6104162344614217,-0.3762868135480164,9.963084950205383,-0.006179350810921247,0.0039618777673955385,0.0043861584399387255,0.00015738233923912048,-0.0004912381991744041,0.0005709975957870483,STATIONARY,0,0.0,0.0,0.0,0.4300834742250535,0.017191296421506623,0.0697477608315105
1769183767.4946058,0.0552668571472168,0.06255104392766953,-0.039802271872758865,1.0162159204483032,0.6136257409304381,-0.3904602870717645,9.969078179597854,0.6110252841038871,-0.37897643236183276,9.964222250987898,-0.005570301168455805,0.0012722589535791862,0.005523459222454008,0.0016485843807458878,-0.0001644715666770935,-0.000914201489649713,STATIONARY,0,0.0,0.0,0.0,0.43006646015512784,0.01719518244169568,0.06976463182620188
1769183767.5409443,0.04967665672302246,0.06424816697835922,-0.043420661240816116,1.0159721374511719,0.630274518057704,-0.4259566867724061,9.966686668395997,0.6146781008750895,-0.38789160590266164,9.964689909350883,-0.0019174843972534772,-0.007642914587249694,0.005991117585438133,-0.0025550369173288345,-0.00013375421985983849,-0.0032709836959838867,STATIONARY,0,0.0,0.0,0.0,0.4300617282442289,0.01717632148465898,0.06977941652778277
1769183767.6091585,0.06724143028259277,0.062066156417131424,-0.0354602076113224,1.0159721374511719,0.6088689944520593,-0.3478646366670728,9.966686668395997,0.6135757400529054,-0.38029591742617735,9.965068822867417,-0.0030198452194375447,-4.722611076540817e-05,0.006370031101972984,0.0034704990684986115,-0.0001545310951769352,-0.002856612205505371,STATIONARY,0,0.0,0.0,0.0,0.430048074286017,0.017176107956052036,0.06980821804976642
1769183767.6641335,0.05207943916320801,0.05964169651269913,-0.03328917175531387,1.01719069480896,0.5850850427895785,-0.3265667749196291,9.978640716075898,0.6081692237709371,-0.37010004608287533,9.967644283233676,-0.008426361501405855,0.010148645232536613,0.008945491468232092,0.00103822723031044,-0.00016956869512796402,-0.0028572927694767714,STATIONARY,0,0.0,0.0,0.0,0.4300252197354989,0.017203633801592694,0.06983248061987286
1769183767.7131548,0.04900836944580078,0.06303593516349792,-0.041249629110097885,1.0159721374511719,0.6183825239539147,-0.40465886157006026,9.966686668395997,0.6101073431936223,-0.3766580743715514,9.967462562155953,-0.006488242078720674,0.003590616943860536,0.008763770390508796,0.00012291409075260162,-0.0004440275952219963,-0.0018106878269463778,STATIONARY,0,0.0,0.0,0.0,0.43000963614412036,0.01721225781817086,0.06985352962128868
1769183767.7642527,0.05118250846862793,0.06303593516349792,-0.03956104815006256,1.015241026878357,0.6183825239539147,-0.38809388235211373,9.959514473676682,0.611677676804739,-0.3788281820903245,9.96595429897178,-0.004917908467603982,0.001420509225087463,0.007255507206336276,-0.0028993170708417892,-0.0010146857239305973,-0.0026512336917221546,STATIONARY,0,0.0,0.0,0.0,0.4299967529492696,0.0172159790539878,0.06987253650474248
1769183767.8095138,0.04509258270263672,0.062066156417131424,-0.03956104815006256,1.015241026878357,0.6088689944520593,-0.38809388235211373,9.959514473676682,0.6111446892568987,-0.3805864809085736,9.964732250245167,-0.00545089601544424,-0.0003377895931616637,0.0060334584797221424,-0.00012017413973808289,0.002302238717675209,-0.00016551814042031765,STATIONARY,0,0.0,0.0,0.0,0.429985669418834,0.017215292212553652,0.06988480458333036
1769183767.8636887,0.05415940284729004,0.061823710799217224,-0.03594265878200531,1.0154846906661987,0.606490602940321,-0.3525974826514721,9.96190481543541,0.6102615099785644,-0.37527516917076703,9.964195704151056,-0.006334075293778496,0.004973522144644915,0.005496912385611452,-0.0006965789943933487,-0.000421673059463501,-0.0004300182918086648,STATIONARY,0,0.0,0.0,0.0,0.4299670900500123,0.01722988075120881,0.06990092835165576
1769183767.9213574,0.05791354179382324,0.062308598309755325,-0.03883736953139305,1.015241026878357,0.6112473494186997,-0.38099459510296585,9.959514473676682,0.6104485870772832,-0.37636051184034597,9.963307373881515,-0.006146998195059705,0.003888179475065978,0.004608582116070181,0.0008483249694108963,0.00017783930525183678,-0.0016269765328615904,STATIONARY,0,0.0,0.0,0.0,0.4299464731513139,0.017242921620884522,0.0699163854361733
1769183767.976897,0.055376529693603516,0.06400572508573532,-0.04149085283279419,1.0159721374511719,0.6278961630910636,-0.40702526628971103,9.966686668395997,0.613759513550143,-0.38217958649059874,9.96394864322797,-0.0028360717221999066,-0.0019308951751867975,0.005249851462526323,0.0023821108043193817,-0.000713844783604145,-0.0018881881842389703,STATIONARY,0,0.0,0.0,0.0,0.42993777616709744,0.017237000414897116,0.06993248442088898
1769183768.0300956,0.053188323974609375,0.06255104392766953,-0.039078593254089355,1.0147536993026733,0.6136257409304381,-0.3833609998226166,9.954733790159226,0.6137341282870226,-0.38240377652555135,9.962199993390037,-0.0028614569853203653,-0.002155085210139407,0.0035012016245925537,0.002317853271961212,-0.0007102400995790958,-0.0012549366801977158,STATIONARY,0,0.0,0.0,0.0,0.4299296811115605,0.017230903683563243,0.06994238931260761
1769183768.08135,0.051253557205200195,0.06279349327087402,-0.03666633740067482,1.0159721374511719,0.6160041689872742,-0.35969676990062,9.966686668395997,0.6141649008965241,-0.3780947980580262,9.963051403983727,-0.002430684375818837,0.0021538932573857417,0.004352612218282204,-0.0001264680176973343,0.00020928354933857918,-0.0018288480350747705,STATIONARY,0,0.0,0.0,0.0,0.42992329588083844,0.01723656180418798,0.06995382330771359
1769183768.1266072,0.04517221450805664,0.06400572508573532,-0.04028472676873207,1.0154846906661987,0.6278961630910636,-0.39519316960126166,9.96190481543541,0.6167706038016022,-0.38133945800050634,9.962833822448326,0.0001750185292592743,-0.001090766685094391,0.004135030682881791,0.00018309429287910461,-0.00131937675178051,-0.0002613472752273083,STATIONARY,0,0.0,0.0,0.0,0.42992365301121654,0.01723433606317456,0.06996226095758723
1769183768.1746416,0.04802846908569336,0.06255104392766953,-0.03956104815006256,1.0159721374511719,0.6136257409304381,-0.38809388235211373,9.966686668395997,0.6161738212040982,-0.3826212063864714,9.963564954935379,-0.0004217640682446788,-0.0023725150710594556,0.004866163169934268,-0.0007188599556684494,-0.00010953284800052643,-0.0014185041654855013,STATIONARY,0,0.0,0.0,0.0,0.42992268011376666,0.017228863302367795,0.06997348590085549
1769183768.2275698,0.052939414978027344,0.12340497225522995,-0.03739001601934433,1.0145100355148315,1.2106027778238058,-0.3667960571497679,9.952343448400498,0.7289751964296407,-0.37961815854169484,9.961435513973358,0.11237961115729778,0.0006305327737171074,0.0027367222079135445,0.0017246007919311523,-0.00010953284800052643,0.07585594803094864,STATIONARY,0,0.0,0.0,0.0,0.43023763315075353,0.01723063042195432,0.06998115578831902
1769183768.2762628,0.048861026763916016,0.061338815838098526,-0.03618388622999191,1.0149974822998047,0.6017337833717465,-0.35496392391622067,9.957125301361085,0.7048293229510136,-0.37493966578000076,9.960617589636456,0.08823373767867071,0.005309025535411183,0.0019187978710117903,0.0005214400589466095,-0.00010083476081490517,0.001005935133434832,STATIONARY,0,0.0,0.0,0.0,0.43044828237047805,0.017243305189180033,0.06998573672623429
1769183768.3225772,0.04616904258728027,0.06255104392766953,-0.039078593254089355,1.0159721374511719,0.6136257409304381,-0.3833609998226166,9.966686668395997,0.687522142062788,-0.37653773406160446,9.961769283918514,0.07092655679044513,0.0037109572538074898,0.0030704921530695373,-0.0006819963455200195,0.0004930305294692516,-0.0014097999082878232,STATIONARY,0,0.0,0.0,0.0,0.43059946803539845,0.017251215393274188,0.069992281727413
1769183768.3839293,0.06142878532409668,0.06521795690059662,-0.04317943751811981,1.0147536993026733,0.6397881571948528,-0.4235902820527554,9.954733790159226,0.6784639374142163,-0.3854666263407591,9.96043419860243,0.06186835214187336,-0.005217935025347176,0.0017354068369854758,0.0014175940304994583,0.0017232182435691357,-0.001072604674845934,STATIONARY,0,0.0,0.0,0.0,0.43083292799409273,0.017231525538068514,0.0699988302775918
1769183768.4388413,0.054834842681884766,0.06449060887098312,-0.037631239742040634,1.0149974822998047,0.6326528730243445,-0.36916246186941865,9.957125301361085,0.669770634360628,-0.3823726785211087,9.959806288142909,0.053175049088285076,-0.0021239872056967313,0.0011074963774646562,0.001385485753417015,0.0008204011246562004,-0.0010368537623435259,STATIONARY,0,0.0,0.0,0.0,0.4309928179207026,0.017225139005958776,0.07000216036411827
1769183768.492048,0.053406476974487305,0.062308598309755325,-0.037631239742040634,1.0149974822998047,0.6112473494186997,-0.36916246186941865,9.957125301361085,0.658665006092271,-0.37986585144153334,9.959297532651469,0.04206942081992804,0.0003828398738786043,0.000598740886024629,-0.0003918297588825226,-6.746500730514526e-05,0.0011048477608710527,STATIONARY,0,0.0,0.0,0.0,0.43111281050123873,0.01722623096167158,0.07000386812387789
1769183768.5482013,0.05599856376647949,0.06279349327087402,-0.03859614208340645,1.015241026878357,0.6160041689872742,-0.3786281538382173,9.959514473676682,0.6505695036102223,-0.37963098066309525,9.959338700306096,0.03397391833787933,0.0006177106523166942,0.000639908540652101,0.0011681504547595978,0.00023003621026873589,-0.003151309210807085,STATIONARY,0,0.0,0.0,0.0,0.4312193472442346,0.017228168002914726,0.07000587477412819
1769183768.597124,0.048909664154052734,0.12364742159843445,-0.03859614208340645,1.0145100355148315,1.212981205880642,-0.3786281538382173,9.952343448400498,0.7572951480334106,-0.37944067996576286,9.95801125145588,0.14069956276106765,0.0008080113496490848,-0.0006875403095651933,0.0017790161073207855,-0.0009916946291923523,-0.0019295787205919623,STATIONARY,0,0.0,0.0,0.0,0.43155592244163726,0.01723010089150496,0.07000423007096868
1769183768.6498988,0.05278635025024414,0.06255104392766953,-0.039078593254089355,1.0159721374511719,0.6136257409304381,-0.3833609998226166,9.966686668395997,0.7300318283068421,-0.3801846165897319,9.95965753559228,0.11343624303449917,6.407472568004113e-05,0.0009587438268354731,-0.000357137992978096,0.000853249803185463,-0.0024658627808094025,STATIONARY,0,0.0,0.0,0.0,0.431872001050013,0.017230279429241956,0.07000690151359114
1769183768.700238,0.05043172836303711,0.06255104392766953,-0.03859614208340645,1.0147536993026733,0.6136257409304381,-0.3786281538382173,9.954733790159226,0.7079421124636693,-0.37988925557660663,9.958723184649372,0.09134652719132641,0.00035943573880531376,2.4392883927859543e-05,0.0011915899813175201,-0.001857695635408163,-0.0017729803221300244,STATIONARY,0,0.0,0.0,0.0,0.4321043280826792,0.017231193603444286,0.07000696355345752
1769183768.7528365,0.05250716209411621,0.06279349327087402,-0.03956104815006256,1.01572847366333,0.6160041689872742,-0.38809388235211373,9.96429632663727,0.6904955760120807,-0.3814462005625179,9.95978076785349,0.07389999073973774,-0.0011975092471059323,0.0010819760880451668,-0.0015659630298614502,-0.0021465467289090157,-0.001393397687934339,STATIONARY,0,0.0,0.0,0.0,0.43230807051020864,0.01722789206796976,0.07000994656377323
1769183768.798358,0.045343637466430664,0.06327838450670242,-0.039078593254089355,1.0145100355148315,0.6207609520107508,-0.3833609998226166,9.952343448400498,0.6772624362052347,-0.3818095610405273,9.958369430379186,0.060666850932891814,-0.001560869725115377,-0.00032936138625849765,0.0011435020714998245,-0.0008889446035027504,-0.0003602564102038741,STATIONARY,0,0.0,0.0,0.0,0.43243280431356207,0.017224682848859835,0.07000926938179074
1769183768.8532717,0.05512046813964844,0.061823710799217224,-0.03642510995268822,1.016459584236145,0.606490602940321,-0.35733032863587144,9.971468521356583,0.6638324711427783,-0.37716427744698694,9.960855169776636,0.0472368858704354,0.0030844138684250066,0.0021563780111915065,0.0014258753508329391,0.0003620707429945469,-0.00033310765866190195,STATIONARY,0,0.0,0.0,0.0,0.43257632253822287,0.01723405411867067,0.0700158210318024
1769183768.9047956,0.05144619941711426,0.06255104392766953,-0.03811369463801384,1.0145100355148315,0.6136257409304381,-0.3738953443989158,9.952343448400498,0.6543050277864935,-0.376543950763308,9.959239949208943,0.03770944251415054,0.003704740552103958,0.0005411574434983635,-0.0018997061997652054,-0.00023040780797600746,0.00028364069294184446,STATIONARY,0,0.0,0.0,0.0,0.43267612855091236,0.01724385949785165,0.07001725331939596
1769183768.9507527,0.04594135284423828,0.06327838450670242,-0.03883736953139305,1.0147536993026733,0.6207609520107508,-0.38099459510296585,9.954733790159226,0.6479395608353363,-0.37738852402401873,9.95838484123997,0.0313439755629934,0.002860167291393212,-0.00031395052547367186,-0.002772614359855652,0.0012888619676232338,-0.000916916411370039,STATIONARY,0,0.0,0.0,0.0,0.4327422833933893,0.0172498961895355,0.07001659069293632
1769183768.9945476,0.04377603530883789,0.06424816697835922,-0.040525950491428375,1.0147536993026733,0.630274518057704,-0.3975595743209124,9.954733790159226,0.6445873669414414,-0.3812162685978566,9.95769200220792,0.027991781669098437,-0.000967577282444676,-0.0010067895575236463,0.0020640231668949127,0.0015512495301663876,-0.001201795181259513,STATIONARY,0,0.0,0.0,0.0,0.43279592519974874,0.01724804198125979,0.0700146613405597
1769183769.0528502,0.05839896202087402,0.061823710799217224,-0.03714878484606743,1.0149974822998047,0.606490602940321,-0.3644295793399215,9.957125301361085,0.6373579624463999,-0.37803075481577764,9.957584462637124,0.020762377174056934,0.00221793649963431,-0.0011143291283204348,-0.00036174245178699493,-0.0012081959284842014,-0.0005611394881270826,STATIONARY,0,0.0,0.0,0.0,0.4328667340157191,0.017255606117876708,0.07001086098930337
1769183769.1003208,0.04764246940612793,0.060853924602270126,-0.03401285037398338,1.0167032480239868,0.59697700034827,-0.33366606216877703,9.97385886311531,0.6296950987738388,-0.3696119214357581,9.96067276231443,0.013099513501495852,0.01063676987965384,0.0019739705489865145,-0.0003648269921541214,-0.00030235713347792625,0.00033827347215265036,STATIONARY,0,0.0,0.0,0.0,0.43289646735553605,0.017279749510175198,0.07001534151731037
1769183769.154017,0.05395960807800293,0.062066156417131424,-0.04076717421412468,1.0154846906661987,0.6088689944520593,-0.39992597904056315,9.96190481543541,0.6257430483531351,-0.37536444635637023,9.960906561971816,0.009147463080792173,0.004884244959041717,0.002207770206371862,0.0005330909043550491,-0.0018089166842401028,0.00031690439209342003,STATIONARY,0,0.0,0.0,0.0,0.4329231014685733,0.017293970669767973,0.07002176974781729
1769183769.2048464,0.05036473274230957,0.06255104392766953,-0.04173208028078079,1.0140225887298584,0.6136257409304381,-0.4093917075544596,9.947561595439911,0.623443616392277,-0.3818216046350152,9.958374164179997,0.006848031119934039,-0.0015729133196032419,-0.00032462758544760106,-0.0006959699094295502,0.000898552592843771,0.0006974879652261734,STATIONARY,0,0.0,0.0,0.0,0.43294047222748355,0.0172899808079255,0.07002094629543752
1769183769.256734,0.05188465118408203,0.061581265181303024,-0.03859614208340645,1.0147536993026733,0.6041122114285827,-0.3786281538382173,9.954733790159226,0.6197752064996181,-0.3812156017854192,9.957683351272406,0.00317962122727522,-0.0009669104700072428,-0.0010154404930382555,-5.703233182430267e-05,0.0005683032795786858,-0.0759071335196495,STATIONARY,0,0.0,0.0,0.0,0.43294903182197153,0.01728737786847521,0.07001821271233884
1769183769.308935,0.05222344398498535,0.062066156417131424,-0.03859614208340645,1.0169469118118286,0.6088689944520593,-0.3786281538382173,9.976249204874039,0.6177055971648678,-0.3807245966223655,9.961206486872006,0.0011100118925249092,-0.00047590530695357236,0.0025076951065621245,0.00023002736270427704,0.0002692504785954952,0.0022125542163848877,STATIONARY,0,0.0,0.0,0.0,0.4329520591441987,0.017286079937594043,0.07002505191936553
1769183769.3536315,0.04463458061218262,0.061581265181303024,-0.039078593254089355,1.01572847366333,0.6041122114285827,-0.3833609998226166,9.96429632663727,0.6151260582848244,-0.38122489174312896,9.961792828050152,-0.0014695269875185657,-0.0009762004277170111,0.003094036284707613,0.00026778317987918854,0.0002501821145415306,0.003334957640618086,STATIONARY,0,0.0,0.0,0.0,0.43294913148524977,0.017284135106405217,0.07003121600011679
1769183769.408032,0.05455183982849121,0.06352083384990692,-0.039802271872758865,1.0135352611541748,0.623139380067587,-0.3904602870717645,9.942780911922455,0.6166467004190176,-0.38297743976795223,9.958185045722265,5.111514667466288e-05,-0.002728748452540286,-0.0005137460431789975,-5.658343434333801e-05,-0.0015246234834194183,0.001742491964250803,STATIONARY,0,0.0,0.0,0.0,0.4329492835989798,0.017276014615075067,0.07002968714160818
1769183769.4640079,0.05586886405944824,0.06546039879322052,-0.039078593254089355,1.0135352611541748,0.6421665121614933,-0.3833609998226166,9.942780911922455,0.6214894487878355,-0.383050225760569,9.955261891563259,0.004893863515492591,-0.0028015344451570723,-0.0034369002021854556,-0.0006401557475328445,-0.00029279710724949837,0.0013891607522964478,STATIONARY,0,0.0,0.0,0.0,0.4329645589618461,0.017267270101645787,0.07001895944199875
1769183769.5150023,0.051047325134277344,0.061823710799217224,-0.03714878484606743,1.015241026878357,0.606490602940321,-0.3644295793399215,9.959514473676682,0.6186432038000128,-0.37951669244183234,9.956068879690791,0.002047618527669881,0.000731998873579609,-0.002629912074652907,0.0011779293417930603,-2.927146852016449e-06,0.0019182220567017794,STATIONARY,0,0.0,0.0,0.0,0.4329698947064124,0.01726917756583379,0.07001210633978636
1769183769.5653892,0.05029439926147461,0.062308598309755325,-0.03883736953139305,1.0154846906661987,0.6112473494186997,-0.38099459510296585,9.96190481543541,0.6172397349146407,-0.3797971455569924,9.95717633175952,0.0006441496422977533,0.00045154575841954703,-0.0015224600059244864,0.0005532111972570419,0.00032270513474941254,0.07780981808900833,STATIONARY,0,0.0,0.0,0.0,0.43297152410006506,0.017270319762839506,0.0700082552367084
1769183769.6110313,0.04565906524658203,0.06352083384990692,-0.04076717421412468,1.015241026878357,0.623139380067587,-0.39992597904056315,9.959514473676682,0.6183592767525408,-0.38361687888819573,9.957620027546529,0.0017636914801978376,-0.0033681875727837873,-0.0010787642189153956,-0.0006765183061361313,0.0003069019876420498,-9.821684216149151e-05,STATIONARY,0,0.0,0.0,0.0,0.43297520095630027,0.017263297932991504,0.07000600628274498
1769183769.6634593,0.05252432823181152,0.06303593516349792,-0.03956104815006256,1.0167032480239868,0.6183825239539147,-0.38809388235211373,9.97385886311531,0.6183636882406689,-0.3844664541688,9.960701578274872,0.0017681029683259686,-0.004217762853388041,0.0020027865094274233,0.0008374340832233429,0.0003168606199324131,-0.00011513137724250555,STATIONARY,0,0.0,0.0,0.0,0.43298007880770917,0.01725166194750571,0.07001153158029368
1769183769.7117336,0.048211097717285156,0.06352083384990692,-0.03714878484606743,1.0162159204483032,0.623139380067587,-0.3644295793399215,9.969078179597854,0.6192699438995337,-0.3806641713042969,9.962291157884724,0.002674358627190787,-0.0004154799888849703,0.003592366119280044,0.0017356518656015396,0.0006217393092811108,-0.0001516703050583601,STATIONARY,0,0.0,0.0,0.0,0.4329862948460578,0.017250696243236385,0.070019881352584
1769183769.7584772,0.04715919494628906,0.06255104392766953,-0.037631239742040634,1.0154846906661987,0.6136257409304381,-0.36916246186941865,9.96190481543541,0.6181988758604082,-0.37848155784435256,9.962217843893027,0.0016032905880652981,0.00176713347105939,0.0035190521275829667,0.0014077834784984589,-0.00026455242186784744,0.0010444880463182926,STATIONARY,0,0.0,0.0,0.0,0.4329898605477604,0.017254626329817967,0.07002770768815683
1769183769.8157294,0.05676579475402832,0.061823710799217224,-0.04076717421412468,1.0149974822998047,0.606490602940321,-0.39992597904056315,9.957125301361085,0.6159770640321081,-0.38255094271349493,9.961251461292381,-0.0006185212402348705,-0.0023022513980829884,0.0025526695269366684,-0.0007513277232646942,0.0015359669923782349,-0.00021171107073314488,STATIONARY,0,0.0,0.0,0.0,0.4329878674524685,0.017247207657468743,0.07003593329672936
1769183769.858411,0.04272818565368652,0.06521795690059662,-0.04076717421412468,1.0159721374511719,0.6397881571948528,-0.39992597904056315,9.966686668395997,0.6204955586721655,-0.38584810374587875,9.96228286938429,0.0038999733998226205,-0.005599412430466799,0.003584077618846493,-0.0010316316038370132,-0.0018033795058727264,-0.00021474863751791418,STATIONARY,0,0.0,0.0,0.0,0.4329949876255167,0.017236984822237345,0.07004247673952965
1769183769.9197915,0.06132030487060547,0.061823710799217224,-0.038354918360710144,1.0149974822998047,0.606490602940321,-0.3762617491185665,9.957125301361085,0.6178379185136031,-0.3840289561870017,9.96130414726896,0.0012423332412602184,-0.003780264871589778,0.002605355503515483,-0.00011148862540721893,-7.0873647928237915e-06,0.0016648637829348445,STATIONARY,0,0.0,0.0,0.0,0.4329996590218622,0.017222770346668522,0.07005227334463823
1769183769.9699004,0.05013298988342285,0.06255104392766953,-0.03714878484606743,1.0167032480239868,0.6136257409304381,-0.3644295793399215,9.97385886311531,0.6170385977221378,-0.3803096948063205,9.963686583718705,0.0004430124497948329,-6.100349090853996e-05,0.004987791953260157,0.002004416659474373,-0.00030210288241505623,0.0015992780681699514,STATIONARY,0,0.0,0.0,0.0,0.43300077245243934,0.01722261702557761,0.07006480924532406
1769183770.0249145,0.05500650405883789,0.06255104392766953,-0.03931982070207596,1.016459584236145,0.6136257409304381,-0.3857274410873652,9.971468521356583,0.6163909594547479,-0.3813377894580349,9.965163317410253,-0.00020462581759506104,-0.0010890981426229795,0.006464525644808816,-0.0004193633794784546,-0.00029708025977015495,0.003042422002181411,STATIONARY,0,0.0,0.0,0.0,0.4330001533129336,0.01721932172445868,0.07008436906069514
1769183770.0693371,0.04453444480895996,0.062308598309755325,-0.03883736953139305,1.0145100355148315,0.6112473494186997,-0.38099459510296585,9.952343448400498,0.6154148860666183,-0.381272663432813,9.962730564364817,-0.0011806992057246113,-0.001023972117401073,0.004031772599372374,0.0023074019700288773,0.0009241132065653801,0.001780194346792996,STATIONARY,0,0.0,0.0,0.0,0.4329978116123933,0.01721729086338168,0.07009236534292221
1769183770.124504,0.055098533630371094,0.062308598309755325,-0.03714878484606743,1.015241026878357,0.6112473494186997,-0.3644295793399215,9.959514473676682,0.6146240365295074,-0.378076447926217,9.962120265272837,-0.0019715487428355605,0.002172243389194972,0.003421473507392747,0.0004791710525751114,1.260172575712204e-05,0.07740133255720139,STATIONARY,0,0.0,0.0,0.0,0.4329918262892807,0.017223885465017026,0.07010275241782338
1769183770.186933,0.062368154525756836,0.061823710799217224,-0.038354918360710144,1.01572847366333,0.606490602940321,-0.3762617491185665,9.96429632663727,0.6130806014664123,-0.3777320829371909,9.962533203962565,-0.003514983805930627,0.0025166083782210413,0.0038344121971203293,0.0001376662403345108,-0.002405354054644704,0.001003356883302331,STATIONARY,0,0.0,0.0,0.0,0.43297815375202536,0.017233674534813094,0.07011766746338602
1769183770.238932,0.052018165588378906,0.06327838450670242,-0.04028472676873207,1.0142662525177002,0.6207609520107508,-0.39519316960126166,9.94995193719864,0.61453805755762,-0.3810455732486995,9.960145729097409,-0.0020575277147228954,-0.0007968819332875299,0.0014469373319645484,-0.0019892044365406036,-0.0005789031274616718,0.0012702132808044553,STATIONARY,0,0.0,0.0,0.0,0.4329725863092808,0.017231518260316287,0.0701215827159938
1769183770.2868173,0.04785346984863281,0.06303593516349792,-0.03859614208340645,1.0159721374511719,0.6183825239539147,-0.3786281538382173,9.966686668395997,0.615267599905248,-0.38058683342628236,9.961386965648776,-0.001327985367094886,-0.0003381421108704097,0.002688173883331757,-0.001347539946436882,0.000341290608048439,-0.0005638259463012218,STATIONARY,0,0.0,0.0,0.0,0.4329695452831118,0.017230743930241973,0.0701277385120805
1769183770.3397126,0.053032636642456055,0.06303593516349792,-0.038354918360710144,1.0167032480239868,0.6183825239539147,-0.3762617491185665,9.97385886311531,0.6158587011840464,-0.3797660869729953,9.963753686129381,-0.00073688408829653,0.0004826043424166482,0.005054894363937024,-0.0007323082536458969,0.0009507020004093647,-0.0005450330208986998,STATIONARY,0,0.0,0.0,0.0,0.4329674728256841,0.01723210123591592,0.0701419552030597
1769183770.3960235,0.05625748634338379,0.062308598309755325,-0.038354918360710144,1.0159721374511719,0.6112473494186997,-0.3762617491185665,9.966686668395997,0.6149836313965014,-0.37910108886879396,9.964310261359275,-0.0016119538758415652,0.0011476024466179902,0.00561146959383052,0.0022849999368190765,-0.0008424054831266403,0.0016660754336044192,STATIONARY,0,0.0,0.0,0.0,0.43296237114517394,0.017235733288372912,0.07015971496994211
1769183770.4420605,0.04604315757751465,0.06327838450670242,-0.040525950491428375,1.0169469118118286,0.6207609520107508,-0.3975595743209124,9.976249204874039,0.6160799604079817,-0.3826038498302047,9.966575846223888,-0.000515624864361186,-0.0023551585147927323,0.007877054458443666,-0.002275461331009865,0.0009622336365282536,0.001615590532310307,STATIONARY,0,0.0,0.0,0.0,0.4329612780347135,0.01723074041741882,0.07017641410766992
1769183770.5015259,0.059960365295410156,0.062308598309755325,-0.038354918360710144,1.0147536993026733,0.6112473494186997,-0.3762617491185665,9.954733790159226,0.6151629035259937,-0.38140034573753756,9.964328647135224,-0.0014326817463492514,-0.0011516544221256142,0.005629855369779335,0.00019268319010734558,0.0021666879765689373,0.0772775411605835,STATIONARY,0,0.0,0.0,0.0,0.4329561271922462,0.01722659993714796,0.07019665481932659
1769183770.55507,0.05357789993286133,0.06012658774852753,-0.03184181824326515,1.0149974822998047,0.5898418258130551,-0.3123682369664312,9.957125301361085,0.6103578677746152,-0.3683005182183984,9.96296170950458,-0.006237717497727724,0.01194817309701357,0.004262917739135119,-0.0007095914334058762,0.0012339483946561813,0.0021050800569355488,STATIONARY,0,0.0,0.0,0.0,0.4329382212542835,0.017260898259622556,0.07020889191416213
1769183770.6090422,0.05372118949890137,0.06255104392766953,-0.039802271872758865,1.0145100355148315,0.6136257409304381,-0.3904602870717645,9.952343448400498,0.6109779933286186,-0.3725056505113378,9.960946742969545,-0.005617591943724354,0.007743040804074119,0.0022479512041009286,-0.0006909873336553574,0.000302016269415617,0.001113829668611288,STATIONARY,0,0.0,0.0,0.0,0.4329220090738019,0.017283244413677446,0.07021537942535906
1769183770.6552255,0.04687166213989258,0.06327838450670242,-0.041249629110097885,1.0154846906661987,0.6207609520107508,-0.40465886157006026,9.96190481543541,0.6128344493118442,-0.37860718103899915,9.961128550888745,-0.0037611359604987626,0.0016415102764127942,0.0024297591233004567,-0.0009531136602163315,-0.0008840127848088741,0.0010918457992374897,STATIONARY,0,0.0,0.0,0.0,0.43291374603595423,0.017286850734130586,0.07022071749125391
1769183770.7088623,0.05270552635192871,0.062308598309755325,-0.04100840166211128,1.0125603675842285,0.6112473494186997,-0.4022924203053117,9.933217206001283,0.6125332744639951,-0.38310179310665343,9.955831974985706,-0.0040623108083478465,-0.0028531017912414858,-0.0028668167797381017,0.0008804518729448318,0.0009270599111914635,0.0013557528145611286,STATIONARY,0,0.0,0.0,0.0,0.4329024614544406,0.017278925181102075,0.07021275383973591
1769183770.7594175,0.05037808418273926,0.061338815838098526,-0.039078593254089355,1.01572847366333,0.6017337833717465,-0.3833609998226166,9.96429632663727,0.6104839169531008,-0.3831509812791049,9.95743820647234,-0.006111668319242147,-0.002902289963692961,-0.00126058529310491,-0.0009456444531679153,3.059115260839462e-05,-0.07701708376407623,STATIONARY,0,0.0,0.0,0.0,0.4328869503374817,0.017271559310324414,0.07020955453556942
1769183770.8132114,0.054093122482299805,0.061338815838098526,-0.03618388622999191,1.0140225887298584,0.6017337833717465,-0.35496392391622067,9.947561595439911,0.6088234542680445,-0.37780208500027046,9.955563978619509,-0.00777213100429841,0.0024466063151414863,-0.0031348131459356665,0.0014630332589149475,0.0006402637809514999,0.0026158574037253857,STATIONARY,0,0.0,0.0,0.0,0.4328642085699806,0.017278718241633594,0.07020038186572058
1769183770.8739123,0.0604245662689209,0.06473305821418762,-0.04510924220085144,1.0147536993026733,0.6350313010811806,-0.44252166599035264,9.954733790159226,0.6137967671077038,-0.39008354884620605,9.955406438514887,-0.0027988181646391164,-0.009834857530794106,-0.003292353250557767,0.0011392049491405487,-0.0008623856119811535,-0.07581412047147751,STATIONARY,0,0.0,0.0,0.0,0.4328539897260284,0.017242809915873507,0.07018836106189418
1769183770.9252958,0.05161619186401367,0.06279349327087402,-0.03666633740067482,1.015241026878357,0.6160041689872742,-0.35969676990062,9.959514473676682,0.6142156531073142,-0.3843172240136667,9.9561859967961,-0.002379932165028742,-0.004068532698254745,-0.002512794969344867,-0.0007308442145586014,0.0018236292526125908,0.002643138635903597,STATIONARY,0,0.0,0.0,0.0,0.4328476490363516,0.01723197040386614,0.07018166639498048
1769183770.9849231,0.05955028533935547,0.061338815838098526,-0.03328917175531387,1.0135352611541748,0.6017337833717465,-0.3265667749196291,9.942780911922455,0.611847040246385,-0.3733582523734817,9.953642190691227,-0.004748545025957895,0.006890438941930255,-0.0050566010742176815,-0.0009916424751281738,0.0011925292201340199,0.0031304038129746914,STATIONARY,0,0.0,0.0,0.0,0.4328308095727346,0.01725640552983278,0.07016373449176606
1769183771.0354056,0.050473928451538086,0.061581265181303024,-0.04004349932074547,1.0142662525177002,0.6041122114285827,-0.39282672833651305,9.94995193719864,0.6103792461255471,-0.3770526734438541,9.95294191244223,-0.006216339146795868,0.0031960178715578214,-0.005756879323215003,-0.0003882739692926407,-0.0003537624143064022,0.0036216159351170063,STATIONARY,0,0.0,0.0,0.0,0.4328149727186284,0.01726454776074352,0.07014906816552552
1769183771.0978656,0.06254816055297852,0.06449060887098312,-0.04149085283279419,1.0147536993026733,0.6326528730243445,-0.40702526628971103,9.954733790159226,0.6146059846070178,-0.3827404005547844,9.953281946803715,-0.001989600665325164,-0.002491709239372475,-0.005416844961729339,-9.522028267383575e-05,0.00024348637089133263,0.0008183983154594898,STATIONARY,0,0.0,0.0,0.0,0.4328071888588812,0.017254799515486,0.07012787599254863
1769183771.1565022,0.05852985382080078,0.061581265181303024,-0.03859614208340645,1.0147536993026733,0.6041122114285827,-0.3786281538382173,9.954733790159226,0.6126146414319414,-0.3819600430709678,9.953557454793845,-0.003980943840401485,-0.0017113517555558677,-0.005141336971599131,0.0007886625826358795,-0.0003803689032793045,0.0011065606959164143,STATIONARY,0,0.0,0.0,0.0,0.4327935511652484,0.017248936862839834,0.0701102630893547
1769183771.2095227,0.05307650566101074,0.061581265181303024,-0.03232427313923836,1.0147536993026733,0.6041122114285827,-0.3171011194959283,9.954733790159226,0.6110011840347922,-0.3696521369815385,9.953780681212182,-0.005594401237550728,0.010596554333873465,-0.0049181105532625224,-0.0004691053181886673,0.001143899280577898,0.0016500884667038918,STATIONARY,0,0.0,0.0,0.0,0.43277779109107084,0.017278788579804284,0.07009640820411464
1769183771.258829,0.04922795295715332,0.061338815838098526,-0.03883736953139305,1.0159721374511719,0.6017337833717465,-0.38099459510296585,9.966686668395997,0.6092425625411451,-0.37180453023272,9.956229776409792,-0.007353022731197867,0.00844416108269197,-0.0024690153556523597,-0.00018849968910217285,-0.0012612929567694664,0.0009894437389448285,STATIONARY,0,0.0,0.0,0.0,0.4327599718393704,0.017299252086749945,0.07009042481365294
1769183771.3080604,0.04920148849487305,0.06352083384990692,-0.042696982622146606,1.0154846906661987,0.623139380067587,-0.41885739952325823,9.96190481543541,0.6118796819324266,-0.38073348348301733,9.95730669603058,-0.004715903339916339,-0.0004847921676053857,-0.0013920957348645402,0.0019249245524406433,0.0035552531480789185,0.0018422213615849614,STATIONARY,0,0.0,0.0,0.0,0.4327485556443708,0.01729807850842979,0.07008705484713287
1769183771.3578322,0.05092620849609375,0.061096370220184326,-0.03642510995268822,1.015241026878357,0.5993553918600083,-0.35733032863587144,9.959514473676682,0.6095030192073699,-0.3762924009583931,9.957725653337251,-0.007092566064972994,0.003956290357018832,-0.0009731384281934652,-0.0002615172415971756,0.00046908948570489883,0.0023864638060331345,STATIONARY,0,0.0,0.0,0.0,0.43273016122526936,0.017308339063248367,0.07008453103333573
1769183771.4122758,0.05347037315368652,0.12364742159843445,-0.03666633740067482,1.0154846906661987,1.212981205880642,-0.35969676990062,9.96190481543541,0.7240216149407744,-0.37314314319561864,9.958518708969406,0.10742602966843151,0.0071055481197933035,-0.00018008279603876076,-0.0008723828941583633,-0.0001417757011950016,0.07905004918575287,STATIONARY,0,0.0,0.0,0.0,0.43303730092467263,0.017328654399488053,0.07008401616207023
1769183771.4696703,0.0572509765625,0.06327838450670242,-0.039078593254089355,1.0132914781570435,0.6207609520107508,-0.3833609998226166,9.940389400720596,0.7044264309318302,-0.37508212726856344,9.955078414078688,0.08783084565948729,0.00516656404684851,-0.003620377686756271,0.0006884746253490448,0.00046354858204722404,0.003609058912843466,STATIONARY,0,0.0,0.0,0.0,0.4333251818317627,0.017345588713773404,0.0700721497431072
1769183771.51703,0.04741811752319336,0.06400572508573532,-0.04076717421412468,1.015241026878357,0.6278961630910636,-0.39992597904056315,9.959514473676682,0.6899037207531259,-0.3797966025890751,9.955920219676587,0.07330813548078297,0.00045208872633684116,-0.002778572088857345,0.0003955084830522537,-0.00011717109009623528,0.002908355090767145,STATIONARY,0,0.0,0.0,0.0,0.4334900135520414,0.017346605225269596,0.07006590218525675
1769183771.5693662,0.05259442329406738,0.06303593516349792,-0.03811369463801384,1.0169469118118286,0.6183825239539147,-0.3738953443989158,9.976249204874039,0.6763315532688808,-0.3786767546543507,9.95977793465106,0.05973596799653791,0.0015719366610612573,0.0010791428856151697,-0.001704629510641098,-0.0006936760619282722,0.0010096208425238729,STATIONARY,0,0.0,0.0,0.0,0.43365525359544493,0.0173509534745876,0.07006888728156034
1769183771.615219,0.04558253288269043,0.060853924602270126,-0.03666633740067482,1.0167032480239868,0.59697700034827,-0.35969676990062,9.97385886311531,0.661272894702253,-0.3750750317602381,9.962449991719497,0.044677309429910106,0.0051736595551738485,0.0037511999540527086,-0.0005107149481773376,-0.00039198482409119606,0.0040213121101260185,STATIONARY,0,0.0,0.0,0.0,0.4337480826482092,0.017361703135253377,0.07007668140217564
1769183771.673251,0.05805540084838867,0.06424816697835922,-0.041249629110097885,1.01719069480896,0.630274518057704,-0.40465886157006026,9.978640716075898,0.6553905104806824,-0.38068898553860575,9.96552241265889,0.03879492520833949,-0.0004402942231938045,0.006823620893445792,0.0009993650019168854,0.00021520163863897324,0.0012510332744568586,STATIONARY,0,0.0,0.0,0.0,0.4338788382112068,0.017360219154585053,0.07009967993579347
1769183771.7150326,0.04168963432312012,0.06303593516349792,-0.039802271872758865,1.0154846906661987,0.6183825239539147,-0.3904602870717645,9.96190481543541,0.6483677170449675,-0.38254322941150126,9.964835921973542,0.03177213177262461,-0.002294538096089316,0.006137130208097474,0.0021470654755830765,-8.722348138689995e-05,0.001769557362422347,STATIONARY,0,0.0,0.0,0.0,0.4339340589899118,0.01735623118861094,0.07011034642526702
1769183771.7742412,0.06276988983154297,0.061823710799217224,-0.03739001601934433,1.0167032480239868,0.606490602940321,-0.3667960571497679,9.97385886311531,0.6404209371835968,-0.3795549788102213,9.966548153785327,0.0238253519112539,0.0006937125051906246,0.007849362019882733,-0.0003067031502723694,-8.431635797023773e-05,0.0022960337810218334,STATIONARY,0,0.0,0.0,0.0,0.4340279322837929,0.017358964456858614,0.07014127337528296
1769183771.8355427,0.05821037292480469,0.062308598309755325,-0.03931982070207596,1.0159721374511719,0.6112473494186997,-0.3857274410873652,9.966686668395997,0.6348848326861694,-0.38072629158971477,9.966574438908888,0.018289247413826426,-0.00047760027430282515,0.007875647143443132,0.012010741978883743,-0.020501859486103058,0.006098160054534674,STATIONARY,0,0.0,0.0,0.0,0.4340899044387626,0.017357346133395492,0.0701679595922834
1769183771.885883,0.04981064796447754,0.07612801343202591,-0.03160059452056885,0.9818546175956726,0.7468158117681742,-0.3100018322467804,9.631993798613548,0.6561253328841925,-0.3673053164048369,9.903082988957028,0.039529747611849575,0.012943374910575067,-0.0556158028084166,0.024631794542074203,0.06892624497413635,0.005314492154866457,STATIONARY,0,0.0,0.0,0.0,0.43418798172128203,0.01738945994930761,0.07002997118774952
1769183771.9397204,0.05392265319824219,0.06352083384990692,-0.03883736953139305,1.0193839073181152,0.623139380067587,-0.38099459510296585,10.00015613079071,0.6498657777272616,-0.3699030523424934,9.921504002560692,0.03327019245491869,0.01034563897291857,-0.03719478920475261,-0.013903266750276089,0.009887434542179108,0.006068535149097443,STATIONARY,0,0.0,0.0,0.0,0.43428471988047856,0.01741954147262035,0.0699218216648922
1769183771.9907176,0.051111698150634766,0.06036903336644173,-0.03931982070207596,1.017678141593933,0.5922202173247934,-0.3857274410873652,9.983422569036485,0.6389267102127469,-0.37290595587309494,9.933253933940518,0.022331124940404012,0.0073427354423170055,-0.025444857824926004,-0.010976898483932018,0.017721474170684814,0.006272552534937859,STATIONARY,0,0.0,0.0,0.0,0.4343430578382888,0.017438723676454174,0.06985534937358405
1769183772.0409472,0.05024290084838867,0.06036903336644173,-0.038354918360710144,1.015241026878357,0.5922202173247934,-0.3762617491185665,9.959514473676682,0.6300634868265858,-0.3735427655184635,9.938237246014092,0.013467901554242823,0.006705925796948453,-0.020461545751352617,-0.0031287800520658493,-0.005520346108824015,0.01252874918282032,STATIONARY,0,0.0,0.0,0.0,0.43437705552326306,0.01745565177410821,0.06980369728927541
1769183772.0896173,0.048607826232910156,0.06643018126487732,-0.03859614208340645,1.0206023454666138,0.6516800782084465,-0.3786281538382173,10.012109009027482,0.6341655434448041,-0.3745077905052781,9.952255466972963,0.01756995817246121,0.005740900810133842,-0.006443324792481775,-0.0074002863839268684,0.0009648902341723442,0.02385815419256687,STATIONARY,0,0.0,0.0,0.0,0.4344185684283843,0.017469215919697075,0.06978847351195334
1769183772.143132,0.05350780487060547,0.045579832047224045,-0.04100840166211128,1.0208460092544556,0.44713815238326793,-0.4022924203053117,10.01449935078621,0.5986744276745413,-0.37978032041263504,9.964067131958867,-0.017921157597801662,0.0004683709027769045,0.005368340193422583,0.012373397126793861,0.0018411986529827118,0.043341975659132004,STATIONARY,0,0.0,0.0,0.0,0.43436725862762043,0.01747055690548853,0.06980384352721344
1769183772.195954,0.05270218849182129,0.06255104392766953,-0.01978052407503128,1.0074427127838135,0.6136257409304381,-0.19404694117605686,9.883013012409211,0.601511652674958,-0.34453476184780074,9.948685956376693,-0.015083932597384941,0.035713929467611205,-0.01001283538875164,-0.009413264691829681,0.06598836183547974,0.03358738496899605,STATIONARY,0,0.0,0.0,0.0,0.43432536269301875,0.017569753082857006,0.06977603266993758
1769183772.2388055,0.04280400276184082,0.053822994232177734,-0.0349777527153492,1.017678141593933,0.5280035734176636,-0.34313175413757563,9.983422569036485,0.5875624458974763,-0.3442685211181004,9.9552777242155,-0.029033139374866623,0.035980170197311534,-0.003421067549943757,0.0033540762960910797,-0.08382712304592133,0.007444621995091438,STATIONARY,0,0.0,0.0,0.0,0.4342721686787104,0.017635675326524203,0.06976976464931976
1769183772.28983,0.05100822448730469,0.07006686925888062,-0.040525950491428375,1.017678141593933,0.6873559874296189,-0.3975595743209124,9.983422569036485,0.6064996941558156,-0.35438125876580645,9.960618610062264,-0.010095891116527311,0.025867432549605496,0.001919818296819642,-0.00550172571092844,0.04010613635182381,-0.00016463268548250198,STATIONARY,0,0.0,0.0,0.0,0.4342459007958135,0.01770297822046526,0.06977475970737082
1769183772.3399413,0.0502321720123291,0.07588557153940201,-0.04028472676873207,1.02303946018219,0.7444374568015337,-0.39519316960126166,10.036017104387284,0.6326753525733545,-0.36212590110961274,9.974926550069364,0.01607976730101157,0.01812279020579921,0.01622775830391987,-0.014652861282229424,0.13033288717269897,-0.008360596373677254,STATIONARY,0,0.0,0.0,0.0,0.4342864744080205,0.01774870693333491,0.06981570674099927
1769183772.390149,0.05014395713806152,0.07176399230957031,-0.040525950491428375,1.0174343585968018,0.7040047645568848,-0.3975595743209124,9.981031057834626,0.6462111261526337,-0.3688499461330186,9.976084967510722,0.029615540880290725,0.011398745182393366,0.01738617574527801,-0.020256252959370613,-0.003861662931740284,0.009668534621596336,STATIONARY,0,0.0,0.0,0.0,0.4343609402108143,0.01777736812558798,0.06985942282707783
1769183772.445062,0.05487465858459473,0.04776184633374214,-0.04149085283279419,1.0181653499603271,0.46854371253401045,-0.40702526628971103,9.98820208311081,0.6124961996407889,-0.3760942577793391,9.978384363070504,-0.004099385631553987,0.004154433536072866,0.019685571305059213,-0.013045165687799454,0.03097054548561573,0.037089891731739044,STATIONARY,0,0.0,0.0,0.0,0.4343485960253833,0.017789878072818947,0.06991870057363447
1769183772.4879286,0.04294776916503906,0.06861218810081482,-0.04293820634484291,1.0167032480239868,0.6730855652689934,-0.42122380424290895,9.97385886311531,0.6239938961961019,-0.3846582330832079,9.977525584888781,0.007398310923758977,-0.004409541767795955,0.01882679312333657,-0.03911997377872467,-0.009337853640317917,0.01595061644911766,STATIONARY,0,0.0,0.0,0.0,0.43436224229034803,0.017781744625068954,0.06995342679831544
1769183772.5488253,0.06084871292114258,0.04097335785627365,-0.032083041965961456,1.0181653499603271,0.40194864057004454,-0.3147346416860819,9.98820208311081,0.5818576410254936,-0.37138923401701535,9.979551602747813,-0.034737944246849284,0.0088594572983966,0.020852810982368908,-0.016055721789598465,0.047432176768779755,0.04483316093683243,STATIONARY,0,0.0,0.0,0.0,0.4342336227637886,0.017814547349236976,0.07003063570443054
1769183772.5905995,0.04178285598754883,0.06691507250070572,-0.03618388622999191,1.0145100355148315,0.6564368612319231,-0.35496392391622067,9.952343448400498,0.5960101120800219,-0.3682722970857935,9.974388467282175,-0.02058547319232107,0.011976394229618437,0.015689675516730617,0.0021781809628009796,-0.01085306890308857,-0.01592116802930832,STATIONARY,0,0.0,0.0,0.0,0.43419768449946966,0.017835455822770234,0.07005802685063009
1769183772.650733,0.060095787048339844,0.01600143127143383,-0.019539296627044678,1.0232830047607422,0.1569740407727659,-0.1916804999113083,10.038406276702881,0.5126967538299437,-0.33476148414002393,9.986536759960659,-0.1038988314423992,0.04548720717538801,0.027837968195214557,-0.012558616697788239,0.010186424478888512,0.043849218636751175,STATIONARY,0,0.0,0.0,0.0,0.43382245349350196,0.017999733036191477,0.07015856377356726
1769183772.7015002,0.05075216293334961,-0.03258230537176132,-0.011578842997550964,1.0154846906661987,-0.3196324156969786,-0.11358844980597496,9.96190481543541,0.3547504190873104,-0.2927907454035394,9.981862497063496,-0.2618451661850325,0.08745794591187256,0.02316370529805134,-0.009293491020798683,0.02421584539115429,0.05939875543117523,STATIONARY,0,0.0,0.0,0.0,0.43314799741654986,0.01822500564273763,0.07021822842970973
1769183772.7456222,0.04413485527038574,-0.016537988558411598,-0.019298071041703224,1.0115855932235718,-0.1622376677580178,-0.18931407691910865,9.92365466952324,0.25664455374891615,-0.2731545712588992,9.970816731337731,-0.3599510315234268,0.10709412005651275,0.012117939572286573,-0.011039193719625473,0.03130606934428215,0.12315987050533295,STATIONARY,0,0.0,0.0,0.0,0.43244685403962724,0.018433612720948196,0.07024183278788339
1769183772.7969742,0.05147862434387207,0.036366891115903854,-0.02605239674448967,1.0232830047607422,0.3567592018470168,-0.25557401206344366,10.038406276702881,0.2756427365593674,-0.2698184093300479,9.983642811869565,-0.34095284871297554,0.11043028198536403,0.024944020104120668,0.007286762818694115,0.03833102062344551,0.13415543735027313,STATIONARY,0,0.0,0.0,0.0,0.4315433123641981,0.01872625835326895,0.07030793565753793
1769183772.8480783,0.05130267143249512,0.019153228029608727,-0.023640137165784836,1.0103671550750732,0.18789316697046163,-0.23190974559634925,9.911701791286468,0.25899100380838275,-0.2626246995443728,9.96999097683271,-0.3576045814639602,0.11762399177103916,0.011292185067265592,-0.053494326770305634,0.0542135164141655,0.25021985173225403,STATIONARY,0,0.0,0.0,0.0,0.4306021099451803,0.01903584047645153,0.07033765628320161
1769183772.896546,0.048201799392700195,0.04945896565914154,-0.12302520871162415,1.017678141593933,0.48519245311617853,-1.206877297461033,9.983422569036485,0.3019159560264394,-0.4418101016334459,9.972539813081655,-0.31467962924590354,-0.06156141031803397,0.013841021316210345,-0.03608466684818268,-0.0077893054112792015,0.1106371283531189,STATIONARY,0,0.0,0.0,0.0,0.4298709790575254,0.01889280786681305,0.07036981469849281
1769183772.950174,0.05366325378417969,0.020365456119179726,-0.04366188496351242,1.0237704515457153,0.19978512452915312,-0.4283230914920569,10.043188129663468,0.28253517365114134,-0.43925074904019257,9.985946339091283,-0.3340604116212016,-0.05900205772478062,0.027247547325838894,-0.027442585676908493,-0.003688877448439598,0.039369530975818634,STATIONARY,0,0.0,0.0,0.0,0.42890897032203346,0.018722896997495186,0.07044828068139986
1769183772.9999807,0.04971766471862793,0.03442732244729996,-0.006995550822466612,1.010123372077942,0.3377320332080126,-0.06862635356839747,9.909310280084611,0.29300956524463423,-0.3689194823080097,9.971403553529528,-0.3235860200277087,0.011329209007402252,0.012704761764084083,-0.0577530600130558,-0.008647267706692219,0.05394355207681656,STATIONARY,0,0.0,0.0,0.0,0.4281091154528847,0.018750901059560038,0.07047968489829867
1769183773.0546215,0.05517220497131348,-0.007651905063539743,-0.02267523482441902,1.0145100355148315,-0.07506518867332489,-0.22244405362755063,9.952343448400498,0.2231621293729807,-0.341123679953655,9.967786626651128,-0.39343345589936224,0.039125011361756945,0.009087834885683321,-0.025551293045282364,0.129635751247406,0.03291688486933708,STATIONARY,0,0.0,0.0,0.0,0.42691151495002766,0.01886999650652455,0.07050734801506157
1769183773.1031091,0.04794001579284668,-0.002715192036703229,-0.05717053636908531,1.0128040313720703,-0.02663603388005868,-0.5608429617807269,9.93560754776001,0.17575936402993175,-0.3828185484112805,9.961680187333213,-0.4408362212424112,-0.002569857095868544,0.0029813955677688853,0.010314245708286762,-0.07619606703519821,-0.17891214787960052,STATIONARY,0,0.0,0.0,0.0,0.4258983652583868,0.018864090345009733,0.07051419999285875
1769183773.1565754,0.053516387939453125,-0.05553802102804184,-0.002412258880212903,1.0257201194763184,-0.5448279862850904,-0.02366425961488858,10.062314372062684,0.039017633701228877,-0.31466389806455564,9.980776959631687,-0.577577951571114,0.06558479325085631,0.022078167866242282,-0.05901895835995674,0.05116933584213257,0.16042350232601166,STATIONARY,0,0.0,0.0,0.0,0.42424417982294793,0.01905192544066518,0.07057743194904088
1769183773.2074533,0.050870418548583984,0.08825031667947769,-0.06271872669458389,1.0162159204483032,0.8657356066256762,-0.615270708873868,9.969078179597854,0.19589916383370415,-0.37170832916744434,9.978556949213989,-0.4206964214386388,0.008540362147967606,0.019858157448544134,-0.1521759033203125,0.005049008876085281,-0.1902131587266922,STATIONARY,0,0.0,0.0,0.0,0.42315550184091943,0.019074026185418952,0.07062882087862568
1769183773.257893,0.05039191246032715,0.013334525749087334,-0.051863569766283035,1.0218209028244019,0.13081169759854674,-0.5087816194072367,10.024063056707382,0.18354788851390355,-0.39771994161254687,9.987192382345656,-0.43304769675843935,-0.01747125029713492,0.028493590580211503,-0.057516127824783325,0.07259947806596756,-0.0781753808259964,STATIONARY,0,0.0,0.0,0.0,0.42205584440607175,0.019029660656103953,0.07070117593087877
1769183773.308411,0.05060839653015137,0.02472948282957077,-0.07960454374551773,1.010123372077942,0.24259622655808927,-0.780920574143529,9.909310280084611,0.19475315309933683,-0.4704377287516525,9.972413142299107,-0.4218424321730061,-0.09018903743624057,0.013714350533662767,-0.12382756918668747,0.05901306867599487,-0.136056050658226,STATIONARY,0,0.0,0.0,0.0,0.4209754174350073,0.018798667609628037,0.07073630125985735
1769183773.351167,0.04267764091491699,0.01260718796402216,-0.041249629110097885,1.0264511108398438,0.12367651392705739,-0.40465886157006026,10.069485397338868,0.18126534676729755,-0.45795525023806133,9.990833987620972,-0.4353302385050454,-0.07770655892264938,0.0321351958555276,-0.10547264665365219,0.0897333100438118,0.010974632576107979,STATIONARY,0,0.0,0.0,0.0,0.4201825151950403,0.018657134356984056,0.07079483169611449
1769183773.4058144,0.0546724796295166,-0.004196206107735634,-0.06271872669458389,1.0218209028244019,-0.04116478191688657,-0.615270708873868,10.024063056707382,0.13905605644293295,-0.4878081029309505,9.997139677558634,-0.47753952882941,-0.10755941161553856,0.038440885793189494,-0.19893501698970795,-0.11093592643737793,0.1539171040058136,STATIONARY,0,0.0,0.0,0.0,0.41875511132643467,0.018335630667810278,0.07090973458012982
1769183773.4561243,0.05029177665710449,-0.058253213763237,-0.04728027433156967,0.9923335909843445,-0.571464027017355,-0.4638194911926985,9.73479252755642,0.004224733629426297,-0.48325592160853625,9.947355562943766,-0.6123708516429166,-0.10300723029312431,-0.011343228821678153,-0.026060162112116814,0.06896388530731201,-0.009183920919895172,STATIONARY,0,0.0,0.0,0.0,0.4172062645119814,0.018075098312168057,0.07088104457344689
1769183773.4981291,0.041977643966674805,-0.005924055352807045,-0.1326742321252823,1.034493088722229,-0.05811498301103712,-1.3015342171490194,10.148377200365067,-0.007605117002688372,-0.6385359025486829,9.985502286616448,-0.6242007022750313,-0.2582872112332709,0.026803494851003862,-0.14264650642871857,0.002642448991537094,0.0010753738461062312,STATIONARY,0,0.0,0.0,0.0,0.41610634635194055,0.017619964581772778,0.07092827561729502
1769183773.5519726,0.05394148826599121,0.05745968222618103,-0.14594165980815887,1.0376611948013306,0.5636794826388359,-1.4316876827180387,10.179456321001053,0.10080428628613004,-0.7890477687176269,10.022307831779555,-0.5157912989862129,-0.408799077402215,0.06360904001411072,-0.07484046369791031,0.042654119431972504,0.18097518384456635,STATIONARY,0,0.0,0.0,0.0,0.41460555658129716,0.01643048838312503,0.07111335783322471
1769183773.6035638,0.051512956619262695,0.04751940071582794,-0.1399110108613968,0.9925772547721863,0.46616532102227215,-1.3725270165503025,9.737182869315149,0.1701367552264523,-0.899771280481537,9.968201302279358,-0.4464588300458906,-0.519522589166125,0.009502510513913265,-0.06873180717229843,-0.10273180902004242,0.15592971444129944,STATIONARY,0,0.0,0.0,0.0,0.4134208402608602,0.01505189118938707,0.07113857354973277
1769183773.6549225,0.05139017105102539,-0.005924055352807045,-0.06006524711847305,0.9406698346138,-0.05811498301103712,-0.5892400742322207,9.22797107756138,0.12682273143255196,-0.840843553752741,9.827732056288168,-0.48977285383979097,-0.46059486243732906,-0.13096673547727633,-0.013448505662381649,-0.2814099192619324,0.15470798313617706,STATIONARY,0,0.0,0.0,0.0,0.41212737479891914,0.013835483334522494,0.0707926969914978
1769183773.705195,0.050321102142333984,0.05115608870983124,-0.08660009503364563,1.0357115268707275,0.5018412302434445,-0.8495469322800637,10.160330078601838,0.19798784196391983,-0.8424951439992413,9.890847276192032,-0.4186077433084231,-0.46224645268382936,-0.06785151557341251,-0.0449080690741539,-0.2245994210243225,0.5334444046020508,STATIONARY,0,0.0,0.0,0.0,0.4110673706951155,0.012664976709535074,0.07062088247992504
1769183773.759048,0.053885459899902344,0.1653481274843216,-0.11506475508213043,0.9745436906814575,1.6220651306211948,-1.1287852473556996,9.560273605585099,0.46822682477103156,-0.89682277560675,9.828116205905909,-0.14836876050131137,-0.516574084291338,-0.13058258585953553,0.101699598133564,-0.21726903319358826,0.1986902803182602,STATIONARY,0,0.0,0.0,0.0,0.4106365608136288,0.011165030094892493,0.07024171729617412
1769183773.8102024,0.05102396011352539,0.07127910107374191,-0.08274048566818237,0.9967200756072998,0.6992479815334082,-0.8116841644048691,9.777823941707611,0.5120663852412722,-0.8806665094601984,9.818572531255477,-0.10452920003107069,-0.5004178181447865,-0.1401262605099678,0.046721719205379486,-0.18672578036785126,0.25580617785453796,STATIONARY,0,0.0,0.0,0.0,0.4103644248421262,0.009862220075705766,0.06987690635314983
1769183773.8601491,0.04994320869445801,0.10182727873325348,-0.07285021990537643,1.0486276149749756,0.9989256043732166,-0.7146606572717429,10.28703690290451,0.6044548680830524,-0.8491645306050097,9.907470329348424,-0.01214071718929055,-0.4689158392895978,-0.05122846241702028,-0.2171720564365387,0.17826621234416962,0.45372653007507324,STATIONARY,0,0.0,0.0,0.0,0.41033414195871404,0.008692591999380099,0.06974912596500872
1769183773.9104624,0.050492048263549805,0.022789916023612022,-0.1201304942369461,1.0439972877502441,0.22356907619163396,-1.1784801484644414,10.241613392829896,0.5321763549810926,-0.9116568674336789,9.970878742856954,-0.08441923029125031,-0.531408176118267,0.012179951091509267,-0.09408271312713623,0.09915915131568909,0.18005889654159546,STATIONARY,0,0.0,0.0,0.0,0.41011891961055247,0.007337795052027651,0.06978017810402211
1769183773.9574776,0.0468747615814209,-0.043196238577365875,-0.13243302702903748,0.9362832903862,-0.42375510044395925,-1.2991679951548576,9.184939078688622,0.3507747230577576,-0.9851926325328797,9.821735478594329,-0.26582086221458534,-0.6049439412174678,-0.13696331317111543,-0.1356215476989746,0.46445655822753906,0.048417430371046066,STATIONARY,0,0.0,0.0,0.0,0.4095348465091447,0.006008586046454873,0.06947923638546594
1769183774.0142865,0.05690455436706543,0.0016971214208751917,-0.14256450533866882,0.9879470467567444,0.01664876113878563,-1.3985577973723413,9.691760528683663,0.2873695548147007,-1.063634570034345,9.797070877498568,-0.3292260304576422,-0.6833858787189331,-0.16162791426687662,-0.08278170973062515,0.1547478884458542,-0.0077821724116802216,STATIONARY,0,0.0,0.0,0.0,0.4084687703802834,0.0037956948874828802,0.06895586446096154
1769183774.0641537,0.04982757568359375,-0.05899371951818466,-0.19466930627822876,1.1180812120437622,-0.5787283884733916,-1.9097058945894243,10.968376690149308,0.12301511347241345,-1.2241886747526431,10.019342866447456,-0.4935804717999295,-0.8439399834372312,0.060644074682011606,-0.1866288036108017,0.7787467241287231,0.06094016879796982,STATIONARY,0,0.0,0.0,0.0,0.40724331505410877,0.0017003714159050244,0.06910643079931159
1769183774.107185,0.04298567771911621,0.027396388351917267,-0.07260899990797043,1.0169469118118286,0.2687585697323084,-0.71229428909719,9.976249204874039,0.15067201361692906,-1.1270494118867684,10.011165229347426,-0.46592357165541387,-0.7468007205713565,0.052466437581982106,-0.08155997842550278,0.03226941078901291,0.011765515431761742,STATIONARY,0,0.0,0.0,0.0,0.4063823961601347,0.0003204565768918943,0.06920337662940418
1769183774.161004,0.05381965637207031,-0.1397089660167694,-0.0984201654791832,0.9630899429321289,-1.370544956624508,-0.9655018233507872,9.447912340164185,-0.13800060966082173,-1.096393452165602,9.904279957706333,-0.7545961949331647,-0.7161447608501901,-0.05441883405911163,-0.13409438729286194,0.5029410719871521,-0.07009042799472809,STATIONARY,0,0.0,0.0,0.0,0.4041966664678206,-0.001753896405929704,0.06904574946109511
1769183774.2063327,0.04539227485656738,-0.04368991032242775,-0.19973504543304443,0.9806361198425293,-0.42859802026301624,-1.959400795698166,9.620040335655213,-0.1931456142704818,-1.2601614081107482,9.850341434180692,-0.8097411995428248,-0.8799127167953362,-0.10835735758475273,-0.10446742177009583,-0.05569518357515335,-0.19470693171024323,STATIONARY,0,0.0,0.0,0.0,0.4025282282359627,-0.0035669201451542258,0.06882248360998174
1769183774.2651696,0.05892229080200195,-0.11724693328142166,-0.2183094322681427,0.9808798432350159,-1.1501924154907466,-2.14161553055048,9.622431262135507,-0.3747588989710763,-1.4274299035333835,9.8070922274449,-0.9913544842434192,-1.0471812122179716,-0.1516065643205451,0.07054546475410461,0.1342839151620865,-0.16691257059574127,STATIONARY,0,0.0,0.0,0.0,0.39908640769850423,-0.007202561946283653,0.0682961304285663
1769183774.3195767,0.05427956581115723,0.004364026710391045,-0.07260899990797043,0.9979385733604431,0.04281110202893615,-0.71229428909719,9.789777404665948,-0.2955190338178265,-1.2917227178675035,9.803806492792337,-0.9121146190901694,-0.9114740265520915,-0.15489229897310786,0.1319374293088913,-0.2539209723472595,-0.2112002968788147,STATIONARY,0,0.0,0.0,0.0,0.3963990706062137,-0.009888011679186858,0.06783977569898661
1769183774.3696496,0.05006766319274902,-0.027645593509078026,-0.2318180948495865,1.029862880706787,-0.27120327232405544,-2.2741355104744434,10.102954859733583,-0.29090477116186303,-1.4781495613298505,9.860574163363667,-0.9075003564342059,-1.0979008700144386,-0.09812462840177716,-0.11027064174413681,-0.05997123941779137,-0.028246158733963966,STATIONARY,0,0.0,0.0,0.0,0.39412417512315867,-0.01264019762856962,0.06759379973617294
1769183774.4207253,0.051323890686035156,-0.12563934922218323,-0.15920908749103546,1.0084174871444702,-1.2325220158696175,-1.561841148287058,9.892575548887253,-0.4695900773810107,-1.494031233981307,9.866646882829944,-1.0861856626533537,-1.1137825426658952,-0.09205190893550075,-0.09855367988348007,-0.06586764007806778,-0.07628902047872543,STATIONARY,0,0.0,0.0,0.0,0.39126300811531595,-0.015574058730365315,0.06735132195920447
1769183774.470791,0.049936771392822266,-0.03801268711686134,-0.17223529517650604,0.9669890999794006,-0.3729044606164098,-1.6896282456815244,9.48616307079792,-0.4512426021880178,-1.5311485575303792,9.794444651141344,-1.0678381874603606,-1.1508998662149672,-0.1642541406241005,0.13785116374492645,-0.5585304498672485,-0.2650463581085205,STATIONARY,0,0.0,0.0,0.0,0.38860016016972937,-0.018444036017481368,0.06694172450703317
1769183774.5236757,0.05280637741088867,-0.047886114567518234,-0.16089767217636108,0.9245858788490295,-0.4697627839073539,-1.5784061640501024,9.07018747150898,-0.4547570708963526,-1.5401163625908967,9.657006518342289,-1.0713526561686955,-1.1598676712754847,-0.3016922734231553,0.017817014828324318,-0.16325877606868744,-0.04047242924571037,STATIONARY,0,0.0,0.0,0.0,0.38561267882981903,-0.021678342671550253,0.06610045153117666
1769183774.5699718,0.046672821044921875,-0.050601307302713394,-0.1415995955467224,0.8734095096588135,-0.49639882463961843,-1.3890920323133469,8.568147289752961,-0.46265918777126935,-1.511457341259399,9.450379944982947,-1.0792547730436124,-1.131208649943987,-0.5083188467824975,0.11036310344934464,-0.4470056891441345,-0.06276901066303253,STATIONARY,0,0.0,0.0,0.0,0.38326168179438247,-0.024142513550293298,0.06499315404063882
1769183774.6263342,0.05607032775878906,-0.004689877387136221,-0.24460305273532867,0.8122416138648987,-0.04600769716780633,-2.3995559473335746,7.9680902320146565,-0.3835936230701357,-1.6799867222483955,9.169094324147236,-1.0001892083424786,-1.2997380309329836,-0.7896044676182079,-0.09580391645431519,-1.1284258365631104,0.4552447199821472,STATIONARY,0,0.0,0.0,0.0,0.38011720529076753,-0.028228736102020775,0.06251073104020524
1769183774.6709182,0.04449796676635742,-0.17031659185886383,-0.309492826461792,0.06726032495498657,-1.6708057661354543,-3.0361246275901794,0.6598237878084183,-0.6278604918486677,-1.937333237781465,7.5543388382712555,-1.2444560771210105,-1.557084546466053,-2.404359953494189,0.7981973886489868,-6.686383247375488,4.883712291717529,STATIONARY,0,0.0,0.0,0.0,0.3776530963329307,-0.03131187101501233,0.05774993232003228
1769183774.720102,0.04911494255065918,0.18522869050502777,-0.128090962767601,1.6439789533615112,1.8170934538543224,-1.256572344750166,16.127433532476427,-0.16389559853870722,-1.8081491459256795,9.18120586868046,-0.7804911838110502,-1.4279004546102676,-0.777492923084985,-0.025859849527478218,2.7545390129089355,3.172067880630493,STATIONARY,0,0.0,0.0,0.0,0.37577033494746626,-0.03475636327064581,0.05587440357170156
1769183774.7730792,0.05298590660095215,0.37748828530311584,-1.2177083492279053,1.5974328517913818,3.703160078823567,-11.945718905925752,15.670816276073456,0.5699333874527608,-3.7318976404063555,10.412702030635188,-0.04666219781958214,-3.3516489490909436,0.4540032388697437,2.1588997840881348,-1.8022102117538452,-0.5664274096488953,STATIONARY,0,0.0,0.0,0.0,0.3756393305331941,-0.044166138804992414,0.05714902052428823
1769183774.8202581,0.04723024368286133,0.5098637342453003,0.079393170773983,1.0147536993026733,5.001763232946396,0.7788470052927733,9.954733790159226,1.4109363294697874,-2.875919489174338,10.32579602318044,0.7943407441974445,-2.495670797858926,0.36709723141499495,-0.47667840123176575,0.15072594583034515,-0.06796136498451233,STATIONARY,0,0.0,0.0,0.0,0.37741126318904844,-0.049733221467302795,0.05796790282004048
1769183774.873525,0.053351402282714844,-0.03381648287177086,-0.12350765615701675,0.9652832746505737,-0.3317396969720721,-1.2116101069003344,9.469428924322129,1.080238690725739,-2.560093039216606,10.16328814839848,0.46364310545339615,-2.179844347901194,0.20458935663303635,-0.021889224648475647,0.10613278299570084,-0.12416096776723862,STATIONARY,0,0.0,0.0,0.0,0.37873096400060613,-0.05593786965716739,0.0585502402619413
1769183774.92518,0.051841020584106445,-0.031101291999220848,-0.14497676491737366,1.030106544494629,-0.30510367451235654,-1.4222220638394356,10.10534520149231,0.8173502122678542,-2.3441657876545836,10.15229264755208,0.20075462699551128,-1.9639170963391717,0.19359385578663613,0.13327054679393768,0.07497865706682205,0.15714247524738312,STATIONARY,0,0.0,0.0,0.0,0.3792704903372186,-0.06121587999374686,0.05907052208740369
1769183774.9814963,0.05600619316101074,0.046792060136795044,-0.18502025306224823,0.9718630313873291,0.4590301099419594,-1.8150486825406553,9.5339763379097,0.7493538607052291,-2.2437582680552426,10.034958306290061,0.1327582754328862,-1.8635095767398306,0.07625951452461699,0.37272971868515015,-0.41462981700897217,1.3929227590560913,STATIONARY,0,0.0,0.0,0.0,0.3796869123797261,-0.06706113869154195,0.05930972482407247
1769183775.0289671,0.04786539077758789,-0.28435465693473816,-0.20069994032382965,0.9496866464614868,-2.7895191845297815,-1.968866414576769,9.316426001787185,0.07780221133546472,-2.191593616980702,9.898606550223514,-0.5387933739368782,-1.8113449256652903,-0.06009224154193049,0.45397478342056274,-0.6485912203788757,2.4695727825164795,STATIONARY,0,0.0,0.0,0.0,0.3784524852329143,-0.07121110314292921,0.05917204775182098
1769183775.0784862,0.049065351486206055,-0.27053186297416687,-0.16089767217636108,1.0803080797195435,-2.653917575776577,-1.5784061640501024,10.597822262048721,-0.44058059166483,-2.0752325494530472,10.031292707240002,-1.057176176937173,-1.6949838581376353,0.07259391547455785,0.19618965685367584,-0.3675931990146637,3.461923360824585,STATIONARY,0,0.0,0.0,0.0,0.37590743008971667,-0.07529162205727713,0.05934681097669675
1769183775.1278772,0.04948258399963379,0.14692223072052002,-0.0045832921750843525,1.0159721374511719,1.4413070833683015,-0.0449620962375775,9.966686668395997,-0.08346555647056664,-1.6899597651243274,10.019032789636189,-0.7000611417429096,-1.3097110738089155,0.06033399787074423,0.1073087751865387,-0.5306942462921143,2.225837469100952,STATIONARY,0,0.0,0.0,0.0,0.3741933120990656,-0.07849848383020958,0.0594945403463639
1769183775.1739223,0.04596734046936035,0.2700847387313843,-0.266313374042511,1.010610818862915,2.64953128695488,-2.612534199357033,9.914092133045196,0.43515958618493544,-1.865031426372409,9.999118802861638,-0.18143599908740748,-1.484782735056997,0.04042001109619342,0.16686813533306122,-0.48976626992225647,1.0175461769104004,STATIONARY,0,0.0,0.0,0.0,0.3738099384880094,-0.08163582438906113,0.059579947683886886
1769183775.2243772,0.05054640769958496,0.4308263957500458,-0.0492100827395916,1.0011066198349,4.226406942307949,-0.4827509116753936,9.820855940580369,1.1546028616653339,-1.6027239777380593,9.965290881470802,0.538007276392991,-1.2224752864226474,0.006592089705357296,-0.1300123780965805,-0.06307689100503922,0.0768136978149414,STATIONARY,0,0.0,0.0,0.0,0.375184514439009,-0.0847591745799245,0.059596790073150774
1769183775.273965,0.04949474334716797,-0.06837347894906998,-0.05934157222509384,1.0539889335632324,-0.6707438284903765,-0.5821408235281706,10.33963143825531,0.8082172850207489,-1.409053763585708,10.036327342830477,0.19162169974840593,-1.0288050722702962,0.07762855106503253,-0.01914033107459545,0.059707023203372955,0.6342282295227051,STATIONARY,0,0.0,0.0,0.0,0.3756539357925262,-0.08727946883764456,0.059786959033975
1769183775.3308983,0.05691885948181152,0.022305024787783623,-0.05162234231829643,1.0227956771850586,0.21881229316815734,-0.506415178142488,10.033625593185425,0.6963692787865792,-1.237765214069818,10.035814647289516,0.07977369351423624,-0.8575165227544062,0.07711585552407207,0.05202546715736389,-0.0038229599595069885,0.5261051058769226,STATIONARY,0,0.0,0.0,0.0,0.37591238313978015,-0.09005761362158562,0.060036795633152354
1769183775.3748643,0.04393887519836426,-0.006664562504738569,-0.04728027433156967,1.0391234159469604,-0.06537935817148537,-0.4638194911926985,10.193800710439682,0.5518166070700421,-1.0908979712845408,10.065794756756507,-0.06477897820230083,-0.7106492799691289,0.10709596499106233,0.05538523197174072,-0.09728534519672394,0.6467509865760803,STATIONARY,0,0.0,0.0,0.0,0.37578731924094355,-0.09142961071269128,0.06024355775418521
1769183775.4244728,0.049653053283691406,0.37845808267593384,-0.04800395295023918,1.0888375043869019,3.712673791050911,-0.4709187784418464,10.681495918035507,1.1516343536215174,-0.973248074210938,10.1826328363063,0.5350387683491745,-0.592999382895526,0.2239340445408562,-0.024943551048636436,-0.13729701936244965,0.1837151050567627,STATIONARY,0,0.0,0.0,0.0,0.3771064175711383,-0.09289160663159915,0.06079565050278921
1769183775.4738128,0.049294471740722656,-0.16241785883903503,0.13499267399311066,1.0188965797424316,-1.5933191952109338,1.3242781318724157,9.995375447273254,0.6307402555289409,-0.5372596978426437,10.147098075139567,0.014144670256597935,-0.15701100652723177,0.18839928337412282,-0.021889224648475647,-0.03772598132491112,0.7038668990135193,STATIONARY,0,0.0,0.0,0.0,0.37714078834111564,-0.09327313473309326,0.061253450388914485
1769183775.5358005,0.06224179267883301,0.15249848365783691,-0.015679681673645973,1.0025688409805298,1.4960101246833801,-0.153817677218467,9.835200330018997,0.7949375579902491,-0.46449610386897494,10.087911028163566,0.1783419727179062,-0.084247412553563,0.1292122363981214,-0.17338381707668304,0.026720302179455757,0.4509686529636383,STATIONARY,0,0.0,0.0,0.0,0.37783169241190795,-0.09359951264290277,0.06175402385887854
1769183775.5842988,0.04852128028869629,0.07734024524688721,-0.046797823160886765,1.0201150178909302,0.7587078058719635,-0.45908664520829917,10.007328325510025,0.7880624456365997,-0.46346958191146487,10.072619310663125,0.17146686036425673,-0.08322089059605292,0.11392051889768062,-0.04082604497671127,-0.03253362700343132,0.24327446520328522,STATIONARY,0,0.0,0.0,0.0,0.37823537935168483,-0.09379544080405798,0.06202222860441306
1769183775.627349,0.04281330108642578,0.086553193628788,-0.03714878484606743,1.0264511108398438,0.8490868294984103,-0.3644295793399215,10.069485397338868,0.7996426931081365,-0.44467532842162577,10.072024605898363,0.1830471078357936,-0.06442663710621382,0.11332581413291898,-0.19842928647994995,0.04077020287513733,0.06826158612966537,STATIONARY,0,0.0,0.0,0.0,0.3785709008105816,-0.09391353346080228,0.06222995241353574
1769183775.682114,0.05496954917907715,0.09406901150941849,-0.06899061053991318,1.0032999515533447,0.9228170029073954,-0.6767978893965483,9.842372524738312,0.8230167757181505,-0.48872389605491057,10.02844484705624,0.20642119044580753,-0.10847520473949862,0.06974605529079625,-0.03838258981704712,0.00534001924097538,-0.27473923563957214,STATIONARY,0,0.0,0.0,0.0,0.37919463367666717,-0.09424130770822942,0.06244070067475223
1769183775.7306862,0.04859209060668945,0.07030931115150452,-0.02388136461377144,1.0322998762130737,0.6897343423962593,-0.23427618686109783,10.126861785650254,0.7977245324573053,-0.44043881303461374,10.047120865267102,0.18112894718496242,-0.060190121719201795,0.08842207350165765,-0.010710564441978931,-0.19202327728271484,-0.20189480483531952,STATIONARY,0,0.0,0.0,0.0,0.3796223137654192,-0.09438342809814466,0.06264948210273796
1769183775.7849002,0.05479025840759277,-0.005183548666536808,-0.11627087742090225,1.0427788496017456,-0.05085061241872609,-1.140617307499051,10.229660514593125,0.6366952921111482,-0.5733076717928984,10.081760368016523,0.020099706838805242,-0.19305898047748649,0.12306157625107872,0.19606733322143555,0.39501824975013733,0.05863921344280243,STATIONARY,0,0.0,0.0,0.0,0.3796826525309264,-0.09496298583227075,0.0630189095601588
1769183775.8303652,0.044780731201171875,0.018183445557951927,0.06895309686660767,1.0181653499603271,0.1783796009235084,0.6764298802614213,9.98820208311081,0.5497233509267863,-0.33615214130800186,10.06400634866134,-0.06687223434555667,0.044096550007410085,0.10530755689589633,0.27089831233024597,0.2148129791021347,-0.1524147242307663,STATIONARY,0,0.0,0.0,0.0,0.37954855271074445,-0.094874558408176,0.06323008426639888
1769183775.8794425,0.049024105072021484,-0.09355070441961288,-0.04149085283279419,1.0042747259140015,-0.9177324103564024,-0.40702526628971103,9.851935061216356,0.2712526840590391,-0.34960132791884724,10.02376279625151,-0.34534290121330385,0.03064736339656471,0.0650640044860662,0.2534886598587036,0.30766451358795166,-0.18387427926063538,STATIONARY,0,0.0,0.0,0.0,0.37871856840174867,-0.09480090167267667,0.06338645667948205
1769183775.9312322,0.051886796951293945,0.01769855059683323,0.061426520347595215,1.0420477390289307,0.17362278135493397,0.6025941646099091,10.22248831987381,0.25272601713691517,-0.168908648255998,10.06147379957222,-0.36386956813542776,0.21134004305941395,0.10277500780677506,0.003950201906263828,0.26368221640586853,-0.33628517389297485,STATIONARY,0,0.0,0.0,0.0,0.37773894430556954,-0.09423192361900366,0.0636631516354478
1769183775.979791,0.04853987693786621,0.02424459159374237,-0.015679681673645973,1.093224048614502,0.23783944353461267,-0.153817677218467,10.724527916908265,0.24990107740940745,-0.16604492119902123,10.187297778117589,-0.36669450786293545,0.21420377011639072,0.2285989863521447,-0.2312329113483429,-0.7653203010559082,-0.7568658590316772,STATIONARY,0,0.0,0.0,0.0,0.376874968168894,-0.09372723390645507,0.0642017581998807
1769183776.0342739,0.05438566207885742,-0.02369622141122818,-0.014473553746938705,0.9996444582939148,-0.23245993204414847,-0.1419855622574687,9.806512135863304,0.15836619402997604,-0.16147931458543166,10.115038269838108,-0.4582293912423669,0.21876937672998029,0.15633947807266324,-0.46122366189956665,-0.8065537214279175,-0.9886892437934875,STATIONARY,0,0.0,0.0,0.0,0.3755196171656142,-0.09308015779151194,0.0646641791456073
1769183776.0839176,0.04961347579956055,-0.03184179589152336,-0.07912209630012512,1.0408293008804321,-0.3123680176958442,-0.7761877647042275,10.21053544163704,0.06903766139869105,-0.27812901302958565,10.133160220643342,-0.5475579238736519,0.1021196782858263,0.17446142887789762,-0.6670852899551392,-0.2042405754327774,-0.877511739730835,STATIONARY,0,0.0,0.0,0.0,0.3741718049891239,-0.09282879051171951,0.06509361542607613
1769183776.129691,0.04572439193725586,0.07855246961116791,-0.14449431002140045,0.9396950602531433,0.7705997268855572,-1.4174891813099384,9.218408541083337,0.20216907249786384,-0.4943388601912748,9.959573038701501,-0.41442651277447906,-0.11409016887586287,0.0008742469360569771,-0.1295238435268402,-0.10650213807821274,-1.0247303247451782,STATIONARY,0,0.0,0.0,0.0,0.3733053551828632,-0.0930673211116489,0.06509544323164604
1769183776.1793344,0.04953265190124512,0.14522510766983032,-0.154867023229599,1.0018377304077148,1.4246583062410356,-1.5192454978823662,9.828028135299682,0.43415384583196565,-0.6888295170172432,9.934610516532297,-0.18244173944037728,-0.3085808257018312,-0.02408827523314727,-0.412965327501297,-0.037474364042282104,-1.166756510734558,STATIONARY,0,0.0,0.0,0.0,0.3728577373663935,-0.09382441910813129,0.06503634304330397
1769183776.2291248,0.04984235763549805,0.10182727873325348,-0.04390311613678932,0.8370987176895142,0.9989256043732166,-0.4306895693019033,8.211938420534134,0.5413273446034235,-0.6398437790603877,9.607708908985646,-0.07526824066891946,-0.25959508774497575,-0.3509898827797979,-0.2651359438896179,0.158613383769989,-1.250139594078064,STATIONARY,0,0.0,0.0,0.0,0.37267075144056455,-0.09446932096037661,0.06416439270136827
1769183776.279434,0.05023670196533203,0.060611478984355927,-0.054517049342393875,0.905577540397644,0.5945986088365317,-0.534812254048884,8.88371567130089,0.5514363270117993,-0.619912548706626,9.470320862936804,-0.06515925826054358,-0.2396638573912141,-0.4883779288286405,0.3814649283885956,0.21786731481552124,-1.1646184921264648,STATIONARY,0,0.0,0.0,0.0,0.372506307311733,-0.09507416692230455,0.06293186051498793
1769183776.3325891,0.053255558013916016,0.06497550755739212,-0.062236279249191284,1.0001319646835327,0.6374097291380167,-0.6105378994345665,9.811294573545457,0.5677510066461905,-0.6181335752593046,9.535025489190431,-0.048844578626152435,-0.23788488394389262,-0.423673302575013,-0.12158260494470596,0.25299206376075745,-1.2843480110168457,STATIONARY,0,0.0,0.0,0.0,0.37236777654224623,-0.09574884519671958,0.06173025758857228
1769183776.383115,0.05048394203186035,0.07612801343202591,-0.11361739784479141,1.070072889328003,0.7468158117681742,-1.1145866728574039,10.49741504430771,0.6017311081323566,-0.7123426334157246,9.717652637667955,-0.014864477139986287,-0.3320939421003126,-0.2410461540974893,-0.1304401457309723,0.1802990883588791,-1.4618043899536133,STATIONARY,0,0.0,0.0,0.0,0.37232989251361037,-0.096595229250046,0.06111592051378713
1769183776.4367156,0.053666114807128906,0.0834013968706131,-0.05910034477710724,0.9660142660140991,0.8181677033007145,-0.579774382263422,9.476599949598313,0.6428030399624611,-0.6871859164107827,9.671909451012489,0.026207454690118204,-0.3069372250953708,-0.28678934075295537,0.495391309261322,0.340040385723114,-1.0250357389450073,STATIONARY,0,0.0,0.0,0.0,0.3724053713427211,-0.09747922438176103,0.06028995233422011
1769183776.4867127,0.04993414878845215,0.13528482615947723,-0.050416212528944016,0.9852663278579712,1.3271441446244718,-0.49458304490894084,9.665462676286698,0.7726665280539873,-0.6506367736816953,9.670686083532255,0.15607094278164435,-0.2703880823662833,-0.2880127082331896,0.4669860601425171,0.16350029408931732,-0.9529536366462708,STATIONARY,0,0.0,0.0,0.0,0.3727945216303915,-0.09815341522190157,0.059571815913281825
1769183776.529941,0.043282508850097656,0.1636510044336319,-0.06488976627588272,1.013778805732727,1.605416353493929,-0.6365686071664095,9.945170084238052,0.9306926882576061,-0.6479671383751477,9.722773338724352,0.31409710298526317,-0.2677184470597358,-0.23592545304109258,0.22813774645328522,-0.029838547110557556,-1.0012120008468628,STATIONARY,0,0.0,0.0,0.0,0.37338294347047274,-0.09865495242089312,0.05912983893265696
1769183776.5800104,0.05008101463317871,0.1663178950548172,-0.06633711606264114,1.0264511108398438,1.631578550487757,-0.6507671085745097,10.069485397338868,1.0636957801414377,-0.6484984726675999,9.788566898380997,0.4471001948690948,-0.2682497813521879,-0.1701318933844469,-0.004296479281038046,-0.00387677364051342,-0.8161197900772095,STATIONARY,0,0.0,0.0,0.0,0.374504319057958,-0.09932775185066002,0.05870312976526369
1769183776.6335552,0.05349421501159668,0.157589852809906,-0.06030647084116936,1.017678141593933,1.545956456065178,-0.5916064789518715,9.983422569036485,1.15521162380213,-0.6377024051830161,9.825543541890132,0.538616038529787,-0.2574537138676042,-0.1331552498753119,0.11543310433626175,0.08653128147125244,-0.9318787455558777,STATIONARY,0,0.0,0.0,0.0,0.37604563943229885,-0.10006448938955138,0.058322088569120564
1769183776.6834803,0.04985952377319336,0.08994743227958679,-0.03642510995268822,1.023526668548584,0.8823843106627465,-0.35733032863587144,10.04079661846161,1.1034387487116908,-0.584497803594954,9.866390884181241,0.48684316343934786,-0.204249112279542,-0.09230790758420326,0.10627012699842453,0.09477796405553818,-0.7733592391014099,STATIONARY,0,0.0,0.0,0.0,0.37725591795898633,-0.1005722469863523,0.058092613685251655
1769183776.7372468,0.05385136604309082,0.09916038066148758,-0.028464656323194504,0.9838041663169861,0.9727633342891931,-0.2792382785305381,9.651118871569635,1.0786412244812962,-0.526570453581971,9.825539948506359,0.46204563920895325,-0.14632176226655902,-0.13315884325908556,-0.1399085521697998,0.01933610625565052,-0.7996264100074768,STATIONARY,0,0.0,0.0,0.0,0.3785958362779206,-0.10099657565235891,0.05770645708453919
1769183776.7871747,0.04992866516113281,0.09043233096599579,-0.033530399203300476,1.0793333053588867,0.8871411667764187,-0.3289332161843777,10.58825972557068,1.042301356404007,-0.4890659680989594,9.970276907913297,0.42570577113166397,-0.10881727678354747,0.011578116147852313,-0.18816691637039185,0.01841980777680874,-0.6841729283332825,STATIONARY,0,0.0,0.0,0.0,0.37965706610676253,-0.10126784315176128,0.05773531984152093
1769183776.8303766,0.04316902160644531,0.10013016313314438,-0.0354602076113224,1.0486276149749756,0.9822769003361465,-0.3478646366670728,10.28703690290451,1.0309108594973235,-0.46227100094296947,10.030386636171881,0.4143152742249806,-0.08202230962755752,0.07168784440643705,-0.17717133462429047,-0.02250816486775875,-0.774275541305542,STATIONARY,0,0.0,0.0,0.0,0.3804291693131463,-0.1014206970101591,0.057868914758166204
1769183776.883823,0.053496599197387695,0.1604991853237152,-0.051139891147613525,1.0398544073104858,1.5744970080256462,-0.5016823321580887,10.200971735715866,1.1340640865141212,-0.4697498633217734,10.06275759254482,0.5174685012417782,-0.08950117200636143,0.10405880077937546,0.023192457854747772,0.13692766427993774,-0.5974300503730774,STATIONARY,0,0.0,0.0,0.0,0.38191010523732966,-0.10167683917255674,0.058166719196372216
1769183776.9340212,0.05020570755004883,0.14449776709079742,-0.0704379603266716,0.9923335909843445,1.4175230951607227,-0.6909963908046485,9.73479252755642,1.1878544775092585,-0.5117345484317731,10.000521542391741,0.5712588922369156,-0.13148585711636118,0.04182275062629692,-0.2254296988248825,0.15311558544635773,-0.5858235955238342,STATIONARY,0,0.0,0.0,0.0,0.3833500278677991,-0.10200826414260342,0.058272138168249346
1769183776.9860687,0.05204486846923828,0.1629236489534378,-0.11602965742349625,1.0491148233413696,1.598280996233225,-1.1382509393244982,10.291816416978836,1.2657387649846987,-0.6306249721014533,10.055798900743241,0.6491431797123558,-0.25037628078604135,0.09710010897779675,-0.2715500295162201,0.07156508415937424,-0.47831135988235474,STATIONARY,0,0.0,0.0,0.0,0.38510834144290523,-0.10268645044594833,0.05853515015866354
1769183777.0379958,0.05193305015563965,0.1556502729654312,-0.10203855484724045,1.026207447052002,1.5269291777908802,-1.000998223051429,10.06709505558014,1.3153033722134706,-0.7009085805775467,10.057942507285576,0.6987077869411277,-0.32065988926213473,0.09924371552013156,-0.2767423689365387,0.08225522190332413,-0.4663994610309601,STATIONARY,0,0.0,0.0,0.0,0.38699278547932986,-0.1035512835383145,0.05880281459773225
1769183777.0876203,0.04955554008483887,0.1590445190668106,-0.084670290350914,0.9608966708183289,1.5602267320454122,-0.8306155483424664,9.426396340727807,1.3617810740586358,-0.7255223282378553,9.938097611923737,0.7451854887862929,-0.3452736369224434,-0.02060117984170695,-0.21901561319828033,0.08042262494564056,-0.37079906463623047,STATIONARY,0,0.0,0.0,0.0,0.3888227759007644,-0.1043991898084313,0.05875222321834028
1769183777.1306393,0.043036460876464844,0.07346111536026001,-0.11337617039680481,0.9655268788337708,0.7206535416841507,-1.1122202315926553,9.471818681359292,1.240117977835906,-0.7989037724112787,9.849614532456238,0.623522392563563,-0.4186550810958668,-0.10908425930920629,0.0042556338012218475,0.1186017096042633,-0.36102521419525146,STATIONARY,0,0.0,0.0,0.0,0.38997762477239417,-0.10517459635961836,0.058550184229398984
1769183777.184192,0.05347418785095215,0.10376685857772827,-0.1056569442152977,0.9633336067199707,1.0179528826475144,-1.0364946227520704,9.450302681922913,1.197958981398596,-0.8439900259677207,9.773839411842738,0.5813633961262531,-0.4637413346523087,-0.18485937992270607,0.07145080715417862,0.058431476354599,-0.2529020607471466,STATIONARY,0,0.0,0.0,0.0,0.3916400268727662,-0.10650065949653438,0.058021580909161326
1769183777.2342956,0.05017662048339844,0.0792798176407814,-0.10276222974061966,1.0018377304077148,0.7777350110560656,-1.0080974737554789,9.828028135299682,1.1182154876984718,-0.8751317555033765,9.78412249522821,0.5016199024261289,-0.49488306418796457,-0.17457629653723394,0.08000292629003525,0.03246970474720001,-0.446546345949173,STATIONARY,0,0.0,0.0,0.0,0.39290295191172653,-0.10774662324338237,0.057582051346958
1769183777.2843184,0.04994487762451172,0.04800429195165634,-0.07839842140674591,0.9686949253082275,0.47092210404574875,-0.7690885140001774,9.502897217273713,0.9953823332276098,-0.8550085375111751,9.730755986500494,0.3787867479552669,-0.47475984619576317,-0.22794280526495037,0.024108754470944405,0.26704198122024536,-0.31062883138656616,STATIONARY,0,0.0,0.0,0.0,0.39384783197001416,-0.10893090731236743,0.05701345011608698
1769183777.330918,0.04667305946350098,0.09406901150941849,-0.14594165980815887,1.0184091329574585,0.9228170029073954,-1.4316876827180387,9.990593594312669,0.9816120265111208,-0.9644416327848987,9.78006387968121,0.36501644123877786,-0.5841929414694867,-0.17863491208423454,-0.08554156124591827,0.03216427564620972,-0.3179592192173004,STATIONARY,0,0.0,0.0,0.0,0.39464297447027363,-0.1102034983072758,0.05662431638242218
1769183777.3809838,0.05005240440368652,0.0804920494556427,-0.12302520871162415,1.0242578983306885,0.789627005159855,-1.206877297461033,10.047969982624055,0.9451801296629618,-1.0104472589823486,9.83090288492604,0.3285845443906189,-0.6301985676669366,-0.12779590683940434,0.12123632431030273,0.15311558544635773,-0.3347580134868622,STATIONARY,0,0.0,0.0,0.0,0.39546615866132706,-0.11178229897512228,0.05630415655753865
1769183777.4310546,0.050142765045166016,0.06594529002904892,-0.14449431002140045,0.9918461441993713,0.6469232951849699,-1.4174891813099384,9.730010674595833,0.8885816400960102,-1.087689271003602,9.811757148588582,0.2719860548236672,-0.70744057968819,-0.14694164317686287,-0.10753270983695984,0.07797916978597641,-0.35094594955444336,STATIONARY,0,0.0,0.0,0.0,0.39615001235210756,-0.11356101462192743,0.055934701641620274
1769183777.4845712,0.05355381965637207,0.07249132543802261,-0.1264023780822754,0.9937956929206848,0.7111399025470019,-1.2400073289871216,9.749135747551918,0.8549095388380912,-1.1165937956248968,9.799873844323502,0.23831395356574825,-0.7363451043094849,-0.15882494744194275,-0.09562083333730698,0.24627254903316498,-0.2678682804107666,STATIONARY,0,0.0,0.0,0.0,0.39683349953532526,-0.11567286092253357,0.055479189850021184
1769183777.534831,0.05027604103088379,0.10716108977794647,-0.11916559189558029,1.0076864957809448,1.051250290721655,-1.1690144564956426,9.885404523611069,0.8921679976978808,-1.126541363909722,9.81610451098294,0.27557241242553787,-0.74629267259431,-0.1425942807825038,-0.016208350658416748,0.08653128147125244,-0.19914591312408447,STATIONARY,0,0.0,0.0,0.0,0.39753005849391604,-0.11755925021038244,0.055118757095346596
1769183777.584905,0.05002140998840332,0.062066156417131424,-0.13050320744514465,0.9898965954780579,0.6088689944520593,-1.2802364650368692,9.710885601639749,0.8384079700103356,-1.1557072021137693,9.796137721778832,0.2218123847379927,-0.7754585107983574,-0.16256106998661224,-0.21199065446853638,0.0532391220331192,-0.02077326737344265,STATIONARY,0,0.0,0.0,0.0,0.3980850644574956,-0.11949955709861125,0.05471200630280176
1769183777.6313884,0.04641842842102051,0.047034505754709244,-0.11482352763414383,0.9896529316902161,0.4614085014536977,-1.126418806090951,9.70849525988102,0.7668669422072538,-1.150149311111434,9.779506314240336,0.1502713569349109,-0.7699006197960221,-0.17919247752510792,-0.1784517616033554,0.11882343143224716,0.20628386735916138,STATIONARY,0,0.0,0.0,0.0,0.39840884971683904,-0.12115843924976735,0.054325905558180204
1769183777.6810584,0.0496366024017334,0.11297979205846786,-0.08684132248163223,1.0059806108474731,1.1083317600935698,-0.8519133735448122,9.868669792413712,0.8316647630734368,-1.0935547870315507,9.796426356317433,0.2150691778010939,-0.7133060957161388,-0.16227243544801162,0.052455298602581024,-0.2122655212879181,0.1946774274110794,STATIONARY,0,0.0,0.0,0.0,0.39893873550063996,-0.1229158773145005,0.053926099981547675
1769183777.731553,0.05051994323730469,0.06521795690059662,-0.1331566870212555,1.026938557624817,0.6397881571948528,-1.3062670996785164,10.074267250299455,0.7952534396079808,-1.133919983118951,9.849150629901429,0.17865785433563786,-0.7536712918035391,-0.10954816186401573,0.05673135817050934,-0.21470898389816284,0.1742134392261505,STATIONARY,0,0.0,0.0,0.0,0.39939471762933204,-0.12483944592136985,0.053646504078939256
1769183777.7845113,0.052916526794433594,0.08897764980792999,-0.054034601897001266,0.9877033233642578,0.8728707446157933,-0.5300794446095825,9.689369602203369,0.8099824305978712,-1.0193326259549802,9.818829900302749,0.1933868453255283,-0.6390839346395683,-0.13986889146269554,0.47150886058807373,-0.5180035829544067,-0.1235833615064621,STATIONARY,0,0.0,0.0,0.0,0.3999362315076189,-0.12662898242999318,0.05325484897054675
1769183777.8353755,0.05094408988952637,0.10449419170618057,-0.0849115177989006,1.0093923807144165,1.0250880206376314,-0.8329819896072149,9.902139254808427,0.8508017852153987,-0.9839699340469024,9.834639038893224,0.2342061999430558,-0.6037212427314904,-0.12405975287222049,0.311767578125,-0.10780757665634155,0.19895347952842712,STATIONARY,0,0.0,0.0,0.0,0.4005440669273452,-0.12819582034915405,0.052932876657360524
1769183777.8887305,0.0533747673034668,0.0780675858259201,-0.06488976627588272,1.0257201194763184,0.7658430169522763,-0.6365686071664095,10.062314372062684,0.8346796468322925,-0.9180455759030101,9.877843681601906,0.21808406155994953,-0.5377968845875981,-0.08085511016353841,-0.014739878475666046,0.010700281709432602,-0.1840590238571167,STATIONARY,0,0.0,0.0,0.0,0.40116535914851154,-0.1297279314927735,0.052702531300497533
1769183777.9296584,0.04094815254211426,0.14861935377120972,-0.06730202585458755,0.9806361198425293,1.4579558604955674,-0.6602328736335039,9.620040335655213,0.9529552006451357,-0.8691219374383063,9.828921818632942,0.3363596153727928,-0.4888732461228944,-0.12977697313250225,0.2302170842885971,-0.38055890798568726,-0.11044976115226746,STATIONARY,0,0.0,0.0,0.0,0.4017293505360799,-0.13054765029320178,0.0524849276055049
1769183777.9810472,0.05126786231994629,0.11637403815984726,-0.07164409011602402,1.0011066198349,1.1416293143481018,-0.7028285240381956,9.820855940580369,0.9887588055303714,-0.8375653897405756,9.827391203196733,0.3721632202580285,-0.45731669842516365,-0.1313075885687116,-0.024101726710796356,-0.03422415256500244,-0.18607068061828613,STATIONARY,0,0.0,0.0,0.0,0.4027075420021297,-0.1317496586253831,0.052139799566048334
1769183778.0319736,0.05102968215942383,0.14134596288204193,-0.05017498508095741,1.0042747259140015,1.3866038958728315,-0.49221660364419223,9.851935061216356,1.0642555874714144,-0.7720305304940296,9.832048750422725,0.4476600021990714,-0.39178183917861764,-0.12665004134271918,-0.0076083652675151825,-0.1020301952958107,-0.27464616298675537,STATIONARY,0,0.0,0.0,0.0,0.40387326138883806,-0.13276986968522148,0.051809999253768106
1769183778.0855634,0.05360126495361328,0.1762581765651703,-0.09456054866313934,1.046190619468689,1.7290927121043207,-0.927638982385397,10.26312997698784,1.1904179170894948,-0.8015594543033278,9.913852563391359,0.5738223318171519,-0.4213107629879158,-0.044846228374085584,-0.06548189371824265,0.041836537420749664,-0.29785284399986267,STATIONARY,0,0.0,0.0,0.0,0.405521907808219,-0.1339803357865443,0.0516811517521424
1769183778.1357827,0.050150156021118164,0.156620055437088,-0.023398911580443382,1.008173942565918,1.5364427438378334,-0.22954332260414959,9.890186376571656,1.2560810646948088,-0.6930112323698152,9.90936156679727,0.6394854794224659,-0.31276254105440326,-0.049337224968175164,-0.021499594673514366,-0.04368459805846214,-0.21385887265205383,STATIONARY,0,0.0,0.0,0.0,0.40713023818466126,-0.13476694550885632,0.05155706674918448
1769183778.189202,0.05340218544006348,0.1760157346725464,-0.08129312843084335,1.0288881063461304,1.7267143571376802,-0.7974855899065734,10.09339232325554,1.3453904464523407,-0.7128367322461459,9.944284028398632,0.7287948611799978,-0.3325880409307339,-0.014414763366811911,0.03775770962238312,-0.050414860248565674,-0.12618744373321533,STATIONARY,0,0.0,0.0,0.0,0.4092086105668522,-0.13571541789215255,0.051515958822011536
1769183778.229659,0.04049253463745117,0.22717182338237762,-0.08153434842824936,1.019627571105957,2.2285555873811247,-0.7998519580811263,10.002546472549438,1.512983632044343,-0.7293491127929543,9.955340158405463,0.8963880467720001,-0.3491004214775424,-0.0033586333599817664,0.002108626766130328,-0.1982305347919464,-0.05302116274833679,STATIONARY,0,0.0,0.0,0.0,0.4106783690697251,-0.13628781877887883,0.05151045185440232
1769183778.2810793,0.051345109939575195,0.18353156745433807,-0.08756499737501144,1.0108546018600464,1.8004446767270565,-0.8590126242488623,9.916483644247055,1.5675334664743068,-0.7539546139986377,9.947966580478734,0.9509378812019639,-0.3737059226832258,-0.01073221128670987,0.0008719905745238066,-0.08438878506422043,-0.04582376405596733,STATIONARY,0,0.0,0.0,0.0,0.41318534592396233,-0.13727302729457497,0.05148215830776544
1769183778.332391,0.05141186714172363,0.19468407332897186,-0.13677509129047394,1.0593502521514893,1.909850759357214,-1.3417636455595494,10.39222597360611,1.632493056633338,-0.865499763997925,10.032271138565216,1.015897471360995,-0.4852510726825131,0.07357234679977154,0.04210539534687996,0.11872390657663345,0.10658711194992065,STATIONARY,0,0.0,0.0,0.0,0.41587054588663197,-0.13855563326514292,0.051676623269486036
1769183778.385954,0.05351114273071289,0.19783586263656616,-0.06175382807850838,1.0252326726913452,1.9407698124647141,-0.6058050534501672,10.057532519102097,1.6909929692311274,-0.8162189876118456,10.03706484592574,1.0743973839587846,-0.4359702962964337,0.07836605416029485,-0.03491540253162384,-0.042345330119132996,-0.030931834131479263,STATIONARY,0,0.0,0.0,0.0,0.4189470209063836,-0.13980400909510599,0.051901019951403025
1769183778.436059,0.050176382064819336,0.13940639793872833,-0.01133761741220951,1.0637367963790894,1.3675767637789251,-0.11122202681377531,10.435257972478867,1.629620130073538,-0.6824357561217839,10.112627672703182,1.013024544801195,-0.3021870648063719,0.1539288809377375,0.4495007395744324,0.3421943485736847,0.07260982692241669,STATIONARY,0,0.0,0.0,0.0,0.42149748172031365,-0.14056481619619796,0.052288561971957775
1769183778.4895778,0.05351996421813965,0.14522510766983032,-0.05837666615843773,1.0249888896942139,1.4246583062410356,-0.5726750950142742,10.055141007900238,1.590725699814763,-0.6616071047233076,10.101718757895638,0.97413011454242,-0.2813584134078957,0.1430199661301934,0.10497274249792099,0.3162325620651245,0.2079164683818817,STATIONARY,0,0.0,0.0,0.0,0.4242877669377548,-0.141370735456895,0.05269822644217022
1769183778.5296354,0.040135860443115234,0.14013373851776123,-0.052346017211675644,1.053745150566101,1.3747119748592378,-0.5135144288465381,10.337239927053451,1.549734013640625,-0.6335044066402171,10.146412259919506,0.9331384283682821,-0.2532557153248052,0.18771346815406176,0.14712242782115936,0.1656542718410492,0.28763437271118164,STATIONARY,0,0.0,0.0,0.0,0.4257909477750984,-0.1417787018707203,0.05300061168284014
1769183778.5811236,0.05141401290893555,0.10134238749742508,0.0036418887320905924,0.8383171558380127,0.99416882134974,0.035726928461808714,8.223891298770905,1.444307592165085,-0.5065082128935015,9.781586478970489,0.827712006892742,-0.1262595215780895,-0.17711231279495543,-0.07859226316213608,0.3657126724720001,0.1837872862815857,STATIONARY,0,0.0,0.0,0.0,0.4279789222928857,-0.142112456381396,0.052532432867074874
1769183778.6328225,0.0516512393951416,0.03466976806521416,-0.013508650474250317,0.9102077484130859,0.3401104247197509,-0.1325198611523956,8.929138011932373,1.2347704260817245,-0.43553858746571483,9.61982222048346,0.6181748408093816,-0.055289896150302886,-0.33887657128198434,0.07168058305978775,0.35838228464126587,0.2033349871635437,STATIONARY,0,0.0,0.0,0.0,0.42962812037022335,-0.1422599615602025,0.0516283608264184
1769183778.6863482,0.05347251892089844,0.11443447321653366,-0.07309144735336304,1.050089716911316,1.1226021822541952,-0.7170270985364914,10.30138012290001,1.2134849015131863,-0.4889550484327868,9.749157556241014,0.5968893162408434,-0.10870635711737486,-0.20954123552442994,-0.23008684813976288,0.008356484584510326,0.06100338697433472,STATIONARY,0,0.0,0.0,0.0,0.43133481212802127,-0.14257078676458196,0.05102921741765275
1769183778.7364855,0.05019783973693848,0.04170069843530655,-0.04607414826750755,0.9608966708183289,0.40908385165035727,-0.45198739450424913,9.426396340727807,1.0608383259267826,-0.48193990868301045,9.68790901076908,0.4442427406544397,-0.10169121736759851,-0.2707897809963651,-0.16044822335243225,-0.29799243807792664,-0.09049119800329208,STATIONARY,0,0.0,0.0,0.0,0.43245422525426247,-0.1428270306446216,0.05034687506839396
1769183778.789975,0.05347108840942383,0.03224530443549156,-0.06030647084116936,0.9774680733680725,0.31632643651217224,-0.5916064789518715,9.588961799740792,0.9195565729729751,-0.5027507050024608,9.669132365798427,0.3029609877006322,-0.12250201368704883,-0.289566425967017,-0.0673615112900734,-0.08637823909521103,-0.04062214493751526,STATIONARY,0,0.0,0.0,0.0,0.4333204383725557,-0.14317728317079145,0.049518959109003946
1769183778.8400846,0.050188302993774414,0.10400930047035217,-0.03087691403925419,0.9482244849205017,1.020331237614155,-0.3029025267250836,9.302082197070122,0.9386800033389194,-0.4648266619440575,9.59947935958425,0.3220844180665765,-0.08457797062864553,-0.35921943218119523,0.06275279074907303,-0.3908945620059967,-0.06261330097913742,STATIONARY,0,0.0,0.0,0.0,0.43413172578421405,-0.1433903237248379,0.04861413358189189
1769183778.881605,0.04148721694946289,0.14061862230300903,-0.06826692819595337,0.9762495756149292,1.3794686847925186,-0.6696985656023026,9.577008336782455,1.0223259443687227,-0.5037040285668778,9.595215162413941,0.4057303590963798,-0.12345533725146585,-0.3634836293515029,0.019992219284176826,-0.6407384276390076,-0.0690273866057396,STATIONARY,0,0.0,0.0,0.0,0.4348300644843169,-0.14360281371431996,0.047988509495502804
1769183778.9365718,0.055002689361572266,0.157589852809906,-0.05017498508095741,1.0128040313720703,1.545956456065178,-0.49221660364419223,9.93560754776001,1.1216923045899712,-0.5015241257969189,9.659809473905238,0.5050967193176282,-0.1212754344815069,-0.29888931786020656,0.059087593108415604,-0.47030702233314514,0.029016491025686264,STATIONARY,0,0.0,0.0,0.0,0.43635813148655367,-0.1439697077813879,0.047084280886454874
1769183778.9866421,0.05010414123535156,0.10667620599269867,-0.11434107273817062,1.024745225906372,1.046493580788374,-1.1216859235614538,10.052750666141511,1.1074222738898136,-0.619208674759662,9.734375671216808,0.4908266886174707,-0.23895998344425007,-0.224323120548636,-0.17456835508346558,-0.09034886956214905,0.010995965451002121,STATIONARY,0,0.0,0.0,0.0,0.4375903150610772,-0.14456959889040194,0.04652113452352082
1769183779.0381382,0.05144691467285156,0.10449419170618057,-0.11892437189817429,0.984535276889801,1.0250880206376314,-1.16664808832109,9.658291066288948,1.0917981746739405,-0.7230931137909524,9.719937531934093,0.47520258940159754,-0.3428444224755405,-0.23876125983135132,-0.17751722037792206,0.03456951677799225,-0.04480580985546112,STATIONARY,0,0.0,0.0,0.0,0.4388480741606164,-0.1454770343752083,0.045889184795409106
1769183779.0879636,0.04976963996887207,0.11225245893001556,-0.0914246141910553,0.969669759273529,1.1011966221034528,-0.8968754652142525,9.512460338473321,1.0935816641611664,-0.756070794323124,9.680565774401622,0.4769860788888235,-0.375822103007712,-0.2781330173638228,-0.1808769851922989,0.09107455611228943,-0.04755470156669617,STATIONARY,0,0.0,0.0,0.0,0.44002957681666155,-0.1464079521368723,0.045200244565717834
1769183779.1344862,0.046517133712768555,0.10303951054811478,-0.06271872669458389,1.0140225887298584,1.010817598477006,-0.615270708873868,9.947561595439911,1.0778760019041993,-0.7293519693169073,9.731232040668088,0.46128041663185637,-0.3491032780014953,-0.22746675109735648,-0.22699730098247528,0.12528300285339355,-0.031366776674985886,STATIONARY,0,0.0,0.0,0.0,0.44102771555343245,-0.14716335707569736,0.044708042062833575
1769183779.1845074,0.049976348876953125,0.18425890803337097,-0.043420661240816116,0.9721066951751709,1.8075798878073692,-0.4259566867724061,9.536366679668427,1.2163477249261982,-0.6717783859191917,9.694253558277893,0.5997521396538553,-0.29152969460377975,-0.26444523348755133,-0.42552849650382996,0.203473761677742,-0.10925208777189255,STATIONARY,0,0.0,0.0,0.0,0.44252567775688856,-0.14789149197481352,0.04404755427386612
1769183779.2346237,0.050160884857177734,0.022547468543052673,-0.20600691437721252,1.1054089069366455,0.22119066640734675,-2.020927830040455,10.844061377048494,1.0275024751848594,-0.9277987412314201,9.912445996176544,0.41090688991251645,-0.5475500499160082,-0.0462527955889005,-0.33420416712760925,0.5021868944168091,-0.06771326065063477,STATIONARY,0,0.0,0.0,0.0,0.4435595664871877,-0.14926919052351253,0.04393117695024817
1769183779.2881634,0.05348348617553711,0.12655676901340485,-0.11554720252752304,0.9596782326698303,1.2415219040215015,-1.1335180567950012,9.414443462491036,1.0681157152178533,-0.966836916353288,9.817942910416763,0.4515201299455104,-0.586588225037876,-0.14075588134868156,-0.10146450251340866,0.5409768223762512,-0.10100541263818741,STATIONARY,0,0.0,0.0,0.0,0.44485113227557077,-0.15094711634139066,0.043528547103189964
1769183779.3382437,0.0501399040222168,0.047034505754709244,-0.07598615437746048,1.1256357431411743,0.4614085014536977,-0.7454241744428873,11.042486640214921,0.9529843655254837,-0.9248206896842871,10.050317553688755,0.3363887802531408,-0.5445719983688752,0.09161876192331064,0.03842363879084587,0.1475795954465866,0.1360103040933609,STATIONARY,0,0.0,0.0,0.0,0.44569681702472536,-0.15231617577759016,0.043758877584595034
1769183779.3882885,0.05000925064086914,0.13407258689403534,-0.07405634969472885,1.0276695489883423,1.3152520774304868,-0.72649279050529,10.081438275575639,1.0217298323262176,-0.8871851412745952,10.056223154665556,0.4051342470538747,-0.5069364499591833,0.09752436290011168,-0.16377274692058563,0.5626625418663025,0.08317045867443085,STATIONARY,0,0.0,0.0,0.0,0.4467100274521715,-0.1535839858945731,0.044002778716476613
1769183779.4353757,0.04737210273742676,0.022547468543052673,-0.14208205044269562,0.9735689163208008,0.22119066640734675,-1.393824914842844,9.550711069107056,0.8698161043156069,-0.9833272665294692,9.960295024299237,0.2532205190432639,-0.6030785752140573,0.0015962325337923744,-0.2361602783203125,0.5156258940696716,0.06728796660900116,STATIONARY,0,0.0,0.0,0.0,0.44727828370030537,-0.1549373642454899,0.044006360847633395
1769183779.485782,0.05034470558166504,0.03394242748618126,-0.14425307512283325,0.984535276889801,0.33297521363943816,-1.4151226669549943,9.658291066288948,0.7679428862107248,-1.065266604177221,9.902985464581889,0.1513473009383819,-0.685017912861809,-0.055713327183555705,0.03897906094789505,0.04299749433994293,0.010601700283586979,STATIONARY,0,0.0,0.0,0.0,0.4476618869619713,-0.15667360337261083,0.04386515044022367
1769183779.5362527,0.050810813903808594,0.006061147898435593,-0.03956104815006256,0.9991570711135864,0.05945986088365317,-0.38809388235211373,9.801730867624283,0.6334981242406668,-0.9367634190001828,9.883770960211717,0.016902538968323833,-0.5565147276847708,-0.07492783155372784,-0.13267408311367035,0.18258020281791687,-0.04620876908302307,STATIONARY,0,0.0,0.0,0.0,0.447705524902806,-0.15811037904317046,0.04367170634958468
1769183779.5884104,0.0520482063293457,-0.041221555322408676,-0.2622125446796417,0.9855100512504578,-0.40438345771282913,-2.5723050633072853,9.667853602766991,0.4365452866276168,-1.2471307802499085,9.842797561147627,-0.1800502986447261,-0.8668820889344966,-0.11590123061781732,0.06891145557165146,-0.16042062640190125,0.182865709066391,STATIONARY,0,0.0,0.0,0.0,0.44721776580220524,-0.16045877630331568,0.04335772808667595
1769183779.640373,0.05192136764526367,0.0872805267572403,-0.17368264496326447,1.004762053489685,0.8562219674885273,-1.7038267470896244,9.85671574473381,0.5161849243404346,-1.3337953556306745,9.845438735053573,-0.10041066093190831,-0.9535466643152626,-0.11326005671187112,-0.07555817067623138,0.16822487115859985,0.05427856743335724,STATIONARY,0,0.0,0.0,0.0,0.4469470758889793,-0.1630293744990133,0.043052398407150284
1769183779.686697,0.04618382453918457,0.031033078208565712,-0.19611665606498718,1.046190619468689,0.30443449722602967,-1.9239043959975244,10.26312997698784,0.4760022597560408,-1.4457769651150718,9.92470160740384,-0.1405933255163021,-1.0655282737996599,-0.03399718436160448,-0.04532034322619438,0.4183741807937622,-0.01994156278669834,STATIONARY,0,0.0,0.0,0.0,0.44664719796703156,-0.1653020883945713,0.0429798842606857
1769183779.7369344,0.05030703544616699,0.2397790104150772,-0.0911833867430687,1.0661736726760864,2.3522320921719078,-0.8945090239495039,10.459163728952408,0.8320436385933421,-1.3411660083493633,10.026123420128904,0.21544805332099914,-0.9609173170339513,0.06742462836345986,0.17062051594257355,0.6789081692695618,-0.45701563358306885,STATIONARY,0,0.0,0.0,0.0,0.44719245342970465,-0.16773397584128347,0.04315052236285088
1769183779.7867355,0.04974627494812012,0.04024602472782135,-0.15848542749881744,1.2331061363220215,0.3948135025799275,-1.5547420437633992,12.09677119731903,0.7490729823305159,-1.381695108154532,10.419058377744351,0.13247739705817296,-1.00144641683912,0.4603595859789067,0.4702499210834503,1.242431402206421,0.08360009640455246,STATIONARY,0,0.0,0.0,0.0,0.4475202941673241,-0.1702122471484916,0.0442897704881083
1769183779.837148,0.05048704147338867,-0.12070263177156448,-0.09769649058580399,1.175593614578247,-1.1840928176790477,-0.9584025726467371,11.532573359012604,0.3822271913379119,-1.3013693104351363,10.630363731937688,-0.23436839393443104,-0.9211206191197243,0.6716649401722439,0.9922342896461487,2.6376476287841797,-0.4350244998931885,STATIONARY,0,0.0,0.0,0.0,0.4469229028753129,-0.17256012958910782,0.04600180503198272
1769183779.887059,0.049948930740356445,-0.19944319128990173,-0.1551082581281662,1.0398544073104858,-1.956537706553936,-1.5216120122373105,10.200971735715866,-0.06158681515269904,-1.3431635053006605,10.548880474526912,-0.678182400425042,-0.9629148139852486,0.5901816827614681,1.0905835628509521,2.6761322021484375,-0.6940313577651978,STATIONARY,0,0.0,0.0,0.0,0.4452309085328129,-0.1749625016007545,0.047474246763961725
1769183779.9405231,0.05346202850341797,-0.4578801393508911,-0.1473890244960785,0.911669909954071,-4.491804167032242,-1.4458863303065301,8.943481816649438,-0.9022837635010353,-1.3626566268901728,10.24423317500164,-1.5188793487733783,-0.9824079355747608,0.28553438323619496,0.6128869652748108,1.0970454216003418,-0.048041366040706635,STATIONARY,0,0.0,0.0,0.0,0.4408896650578676,-0.1777704086563693,0.04829035785211215
1769183779.9904435,0.04978442192077637,-0.446278840303421,-0.05692931264638901,0.9718630313873291,-4.377995423376561,-0.5584765570610762,9.5339763379097,-1.5618496388765184,-1.2100519854178877,10.109451806942257,-2.178445224148861,-0.8298032941024758,0.1507530151768126,1.215811014175415,-0.6888191103935242,0.23051320016384125,STATIONARY,0,0.0,0.0,0.0,0.43549041326034355,-0.17982706671580004,0.04866399749159108
1769183780.0374637,0.04726815223693848,-0.42208895087242126,-0.054034601897001266,0.9877033233642578,-4.140692608058453,-0.5300794446095825,9.689369602203369,-2.0512218845838355,-1.081017494643822,10.02973521528799,-2.6678174698561783,-0.7007688033284101,0.07103642352254624,0.6229662299156189,-0.5877208709716797,0.2891562581062317,STATIONARY,0,0.0,0.0,0.0,0.4295297668034614,-0.18139277918745508,0.048822712625202554
1769183780.0874608,0.049901485443115234,-0.42455732822418213,0.0776936262845993,1.073728322982788,-4.164907389879227,0.7621744738519192,10.533274848461152,-2.452323865125729,-0.7312455218359595,10.12528904467325,-3.068919450398072,-0.35099683052054753,0.16659025290780605,0.30134567618370056,-1.0724424123764038,0.3749828338623047,STATIONARY,0,0.0,0.0,0.0,0.42188767171721814,-0.18226681684049942,0.049237548717755465
1769183780.1378055,0.05030679702758789,-0.26658251881599426,0.09808819741010666,1.0768964290618896,-2.6151745095849037,0.9622452165931463,10.564353969097137,-2.4832270982989963,-0.4098814932179274,10.208607878213856,-3.099822683571339,-0.029632801902515438,0.2499090864484117,-0.25026562809944153,-0.9945571422576904,0.23387295007705688,STATIONARY,0,0.0,0.0,0.0,0.4140427216007527,-0.18234181075998016,0.0498700120929123
1769183780.1876729,0.04976677894592285,-0.18759509921073914,0.02282250113785267,1.0554510354995728,-1.840307923257351,0.22388873616233468,10.35397465825081,-2.3612240123188397,-0.28961455020485727,10.236193298671036,-2.9778195975911825,0.09063414111055468,0.2774945069055921,-0.29913485050201416,-0.9673736691474915,0.37650999426841736,STATIONARY,0,0.0,0.0,0.0,0.40666745965957246,-0.18211733425641863,0.050557291697534056
1769183780.2418242,0.05424046516418457,-0.1648862212896347,0.09711702913045883,1.026938557624817,-1.6175338308513165,0.9527180557698012,10.074267250299455,-2.220098190171284,-0.0538642138848055,10.205465520796585,-2.836693775443627,0.32638447743060645,0.24676672903114039,-0.6693191528320312,-0.48967698216438293,0.25006088614463806,STATIONARY,0,0.0,0.0,0.0,0.398321826971109,-0.18115710196506885,0.0512832863389209
1769183780.2913263,0.04949808120727539,-0.10515198111534119,0.030106279999017715,1.0086612701416016,-1.031540934741497,0.2953426067903638,9.894967060089112,-1.9945524938290555,0.012402762465573314,10.146544008001534,-2.6111480791013983,0.39265145378098526,0.18784521623608974,-0.5944882035255432,-0.6420878767967224,0.08085120469331741,STATIONARY,0,0.0,0.0,0.0,0.3919243573956189,-0.18019508232725487,0.05174351839752759
1769183780.3380249,0.04671192169189453,-0.008392412215471268,0.12091069668531418,0.9701571464538574,-0.08232956383377314,1.1861339344829323,9.517241606712341,-1.6316809112132014,0.23513499795683537,10.027124899111165,-2.2482764964855444,0.6153836892722473,0.06842610734572041,-0.620449960231781,-0.534270167350769,0.32611361145973206,STATIONARY,0,0.0,0.0,0.0,0.3870186099232038,-0.1788523128845587,0.05189282441201611
1769183780.3879497,0.049874067306518555,0.04364026337862015,0.061426520347595215,0.9462748765945435,0.42811098374426365,0.6025941646099091,9.282956539392472,-1.2408060121320736,0.30486561736240475,9.88590833581829,-1.8574015974044165,0.6851143086778166,-0.07279045594715505,-0.5123267769813538,-0.600549042224884,0.2628890573978424,STATIONARY,0,0.0,0.0,0.0,0.3823984672316842,-0.17714814407663013,0.05171176378757895
1769183780.438297,0.05043935775756836,0.037094224244356155,0.008254947140812874,0.8324683904647827,0.36389433983713393,0.0809810314513743,8.166514910459519,-0.9362912261156121,0.26238032302853165,9.559628902802197,-1.552886811387955,0.6426290143439436,-0.3990698889632469,-0.3162390887737274,-0.8733003735542297,0.15843109786510468,STATIONARY,0,0.0,0.0,0.0,0.37844772315461644,-0.17551321308645576,0.05069647858546659
1769183780.4917293,0.05339479446411133,0.05939924716949463,-0.037631239742040634,0.7508299946784973,0.5827066147327423,-0.36916246186941865,7.3656422477960595,-0.6480397143004768,0.14253606938488952,9.14328863344767,-1.2646352995728196,0.5227847607003014,-0.8154101583177749,-0.45643267035484314,-0.742880642414093,0.17858964204788208,STATIONARY,0,0.0,0.0,0.0,0.374842242761052,-0.17402275160289926,0.04837174090060114
1769183780.5384836,0.046848297119140625,0.03951868414878845,0.0031563034281134605,0.6146034598350525,0.38767829149961475,0.03096333662979305,6.0292599409818655,-0.45149744613023635,0.12136355153849099,8.552357261262403,-1.0680930314025794,0.5016122428539029,-1.4063415305030418,-0.34892037510871887,-0.36842024326324463,0.5304480195045471,STATIONARY,0,0.0,0.0,0.0,0.3724980317560923,-0.1729218316405468,0.0452851546243028
1769183780.5927403,0.0541987419128418,-0.1631583720445633,-0.09624913334846497,0.7859223484992981,-1.600583629757166,-0.9442039981484414,7.7098982387781145,-0.66955294346482,-0.08084309344716917,8.392488642398684,-1.2861485287371628,0.2994055978682428,-1.5662101493667606,0.1626792699098587,-0.49761825799942017,0.7390584945678711,STATIONARY,0,0.0,0.0,0.0,0.3687199657907223,-0.17204232661148305,0.04068440663312821
1769183780.6429508,0.0501401424407959,-0.08466462790966034,-0.011820068582892418,0.5356456637382507,-0.8305599997937679,-0.11595487279817462,5.25468396127224,-0.7001063294879388,-0.08750605451813041,7.797045437153468,-1.3167019147602819,0.2927426367972815,-2.1616533546119765,0.405498206615448,-0.2441091686487198,0.8777249455451965,STATIONARY,0,0.0,0.0,0.0,0.3654097325619093,-0.17130636170328808,0.03524993685420753
1769183780.6889825,0.04594302177429199,-0.12489883601665497,-0.0562056340277195,0.7449812293052673,-1.2252575813233852,-0.5513772698119283,7.308265859484673,-0.7997612718469322,-0.17553223566219572,7.7042925388816,-1.416356857119275,0.20471645565321622,-2.254406252883844,0.022791128605604172,0.5842240452766418,0.6043627262115479,STATIONARY,0,0.0,0.0,0.0,0.3624201413920799,-0.17087425414150847,0.030491423494419294
1769183780.7394428,0.0505526065826416,-0.30558252334594727,-0.04872762784361839,0.7873845100402832,-2.997764554023743,-0.4780180291458965,7.724242043495178,-1.2168637535122415,-0.23293323053496073,7.708078242001241,-1.8334593387845843,0.1473154607804512,-2.2506205497642036,0.6974918246269226,-0.46860215067863464,0.27632808685302734,STATIONARY,0,0.0,0.0,0.0,0.35773461498428,-0.17049777975390543,0.02473981406584703
