timestamp,dt,heading_rad,accel_x,accel_y,accel_z,accel_norm,step_event
0.000318,0.000318,1.880055,0.01285,0.123581,0.987703,0.995487,0
0.127735,0.127417,1.878904,0.015517,0.121639,0.99209,0.99964,0
0.154366,0.026631,1.877389,0.03273,0.125767,0.99672,1.005156,0
0.187925,0.033558,1.876374,0.030063,0.13305,0.994039,1.003355,0
0.21506,0.027135,1.876205,0.026184,0.137178,0.991602,1.001388,0
0.241852,0.026792,1.876724,0.027881,0.127952,0.975275,0.984027,0
0.27561,0.033758,1.877727,0.023275,0.141791,0.976006,0.986526,0
0.302168,0.026558,1.878627,0.032245,0.136692,0.979418,0.989436,0
0.328721,0.026553,1.878894,0.026184,0.138149,0.988191,0.998144,0
0.36226,0.033538,1.878957,0.025942,0.135478,0.99867,1.008151,0
0.388952,0.026692,1.879126,0.022305,0.12868,0.99672,1.00524,0
0.41569,0.026738,1.879472,0.021578,0.129166,0.992577,1.001179,0
0.449297,0.033608,1.880189,0.027639,0.137421,0.985997,0.995911,0
0.475868,0.026571,1.881417,0.037094,0.134993,0.987947,0.997817,0
0.503079,0.02721,1.883052,0.024729,0.156116,1.049846,1.061678,0
0.536678,0.0336,1.884833,0.0337,0.069681,0.986972,0.990003,0
0.563205,0.026526,1.885017,-0.01481,0.127466,0.970157,0.978607,0
0.589669,0.026464,1.885291,0.00097,0.120668,1.004518,1.011741,0
0.623559,0.03389,1.885356,0.055763,0.144704,0.994527,1.006545,0
0.650092,0.026533,1.886006,0.044125,0.156116,0.96772,0.981225,0
0.676572,0.02648,1.886496,0.074916,0.154416,1.004275,1.018835,0
0.710161,0.033589,1.888097,0.04558,0.139606,0.997939,1.008687,0
0.736795,0.026633,1.888762,0.024002,0.121882,0.993065,1.000804,0
0.763294,0.0265,1.887971,0.010425,0.111927,0.981611,0.988027,0
0.789795,0.0265,1.885922,0.012122,0.119697,1.058375,1.065191,0
0.823505,0.03371,1.884347,0.048004,0.126495,0.971863,0.981236,0
0.85002,0.026515,1.883438,0.041458,0.132565,0.984292,0.994043,0
0.876604,0.026584,1.882388,0.036367,0.14349,0.977224,0.988372,0
0.910421,0.033817,1.881713,0.035397,0.146647,0.996476,1.007831,0
0.937011,0.026589,1.881139,0.031276,0.13475,0.989653,0.999274,0
0.963544,0.026533,1.880656,0.021578,0.130137,0.995258,1.003962,0
0.990089,0.026545,1.880766,0.034427,0.110471,1.057888,1.064197,0
1.023957,0.033868,1.880612,0.018668,0.129408,0.999157,1.007675,0
1.050895,0.026938,1.880021,0.029094,0.124553,0.995502,1.003685,0
1.084526,0.033631,1.879608,0.033942,0.124553,0.981855,0.990305,0
1.111117,0.026592,1.879685,0.034427,0.123339,0.984779,0.99307,0
1.137833,0.026716,1.879562,0.040488,0.127709,0.978443,0.987572,0
1.171638,0.033805,1.879634,0.04558,0.124067,0.999157,1.007862,0
1.198181,0.026543,1.879716,0.030063,0.132565,0.986241,0.995565,0
1.224753,0.026572,1.880494,0.036367,0.118483,0.986241,0.993998,0
1.259202,0.03445,1.88155,0.023517,0.13305,0.999401,1.008493,0
1.29114,0.031937,1.882518,0.026669,0.117512,0.985997,0.993333,0
1.317916,0.026777,1.883711,0.024972,0.122125,0.987947,0.99578,0
1.344482,0.026566,1.884717,0.024972,0.131594,0.983561,0.992639,0
1.377979,0.033497,1.884754,0.031033,0.115812,0.981367,0.988664,0
1.404541,0.026562,1.885308,0.026669,0.123339,0.992334,1.000325,0
1.432512,0.027971,1.886764,0.039034,0.13475,0.990628,1.000512,0
1.459097,0.026585,1.888214,0.032245,0.117026,0.991115,0.998521,0
1.485544,0.026448,1.889804,-0.0,0.13038,0.984779,0.993372,0
1.512469,0.026924,1.891289,0.00097,0.148832,0.984779,0.995963,0
1.54595,0.033481,1.893368,-0.002715,0.114598,1.005981,1.012491,0
1.572438,0.026487,1.894663,0.016971,0.10343,0.999401,1.004882,0
1.598911,0.026473,1.894676,0.03273,0.133536,1.018165,1.027406,0
1.633115,0.034205,1.896322,0.053338,0.104644,0.999401,1.006279,0
1.659708,0.026592,1.899782,0.059399,0.111685,0.985023,0.993112,0
1.686206,0.026499,1.899321,0.017214,0.076237,0.989409,0.992491,0
1.719978,0.033772,1.8973,0.041943,0.096631,0.988191,0.99379,0
1.746625,0.026647,1.89589,0.040488,0.036419,0.962359,0.963898,0
1.773214,0.026589,1.89066,0.058429,0.092747,0.980392,0.986502,0
1.806965,0.033751,1.886788,0.027154,0.07041,0.99209,0.994956,0
1.833841,0.026876,1.883166,0.036367,0.070653,1.056426,1.05941,0
1.867423,0.033583,1.878934,0.048732,0.067011,0.992821,0.996272,0
1.894097,0.026674,1.874652,0.073704,0.054871,0.989409,0.993667,0
1.920685,0.026588,1.870897,0.027639,0.019666,0.977468,0.978056,0
1.9472,0.026514,1.864158,0.038064,0.04176,1.057401,1.058909,0
1.980804,0.033605,1.857935,-0.017525,0.045645,1.014754,1.015931,0
2.007845,0.02704,1.845778,0.013577,0.057299,1.011829,1.013541,0
2.041439,0.033594,1.833261,0.017456,0.072595,1.016947,1.019684,0
2.068031,0.026592,1.824842,0.036852,0.010197,1.007443,1.008168,0
2.094707,0.026677,1.816269,0.025942,0.093961,0.960897,0.965828,0
2.121426,0.026718,1.803172,-0.007158,0.078908,1.057888,1.060851,0
2.15529,0.033864,1.795507,0.096251,0.113141,0.995989,1.007005,0
2.182155,0.026865,1.787879,0.085099,0.069924,0.970888,0.977116,0
2.215716,0.033561,1.782036,0.047035,0.036662,0.981367,0.983177,0
2.242318,0.026602,1.775696,0.093099,0.089833,1.013535,1.021759,0
2.268915,0.026597,1.780361,0.027396,-0.024846,0.979905,0.980603,0
2.302145,0.03323,1.791969,0.403915,0.034477,1.186072,1.253437,1
2.32901,0.026865,1.828856,0.02376,0.287952,0.702091,0.759218,0
2.357475,0.028464,1.876773,-0.202899,-0.124231,0.875359,0.907113,0
2.403714,0.04624,1.897822,-0.088614,-0.185744,1.157316,1.175472,0
2.432326,0.028612,1.905268,-0.058006,-0.176819,1.217266,1.231408,0
2.459117,0.026791,1.904666,-0.014563,-0.132915,1.143426,1.151217,0
2.489031,0.029914,1.893011,-0.003703,-0.005307,1.046434,1.046454,0
2.525914,0.036883,1.874873,0.035155,0.154173,0.90704,0.92072,0
2.570176,0.044262,1.866632,0.067885,0.230653,0.868536,0.901201,0
2.60867,0.038493,1.873818,0.057702,0.17214,0.906065,0.924075,0
2.64835,0.039681,1.895234,0.158075,0.147861,1.031812,1.054271,0
2.688995,0.040644,1.909513,0.125102,0.113384,1.031081,1.044814,0
2.725406,0.036411,1.922824,0.114434,0.064583,1.056426,1.064566,0
2.762656,0.03725,1.93018,0.073461,0.181609,0.990871,1.010052,0
2.790288,0.027632,1.939637,0.050671,0.073566,0.942376,0.9466,0
2.828454,0.038166,1.948917,0.022063,0.120911,0.99672,1.004269,0
2.862397,0.033943,1.950284,0.045822,0.093718,0.96114,0.966785,0
2.9087,0.046303,1.951306,0.074673,0.100031,0.937258,0.945534,0
2.940973,0.032274,1.953083,0.117829,0.103672,1.0033,1.015501,0
2.969388,0.028415,1.957363,0.090675,0.120425,1.007686,1.0189,0
3.004311,0.034923,1.955359,-0.018513,0.093475,0.962359,0.967065,0
3.037652,0.033341,1.954884,0.064733,0.073809,1.013048,1.017794,0
3.071002,0.03335,1.956114,0.083159,0.122125,1.033031,1.043543,0
3.120649,0.049646,1.95558,0.070794,0.109985,1.046191,1.054335,0
3.148623,0.027974,1.961427,0.08922,0.08085,1.011342,1.018484,0
3.176625,0.028002,1.968896,0.005091,0.118968,1.012073,1.019054,0
3.210942,0.034317,1.973856,0.072734,0.12868,1.056182,1.066475,0
3.245577,0.034635,1.979598,0.059157,0.115569,0.988434,0.996924,0
3.28129,0.035712,1.984167,0.048004,0.087163,0.946519,0.951735,0
3.313511,0.032221,1.985885,0.035397,0.083035,0.913863,0.91831,0
3.354469,0.040959,1.989161,0.041701,0.082064,0.94993,0.95438,0
3.383004,0.028535,1.986204,0.040488,0.089348,0.947493,0.952558,0
3.416143,0.033138,1.985361,0.106676,0.019909,0.937258,0.943519,0
3.440941,0.024798,1.98762,0.133588,0.001214,0.955779,0.96507,0
3.469201,0.02826,1.990893,0.117344,0.001942,1.010855,1.017645,0
3.505499,0.036299,1.992505,0.127527,-0.006996,1.031812,1.039687,0
3.538544,0.033045,2.00085,0.147165,-0.025087,1.013048,1.023989,0
3.574255,0.035711,2.005777,0.096736,0.021123,1.006712,1.011569,0
3.609149,0.034894,2.008959,0.126072,0.023794,0.936771,0.945516,0
3.641303,0.032155,2.012757,0.115404,-0.060306,0.914107,0.923334,0
3.671188,0.029885,2.01824,0.098918,0.012625,0.906552,0.91202,0
3.702415,0.031227,2.02033,0.128739,0.024522,0.876821,0.886561,0
3.72939,0.026976,2.022975,0.162681,0.021609,0.851964,0.867626,0
3.756444,0.027054,2.026142,0.169955,0.037876,0.931653,0.947785,0
3.783434,0.02699,2.031386,0.196139,0.024036,0.908746,0.929982,0
3.817531,0.034097,2.033956,0.155408,0.02695,0.953829,0.966783,0
3.844684,0.027153,2.037138,0.207291,-0.007478,1.049846,1.070141,0
3.878462,0.033778,2.03823,0.173349,0.012382,1.117106,1.130544,0
3.905232,0.02677,2.037354,0.15759,0.003642,1.148787,1.159551,0
3.936828,0.031596,2.03261,0.123647,0.053414,1.178518,1.18619,1
3.96526,0.028432,2.029637,0.198321,0.024279,1.19972,1.216243,0
4.005805,0.040546,2.027508,0.07831,-0.00386,1.188753,1.191336,0
4.040365,0.03456,2.03048,-0.075285,-0.055964,1.200451,1.20411,0
4.069418,0.029052,2.033033,-0.169576,0.036662,1.235299,1.247423,0
4.096846,0.027428,2.033472,-0.086146,0.137421,1.237005,1.247593,0
4.127806,0.03096,2.033194,-0.037025,0.102701,1.030107,1.035875,0
4.156658,0.028852,2.03624,-0.071582,0.021366,0.912401,0.915454,0
4.184325,0.027666,2.04297,-0.110336,0.055114,0.928241,0.936399,0
4.215346,0.031022,2.048169,-0.075285,0.17651,0.976737,0.995409,0
4.242611,0.027264,2.053101,-0.026658,0.112656,0.958947,0.96591,0
4.269695,0.027085,2.062218,-0.00543,0.072109,0.923367,0.926195,0
4.296867,0.027172,2.075122,-0.010614,0.135235,0.821746,0.832867,0
4.3312,0.034333,2.083548,0.01091,0.107072,0.818334,0.825381,0
4.366882,0.035682,2.085926,0.047035,0.03132,0.779586,0.781632,0
4.398363,0.031481,2.085439,0.041943,0.103915,0.822721,0.830317,0
4.42542,0.027057,2.082491,0.088008,0.031806,0.845628,0.85079,0
4.452749,0.027329,2.08119,0.079037,0.026707,0.838561,0.842701,0
4.480033,0.027283,2.079173,0.140619,0.079879,0.889006,0.903596,0
4.510699,0.030666,2.079674,0.166318,0.066282,0.890712,0.908528,0
4.538942,0.028243,2.081036,0.163166,0.056571,0.881451,0.898209,0
4.566173,0.027231,2.084095,0.198321,0.057785,0.88072,0.904621,0
4.60036,0.034188,2.083932,0.153953,0.043217,0.861956,0.876662,0
4.627548,0.027187,2.080631,0.184986,0.012625,0.898267,0.917203,0
4.661711,0.034164,2.078435,0.183289,-0.041491,1.070317,1.086689,0
4.68834,0.026628,2.071857,0.105222,0.034962,1.269661,1.274493,1
4.722023,0.033684,2.057538,0.062793,0.093961,1.335946,1.340718,0
4.748786,0.026763,2.03353,0.07831,0.078908,1.274778,1.279617,0
4.77542,0.026634,2.012255,0.108131,-0.119889,1.220677,1.231308,0
4.810257,0.034837,1.997053,-0.014316,-0.020022,1.268929,1.269168,0
4.841026,0.03077,1.979435,0.008486,0.047587,1.339358,1.34023,0
4.868559,0.027533,1.967813,-0.020734,0.073081,1.241148,1.243471,0
4.902968,0.03441,1.958131,-0.000987,0.094689,1.059106,1.063331,0
4.929648,0.02668,1.948472,0.012365,0.04346,0.863905,0.865086,0
4.963259,0.033611,1.939877,-0.073063,0.014325,0.791527,0.795021,0
4.989832,0.026572,1.930417,-0.075038,0.020637,0.78641,0.790251,0
5.016429,0.026597,1.915831,-0.006911,0.063854,0.81809,0.820608,0
5.050157,0.033727,1.903895,0.027881,0.050015,0.814922,0.816932,0
5.077105,0.026948,1.899937,0.060369,0.018209,0.814191,0.816629,0
5.103567,0.026462,1.895285,0.016486,0.038604,0.837099,0.838151,0
5.137222,0.033655,1.890335,0.02182,0.016267,0.831006,0.831452,0
5.163888,0.026667,1.891382,0.025457,-0.020745,0.862687,0.863312,0
5.190401,0.026512,1.890316,0.045095,0.116783,0.897779,0.906465,0
5.21694,0.026539,1.888117,0.09916,0.019423,0.856107,0.86205,0
5.250508,0.033568,1.892424,0.100615,-0.030153,0.854401,0.860833,0
5.277028,0.02652,1.894486,0.096009,0.024279,0.846847,0.852617,0
5.30358,0.026552,1.893241,0.12389,0.003885,0.860981,0.869857,0
5.3372,0.033621,1.893691,0.218444,-0.030877,0.918493,0.944617,0
5.369314,0.032114,1.892671,0.212383,-0.008443,0.997207,1.019608,0
5.392511,0.023197,1.884206,0.139649,-0.025087,1.115644,1.12463,0
5.419199,0.026688,1.871097,0.109343,-0.068026,1.179736,1.186744,1
5.4528,0.033601,1.851931,0.019153,0.004613,1.169745,1.169911,0
5.479299,0.026499,1.828208,0.099645,0.011411,1.279408,1.283334,0
5.505772,0.026473,1.809262,0.073946,0.036662,1.315963,1.318549,0
5.53235,0.026577,1.793835,-0.031348,0.001942,1.251627,1.252021,0
5.565834,0.033484,1.782545,-0.211044,0.088376,1.28477,1.304984,0
5.592313,0.026479,1.775976,-0.156741,0.117754,1.223114,1.238726,0
5.61896,0.026647,1.774146,-0.074544,0.127952,1.119056,1.128811,0
5.645485,0.026525,1.780695,-0.073557,0.114598,1.015485,1.024574,0
5.678968,0.033483,1.786893,-0.138968,0.104401,0.935065,0.951083,0
5.705436,0.026467,1.789519,-0.12169,0.136692,0.854401,0.873782,0
5.732,0.026564,1.79299,0.002667,0.096389,0.78909,0.79496,0
5.758514,0.026514,1.804118,0.061096,0.056571,0.725973,0.730732,0
5.792126,0.033612,1.813836,0.02279,0.037876,0.700385,0.701778,0
5.818858,0.026732,1.822745,0.041701,0.052443,0.761796,0.764737,0
5.845372,0.026514,1.831959,0.081219,0.03739,0.835393,0.840164,0
5.879112,0.03374,1.838271,0.024487,0.025008,0.871216,0.871919,0
5.905863,0.026751,1.839123,0.053581,0.065554,0.877065,0.881142,0
5.932415,0.026552,1.834797,0.11298,0.040546,0.868292,0.87655,0
5.965897,0.033481,1.835076,0.120981,0.008983,0.883157,0.891451,0
5.992364,0.026467,1.836617,0.096978,0.05997,0.90046,0.90765,0
6.018821,0.026457,1.834683,0.126072,0.056813,0.911914,0.922338,0
6.045282,0.026461,1.834427,0.172379,-0.007719,0.994527,1.009385,0
6.071743,0.026461,1.833916,0.116132,0.023065,1.058375,1.064978,0
6.105439,0.033696,1.828859,0.148377,0.03132,1.131485,1.141601,0
6.132291,0.026852,1.825475,0.142073,-0.018092,1.196064,1.204608,1
6.158769,0.026478,1.816374,0.017699,0.062883,1.209955,1.211717,0
6.192197,0.033427,1.800068,0.074916,0.002914,1.16877,1.171172,0
6.21866,0.026463,1.787737,0.038549,-0.148354,1.121737,1.132161,0
6.245118,0.026458,1.790359,-0.144152,-0.143047,1.218484,1.235292,0
6.271597,0.026479,1.795936,-0.216475,0.087648,1.397601,1.41698,0
6.298053,0.026456,1.792012,-0.100709,0.142034,1.332778,1.344103,0
6.331608,0.033556,1.792011,-0.044924,0.026707,1.054476,1.055771,0
6.359436,0.027828,1.79626,-0.032335,0.003642,0.778611,0.779291,0
6.393236,0.0338,1.80065,-0.008639,-0.00989,0.845384,0.845486,0
6.420069,0.026833,1.802732,-0.051589,0.04953,0.848065,0.851075,0
6.453605,0.033537,1.80252,-0.061956,0.090076,0.844166,0.851216,0
6.480166,0.026561,1.80126,0.011395,0.039818,0.824426,0.825466,0
6.506602,0.026436,1.808265,-0.008639,-0.01182,0.802006,0.80214,0
6.54089,0.034289,1.815343,-0.063437,0.0017,0.819796,0.822249,0
6.567385,0.026495,1.820699,-0.006418,-0.008443,0.932872,0.932932,0
6.593859,0.026474,1.832567,0.034427,-0.027017,0.915325,0.916371,0
6.627326,0.033467,1.842482,0.027154,0.065068,0.950418,0.953029,0
6.653917,0.026591,1.848366,0.036852,0.053414,0.917519,0.919811,0
6.680455,0.026538,1.853001,0.063278,-0.004825,0.845384,0.847763,0
6.706938,0.026483,1.860749,0.113465,-0.009167,0.849527,0.85712,0
6.740538,0.0336,1.865776,0.162924,0.000486,0.881695,0.896622,0
6.767038,0.0265,1.869828,0.151044,-0.010614,0.897779,0.910458,0
6.793742,0.026704,1.873078,0.115162,-0.018574,0.991359,0.998198,0
6.820435,0.026693,1.874241,0.087765,-0.010131,1.048628,1.052343,0
6.854223,0.033788,1.874377,0.053338,0.06604,1.140745,1.143899,0
6.881529,0.027306,1.867833,0.086796,0.123339,1.304509,1.313198,1
6.915203,0.033674,1.864582,0.059157,0.093232,1.305971,1.310631,0
6.941761,0.026558,1.863543,-0.104658,0.013596,1.246266,1.250726,0
6.975959,0.034198,1.864853,-0.199443,-0.011096,1.252114,1.267948,0
7.002457,0.026499,1.869627,-0.185127,0.043703,1.236274,1.250822,0
7.028929,0.026471,1.877369,-0.088367,0.135964,1.224333,1.235025,0
7.062352,0.033424,1.886589,-0.048873,0.122853,1.061543,1.069746,0
7.088812,0.02646,1.896923,-0.053317,0.059241,0.890468,0.894028,0
7.115214,0.026401,1.910144,-0.043196,0.046859,0.776662,0.779272,0
7.141777,0.026563,1.927193,-0.017772,0.07915,0.770326,0.774585,0
7.168258,0.026481,1.94618,0.022305,0.152474,0.79567,0.810455,0
7.20173,0.033472,1.960729,0.050186,0.09736,0.752536,0.760466,0
7.228183,0.026453,1.976804,0.048489,0.051958,0.73499,0.738418,0
7.254674,0.026491,1.990575,-0.012342,0.061669,0.790309,0.792807,0
7.281148,0.026474,1.99874,-0.030608,0.107314,0.909477,0.916297,0
7.307623,0.026475,2.010122,0.059399,0.084492,0.957972,0.963524,0
7.341199,0.033576,2.021708,0.093827,0.036176,0.959678,0.964932,0
7.37013,0.028931,2.030105,0.011395,0.034234,0.890956,0.891686,0
7.393159,0.02303,2.035961,-0.021722,-0.012061,0.830519,0.83089,0
7.419984,0.026824,2.036479,-0.024684,0.039332,0.846115,0.847389,0
7.446595,0.026612,2.024791,0.073946,0.081093,0.905334,0.911961,0
7.480121,0.033526,2.017349,0.116616,-0.001447,0.866099,0.873916,0
7.506652,0.026531,2.014223,0.087038,-0.036184,0.896073,0.901017,0
7.533332,0.02668,2.010508,0.046065,0.034477,1.102728,1.104228,0
7.559883,0.026551,2.000192,0.008728,0.067982,1.230669,1.232576,1
7.593391,0.033508,1.989127,-0.034557,0.064097,1.338139,1.340119,0
7.619941,0.02655,1.976285,0.018911,-0.029671,1.254795,1.255288,0
7.64643,0.026489,1.967918,-0.082443,-0.140152,1.243585,1.25417,0
7.673142,0.026712,1.96788,-0.166614,-0.142806,1.299392,1.317791,0
7.706661,0.033519,1.968686,-0.242393,0.017724,1.353005,1.37466,0
7.733251,0.026591,1.964882,-0.253994,0.060455,1.221896,1.249479,0
7.759797,0.026545,1.95315,-0.149829,0.021609,0.996476,1.007909,0
7.793355,0.033559,1.947581,-0.050354,-0.04125,0.783973,0.78667,0
7.820077,0.026722,1.945243,-0.038013,-0.044144,0.708427,0.710818,0
7.846665,0.026588,1.942134,-0.054798,-0.012303,0.754973,0.757059,0
7.881486,0.034821,1.936615,-0.075532,0.042489,0.92483,0.928881,0
7.916064,0.034578,1.93646,-0.015304,0.008498,0.929947,0.930112,0
7.942848,0.026784,1.943768,-0.04443,-0.007237,0.916056,0.917162,0
7.976454,0.033607,1.948751,-0.110829,0.016753,0.955292,0.961845,0
8.00306,0.026606,1.958104,-0.076519,-0.011338,0.973813,0.97688,0
8.037662,0.034601,1.967485,-0.052329,0.027678,0.947981,0.949827,0
8.064291,0.026629,1.977512,-0.021228,0.067982,0.922149,0.924895,0
8.097892,0.033601,1.984662,0.021335,0.034962,0.84441,0.845402,0
8.124518,0.026626,1.992217,0.031033,0.02258,0.789334,0.790267,0
8.151214,0.026695,1.996336,0.087765,0.018938,0.812242,0.817189,0
8.177914,0.0267,1.999987,0.117344,-0.03739,0.831006,0.840083,0
8.21156,0.033646,2.00686,0.142801,-0.010855,0.984535,0.994897,0
8.238161,0.026601,2.015181,0.127284,0.0017,1.093711,1.101094,0
8.264773,0.026612,2.018307,0.008243,0.036176,1.138064,1.138669,0
8.298355,0.033582,2.017925,-0.072817,-0.002895,1.124174,1.126533,0
8.324951,0.026596,2.016696,-0.039987,-0.036184,1.141963,1.143236,0
8.352298,0.027347,2.016598,-0.02888,-0.030636,1.233106,1.233825,1
8.383683,0.031386,2.018527,-0.101943,-0.047039,1.287207,1.292094,0
8.410581,0.026897,2.019185,-0.244367,0.007769,1.200938,1.225572,0
8.444338,0.033757,2.017924,-0.201665,0.165342,1.122955,1.152838,0
8.470953,0.026615,2.02018,-0.057019,0.071138,1.018897,1.022967,0
8.497539,0.026586,2.030767,-0.022709,0.088376,0.906552,0.911133,0
8.531109,0.03357,2.040297,-0.126133,0.09129,0.850502,0.864637,0
8.557879,0.026771,2.050549,-0.163158,0.095175,0.857082,0.877649,0
8.584481,0.026602,2.065943,-0.039247,0.109985,0.894124,0.901717,0
8.618046,0.033565,2.075193,-0.025671,0.118968,0.840754,0.849517,0
8.64522,0.027174,2.083609,-0.089601,0.050015,0.766183,0.773024,0
8.678812,0.033591,2.088538,-0.066152,0.029621,0.822721,0.825907,0
8.705403,0.026592,2.093631,0.018668,0.066768,0.885351,0.888061,0
8.732038,0.026635,2.096662,0.053338,0.101973,0.887057,0.89449,0
8.758727,0.02669,2.099692,0.061339,0.078665,0.883645,0.889257,0
8.792427,0.0337,2.100157,0.073461,0.044917,0.890225,0.894379,0
8.819261,0.026834,2.100779,0.083159,0.050744,0.924342,0.929462,0
8.853066,0.033805,2.099521,0.123405,0.054143,0.927267,0.937008,0
8.87996,0.026894,2.098866,0.138921,0.009226,0.89193,0.902732,0
8.906753,0.026793,2.09645,0.096009,0.016267,0.905821,0.91104,0
8.940432,0.033679,2.09071,0.11007,-0.060065,0.947493,0.955755,0
8.967052,0.02662,2.085448,0.050429,-0.001447,1.086401,1.087571,0
9.000688,0.033637,2.07449,-0.060722,0.072838,1.256014,1.259588,1
9.027283,0.026594,2.054501,-0.010367,0.096389,1.288425,1.292067,0
9.05387,0.026588,2.033459,0.046307,-0.055241,1.19119,1.193369,0
9.080474,0.026604,2.015121,-0.034063,-0.130744,1.179005,1.186722,0
9.114712,0.034238,2.002655,-0.136253,-0.04728,1.202157,1.210777,0
9.144129,0.029416,1.983787,-0.12638,0.005827,1.21361,1.220187,0
9.17774,0.033611,1.969866,-0.028386,0.064583,1.090056,1.092336,0
9.204352,0.026612,1.952908,0.012365,0.034962,0.956266,0.956985,0
9.238077,0.033726,1.937781,-0.039741,-0.052587,0.768376,0.771198,0
9.266126,0.028049,1.927573,-0.031842,-0.092872,0.835149,0.8409,0
9.297688,0.031562,1.92243,-0.0195,-0.038596,0.951392,0.952375,0
9.32566,0.027972,1.909258,-0.086639,0.035691,0.981611,0.986073,0
9.361859,0.0362,1.902005,-0.089848,-0.019539,0.91167,0.916295,0
9.39597,0.034111,1.89603,-0.095032,0.013354,0.911426,0.916464,0
9.427732,0.031761,1.89138,-0.037766,0.003399,0.938964,0.939729,0
9.45572,0.027988,1.891458,-0.039247,0.015053,0.936527,0.93747,0
9.483213,0.027494,1.893041,-0.045418,0.026464,0.953098,0.954547,0
9.514215,0.031001,1.893157,-0.046899,0.031077,0.952855,0.954514,0
9.541952,0.027738,1.900188,0.016244,0.013354,0.966502,0.96673,0
9.578102,0.03615,1.908698,0.038064,0.057785,0.973082,0.975539,0
9.613074,0.034972,1.91679,0.056247,0.045888,0.952855,0.955616,0
9.648106,0.035032,1.927201,0.039276,0.018938,0.930922,0.931943,0
9.682813,0.034707,1.930939,0.024972,0.051715,0.916056,0.917855,0
9.717513,0.0347,1.937785,0.070067,-0.013026,0.903384,0.906191,0
9.752732,0.035219,1.942072,0.028609,0.024765,1.028888,1.029584,0
9.784356,0.031624,1.943441,0.041216,0.009712,1.072754,1.073589,0
9.812558,0.028203,1.941561,0.006546,0.013839,1.072997,1.073106,0
9.840839,0.02828,1.945158,-0.016538,-0.009167,1.126611,1.126769,0
9.872731,0.031893,1.954374,-0.016538,0.006313,1.15756,1.157695,0
9.900848,0.028117,1.966873,-0.040234,0.095903,1.115888,1.120724,0
9.932418,0.03157,1.976286,-0.017525,0.105615,1.059106,1.064504,0
9.960358,0.02794,1.984851,-0.051095,0.06604,0.95846,0.96209,0
9.988061,0.027703,1.992738,-0.056525,0.051958,0.859762,0.863184,0
10.019258,0.031197,1.994501,-0.067386,0.11824,0.863662,0.874319,0
10.047112,0.027854,1.999019,-0.023449,0.096631,0.987703,0.992696,0
10.080115,0.033003,2.005191,0.030306,0.131594,0.999157,1.008241,0
10.108006,0.027891,2.016266,-0.000741,0.115326,0.994527,1.001191,0
10.136175,0.02817,2.028588,-0.057019,0.097845,0.963821,0.970451,0
10.167325,0.03115,2.037126,-0.113298,0.077451,0.985997,0.995503,0
10.194939,0.027613,2.042488,-0.101203,0.112899,1.016216,1.027464,0
10.222558,0.027619,2.044281,-0.030608,0.096146,1.019384,1.024365,0
10.257442,0.034885,2.042334,-0.039741,0.073809,0.949199,0.952894,0
10.288854,0.031411,2.039639,-0.013329,0.080364,0.938964,0.942491,0
10.316773,0.027919,2.03587,0.03467,0.099545,0.948468,0.954308,0
10.344779,0.028006,2.03313,0.031276,0.075751,0.954804,0.958315,0
10.377179,0.0324,2.026508,-0.016785,0.077936,0.962846,0.966141,0
10.414335,0.037156,2.020507,-0.030608,0.056085,0.971376,0.973475,0
10.447225,0.03289,2.015165,-0.020241,0.056571,0.983317,0.985151,0
10.474658,0.027433,2.004029,-0.030361,0.07915,1.053501,1.056907,0
10.508981,0.034323,1.995394,0.018426,0.044917,1.002325,1.0035,0
10.536215,0.027235,1.989618,0.01188,0.032534,0.993796,0.994399,0
10.568355,0.03214,1.988044,-0.000247,0.118483,1.013048,1.019953,0
10.596292,0.027938,1.986587,0.024487,0.099302,1.04814,1.053118,0
10.631333,0.035041,1.984402,-0.015057,0.052686,0.94725,0.948833,0
10.666139,0.034806,1.982948,-0.019747,0.004127,0.949199,0.949414,0
10.700927,0.034788,1.979065,0.002182,0.022823,0.948956,0.949232,0
10.7357,0.034773,1.97538,0.016244,0.045645,0.977712,0.978911,0
10.770903,0.035203,1.97251,0.021093,0.074537,1.006468,1.009445,0
10.802758,0.031855,1.972382,0.036609,0.080607,1.006224,1.010111,0
10.8294,0.026642,1.973823,0.026184,0.083763,1.013048,1.016842,0
10.857455,0.028055,1.971736,-0.018266,0.118726,1.026939,1.03394,0
10.892527,0.035072,1.968838,0.01188,0.06604,0.981855,0.984145,0
10.927697,0.03517,1.968222,0.01285,0.051958,0.93604,0.937569,0
10.959163,0.031466,1.969145,0.051883,0.046859,0.958216,0.960763,0
10.987218,0.028055,1.971877,0.04364,0.057299,0.975762,0.978417,0
11.015514,0.028296,1.974452,0.005576,0.055842,0.984779,0.986377,0
11.04684,0.031325,1.976483,-0.012589,0.042246,0.999401,1.000372,0
11.07447,0.02763,1.976763,-0.016785,0.037633,0.993796,0.99465,0
11.102128,0.027658,1.974718,-0.016785,0.033505,0.988678,0.989388,0
11.133283,0.031154,1.971794,-0.011354,0.033505,0.993308,0.993938,0
11.161201,0.027919,1.969796,0.010183,0.029863,0.986485,0.986989,0
11.189124,0.027923,1.968862,0.00897,0.045159,0.987947,0.989019,0
11.22089,0.031765,1.96733,0.023517,0.121396,0.997939,1.00557,0
11.248988,0.028099,1.964725,0.025942,0.052443,0.985266,0.987002,0
11.284151,0.035163,1.964163,0.011637,0.032291,0.976006,0.976609,0
11.315682,0.031531,1.965125,0.025942,0.038361,0.999157,1.00023,0
11.343732,0.02805,1.964936,0.010183,0.06871,1.010367,1.012752,0
11.372359,0.028627,1.963159,0.011395,0.055114,0.997451,0.999038,0
11.403904,0.031545,1.964637,0.024002,0.042246,0.977955,0.979162,0
11.443187,0.039283,1.96517,0.01285,0.061912,0.980636,0.982673,0
11.475534,0.032347,1.964403,0.011637,0.063854,0.981124,0.983268,0
11.510475,0.034941,1.964943,0.016244,0.036904,0.980636,0.981465,0
11.541659,0.031184,1.964915,0.011153,0.123824,0.990871,0.998641,0
11.570035,0.028375,1.96356,0.007516,0.06264,0.995014,0.997012,0
11.59955,0.029515,1.963135,0.024002,0.057056,0.987216,0.989155,0
11.623808,0.024258,1.964572,0.022305,0.052443,0.983317,0.984967,0
11.655083,0.031275,1.965492,0.005819,0.075266,0.986485,0.989369,0
11.682781,0.027698,1.965782,0.011637,0.057056,0.99672,0.99842,0
11.710463,0.027682,1.966824,0.022305,0.046616,1.000619,1.001953,0
11.745509,0.035046,1.967533,0.003152,0.061669,0.98551,0.987443,0
11.777101,0.031592,1.967645,0.015032,0.042731,0.994527,0.995558,0
11.805394,0.028293,1.967382,0.016001,0.050744,0.997207,0.998626,0
11.838022,0.032628,1.967103,0.01188,0.045645,0.984292,0.985421,0
11.866706,0.028684,1.966666,0.01285,0.056085,1.000132,1.001786,0
11.901673,0.034967,1.964473,0.00194,0.059727,0.991846,0.993645,0
11.93685,0.035177,1.963261,0.003879,0.051472,0.966014,0.967392,0
11.968415,0.031565,1.965451,0.016486,0.040304,0.974544,0.975516,0
11.996357,0.027942,1.966424,0.00897,0.079393,1.000376,1.003561,0
12.025452,0.029095,1.967092,0.026184,0.064097,1.000619,1.003012,0
12.056937,0.031485,1.968901,0.016244,0.051715,0.982098,0.983593,0
12.084803,0.027866,1.970009,-0.004443,0.056085,0.981611,0.983222,0
12.116227,0.031424,1.969525,0.015274,0.050744,0.995989,0.997398,0
12.144075,0.027848,1.970966,0.024245,0.040061,0.983561,0.984675,0
12.172023,0.027948,1.972562,0.018426,0.055114,0.978199,0.979924,0
12.203493,0.03147,1.971674,0.005576,0.059484,0.983804,0.985617,0
12.231834,0.028341,1.971371,0.012365,0.038604,0.993796,0.994622,0
12.259875,0.028041,1.974008,0.035882,0.037633,1.0033,1.004646,0
12.291324,0.031448,1.971892,0.003879,0.078422,1.003056,1.006125,0
12.326318,0.034995,1.971097,0.014789,0.042974,0.991846,0.992887,0
12.362329,0.036011,1.972782,0.025942,0.041032,0.984048,0.985245,0
12.390221,0.027892,1.973771,0.014789,0.057299,0.991115,0.99288,0
12.421874,0.031653,1.973835,0.003637,0.060455,0.981611,0.983478,0
12.454484,0.032611,1.975415,0.019881,0.045888,0.980392,0.981667,0
12.482561,0.028077,1.976686,0.02376,0.050015,0.995989,0.997527,0
12.510593,0.028032,1.976252,0.011153,0.056328,0.936771,0.938529,0
12.545285,0.034692,1.975716,-0.000987,0.035691,0.93604,0.93672,0
12.58052,0.035234,1.975731,0.014789,0.050258,1.004031,1.005397,0
12.612496,0.031976,1.975878,0.025699,0.055599,0.996964,0.998844,0
12.640121,0.027625,1.976328,0.017941,0.044188,0.983561,0.984716,0
12.667671,0.02755,1.976701,0.002909,0.055114,0.979661,0.981215,0
12.702197,0.034526,1.976424,0.020123,0.046131,0.982586,0.983874,0
12.736797,0.0346,1.977852,0.019881,0.043217,0.984535,0.985684,0
12.771866,0.035069,1.977291,0.007031,0.072838,0.999644,1.002319,0
12.807201,0.035335,1.977867,0.017941,0.053414,0.988191,0.989796,0
12.84015,0.032949,1.980874,0.02279,0.037876,0.982342,0.983336,0
12.868605,0.028455,1.984198,0.01285,0.051229,0.991846,0.993251,0
12.900361,0.031756,1.984693,0.005576,0.074052,1.018165,1.02087,0
12.928206,0.027845,1.984022,0.01188,0.066768,1.004275,1.006562,0
12.963268,0.035062,1.984575,0.018426,0.038847,0.96772,0.968675,0
12.998054,0.034786,1.982939,0.003879,0.052443,0.976493,0.977908,0
13.033827,0.035773,1.981454,-0.000741,0.042731,0.993308,0.994227,0
13.065232,0.031405,1.97902,0.001455,0.047587,0.997939,0.999074,0
13.092953,0.027721,1.979324,0.025942,0.03132,0.994527,0.995358,0
13.120751,0.027797,1.978646,0.013335,0.063612,0.999401,1.001512,0
13.15215,0.031399,1.977727,0.030548,0.04783,0.995745,0.997361,0
13.180313,0.028163,1.98228,0.03176,0.045159,1.009149,1.010658,0
13.215591,0.035279,1.980815,-0.002468,0.076965,1.004518,1.007466,0
13.25088,0.035289,1.97793,0.034912,0.046616,1.006468,1.008152,0
13.28271,0.03183,1.979422,0.013819,0.014568,0.980392,0.980598,0
13.310421,0.027712,1.978988,-0.019006,0.048073,0.955292,0.956689,0
13.338168,0.027746,1.975854,0.01285,0.053414,0.989653,0.991177,0
13.370502,0.032334,1.975113,0.046307,0.048073,0.986485,0.98874,0
13.398562,0.02806,1.973714,0.00097,0.055114,0.981367,0.982914,0
13.433924,0.035363,1.972522,0.017699,0.050015,0.993796,0.995211,0
13.468372,0.034448,1.971625,-0.001481,0.042489,0.978443,0.979366,0
13.501103,0.032731,1.969505,0.002182,0.051715,1.000619,1.001957,0
13.536129,0.035026,1.968166,0.02085,0.035933,0.992334,0.993203,0
13.564114,0.027984,1.969958,0.024972,0.042974,0.985266,0.986519,0
13.598678,0.034564,1.970152,0.027396,0.047587,0.984048,0.985579,0
13.633464,0.034786,1.970035,0.012365,0.054628,1.053989,1.055476,0
13.668347,0.034883,1.969791,0.027881,0.051472,1.007443,1.009142,0
13.699882,0.031535,1.966789,0.007273,0.060455,1.016703,1.018525,0
13.728118,0.028236,1.964505,0.01188,0.049287,1.003544,1.004823,0
13.756295,0.028177,1.965367,0.049217,0.02865,0.999401,1.001022,0
13.787688,0.031393,1.966756,0.034912,0.052929,0.984779,0.986818,0
13.816739,0.029051,1.967037,0.027154,0.064097,0.984048,0.986507,0
13.847947,0.031208,1.967562,0.024972,0.046373,0.968939,0.970369,0
13.876344,0.028396,1.967502,-0.006911,0.042974,0.954804,0.955796,0
13.904392,0.028048,1.968888,0.013335,0.029135,0.999157,0.999671,0
13.935818,0.031426,1.968542,0.007273,0.059241,0.998913,1.000695,0
13.963908,0.02809,1.967741,-0.000987,0.046373,1.055938,1.056957,0
13.998816,0.034908,1.967615,0.009213,0.03132,0.994039,0.994575,0
14.033804,0.034988,1.966224,-0.000741,0.050986,0.990871,0.992183,0
14.068883,0.035079,1.964463,0.035155,0.038604,0.996233,0.9976,0
14.100363,0.03148,1.963819,0.022305,0.040789,0.97893,0.980034,0
14.12832,0.027957,1.963711,0.018911,0.048073,0.999157,1.000492,0
14.156387,0.028067,1.963548,0.024487,0.055842,0.999401,1.001259,0
14.187922,0.031535,1.962892,0.012607,0.042246,0.992334,0.993312,0
14.215821,0.0279,1.962787,0.017214,0.036176,1.001594,1.002395,0
14.243906,0.028085,1.96255,0.011395,0.058027,1.013048,1.014772,0
14.275586,0.03168,1.960662,0.016486,0.05827,0.999157,1.000991,0
14.310756,0.03517,1.960804,0.022063,0.033263,0.989897,0.990701,0
14.33877,0.028014,1.962149,0.011637,0.044917,0.985266,0.986358,0
14.371097,0.032327,1.9617,0.008486,0.055357,0.988678,0.990263,0
14.399088,0.027991,1.961518,0.011395,0.040304,0.997207,0.998087,0
14.434504,0.035415,1.964246,0.021335,0.034719,0.993065,0.9939,0
14.469282,0.034778,1.96374,0.006304,0.056328,0.989653,0.991275,0
14.500774,0.031492,1.963397,0.012122,0.046859,0.999157,1.000329,0
14.52877,0.027996,1.963317,0.023032,0.04783,0.987947,0.989372,0
14.556536,0.027766,1.964143,0.020123,0.041032,0.999888,1.000932,0
14.587632,0.031096,1.96383,0.004606,0.048559,0.991846,0.993045,0
14.615054,0.027421,1.964591,0.027639,0.028164,0.99014,0.990926,0
14.649555,0.034502,1.964636,0.008001,0.045159,0.977468,0.978543,0
14.684704,0.035149,1.965761,0.024487,0.037876,0.988678,0.989706,0
14.712693,0.027989,1.967242,0.007273,0.052929,1.007199,1.008615,0
14.744717,0.032024,1.966628,-0.000987,0.056085,0.994771,0.996351,0
14.772943,0.028226,1.96728,0.024002,0.025493,0.99672,0.997335,0
14.808081,0.035138,1.967032,0.004606,0.04176,0.986972,0.987866,0
14.843329,0.035248,1.969259,0.030306,0.03302,1.004762,1.005761,0
14.875109,0.03178,1.969835,0.007758,0.0539,0.990628,0.992123,0
14.903166,0.028057,1.969177,0.013092,0.036904,0.973569,0.974356,0
14.931172,0.028006,1.97024,0.010668,0.029378,0.991359,0.991851,0
14.962701,0.031528,1.969372,0.005334,0.044917,0.990384,0.991416,0
14.99064,0.02794,1.969009,0.012122,0.02865,0.987947,0.988437,0
15.025743,0.035102,1.969264,0.019638,0.046616,0.999157,1.000437,0
15.06081,0.035067,1.968716,0.009455,0.041518,0.935796,0.936764,0
15.092036,0.031226,1.968646,0.004606,0.044188,1.003056,1.00404,0
15.119872,0.027836,1.967664,0.013819,0.046373,1.000619,1.001789,0
15.147519,0.027647,1.967672,0.019638,0.030349,0.988191,0.988852,0
15.182722,0.035203,1.967555,0.003637,0.044431,0.984535,0.985544,0
15.214289,0.031566,1.967026,0.015517,0.033748,0.987216,0.987914,0
15.242355,0.028067,1.967519,0.01188,0.027678,0.991846,0.992303,0
15.270392,0.028037,1.967393,-0.003456,0.04783,1.000376,1.001524,0
15.302438,0.032047,1.96634,0.004849,0.044917,0.993308,0.994335,0
15.337909,0.03547,1.965171,0.006304,0.036662,0.977224,0.977932,0
15.366055,0.028146,1.965136,0.003152,0.032534,0.98746,0.988,0
15.396185,0.03013,1.965115,0.007758,0.049287,0.996233,0.997481,0
15.422891,0.026706,1.965012,-0.006665,0.048316,0.992334,0.993531,0
15.44953,0.026639,1.965189,0.000242,0.030106,0.978199,0.978662,0
15.477075,0.027545,1.967159,0.012607,0.026222,0.988678,0.989106,0
15.504767,0.027692,1.968867,0.00194,0.050744,1.000376,1.001664,0
15.538499,0.033732,1.969211,0.001455,0.03739,1.002813,1.00351,0
15.565176,0.026677,1.970065,0.003879,0.013839,0.999401,0.999504,0
15.591726,0.026549,1.971967,0.012607,0.021609,1.059838,1.060133,0
15.625277,0.033551,1.973102,0.012607,0.034719,1.00135,1.002031,0
15.65183,0.026553,1.973077,-0.003209,0.036419,0.994283,0.994955,0
15.678362,0.026533,1.972424,-0.003456,0.030835,0.998913,0.999395,0
15.71192,0.033557,1.972453,0.00994,0.030835,1.007199,1.00772,0
15.738518,0.026598,1.973047,0.003637,0.033748,0.999644,1.000221,0
15.765172,0.026654,1.97403,-0.002468,0.036176,0.985754,0.98642,0
15.791757,0.026585,1.974745,-0.000987,0.045402,0.979661,0.980713,0
15.825695,0.033939,1.976363,0.027396,0.033505,1.000132,1.001068,0
15.852233,0.026538,1.978356,-0.001728,0.047102,0.995014,0.99613,0
15.879052,0.026819,1.977747,-0.015057,0.036904,0.981124,0.981933,0
15.912663,0.03361,1.977272,0.002667,0.019423,0.99209,0.992284,0
15.939345,0.026683,1.977014,0.01091,0.020395,0.999401,0.999668,0
15.965912,0.026567,1.978188,0.010183,0.019181,1.002569,1.002804,0
15.999444,0.033532,1.977763,-0.00938,0.033991,0.997695,0.998318,0
16.025949,0.026505,1.976903,-0.001234,0.017967,0.990384,0.990548,0
16.052441,0.026493,1.976803,-0.000247,0.011411,0.983804,0.98387,0
16.078931,0.02649,1.97611,-0.00469,0.032291,0.988434,0.988973,0
16.112441,0.03351,1.974597,-0.00469,0.033991,0.992577,0.99317,0
16.138938,0.026497,1.973389,0.003152,0.035448,0.986972,0.987614,0
16.165477,0.026539,1.973036,0.003394,0.03739,0.995745,0.996453,0
16.191987,0.02651,1.972639,0.00897,0.046616,0.999157,1.000284,0
16.225506,0.033519,1.971966,0.015274,0.042489,1.000132,1.001151,0
16.25204,0.026534,1.971734,0.011637,0.04346,0.999888,1.0009,0
16.27978,0.02774,1.97164,0.012607,0.044431,1.001594,1.002658,0
16.309947,0.030167,1.971811,0.013577,0.043703,0.996476,0.997527,0
16.336545,0.026597,1.97294,0.012365,0.033748,0.98746,0.988114,0
16.363583,0.027039,1.973155,-0.000741,0.034477,0.993065,0.993663,0
16.390484,0.026901,1.973472,-0.003456,0.035448,0.990871,0.991511,0
16.417136,0.026653,1.973639,-0.008146,0.023065,0.985754,0.986057,0
16.443876,0.02674,1.973677,0.002909,0.035205,0.993552,0.99418,0
16.470389,0.026513,1.973801,-0.003209,0.027193,0.995502,0.995878,0
16.504788,0.0344,1.974353,0.003637,0.020637,0.99209,0.992311,0
16.531286,0.026497,1.974448,-0.003456,0.038361,1.000863,1.001604,0
16.565005,0.033719,1.973904,0.003152,0.034234,1.005981,1.006568,0
16.591532,0.026527,1.973785,0.008486,0.030835,0.991115,0.991631,0
16.618032,0.0265,1.973777,0.002667,0.043217,0.988922,0.989869,0
16.644506,0.026474,1.974019,0.016729,0.039332,0.999401,1.000314,0
16.677994,0.033488,1.97441,0.015517,0.035205,0.995258,0.996001,0
16.704479,0.026486,1.975116,0.006546,0.025493,0.983804,0.984156,0
16.730984,0.026505,1.975449,-0.005184,0.038118,1.056913,1.057613,0
16.757485,0.026501,1.975411,0.00194,0.031806,0.999401,0.999909,0
16.791057,0.033572,1.974906,0.007273,0.03739,0.997207,0.997935,0
16.817746,0.026689,1.974149,-0.002222,0.027921,0.985023,0.985421,0
16.844183,0.026438,1.974066,-0.002962,0.024522,0.982829,0.98314,0
16.871354,0.027171,1.975405,0.010425,0.024765,0.989165,0.98953,0
16.90488,0.033526,1.976396,0.003879,0.031077,0.996233,0.996725,0
16.93169,0.026809,1.976548,-0.009873,0.02695,0.993065,0.993479,0
16.965285,0.033595,1.976111,0.00097,0.031806,0.996233,0.996741,0
16.991762,0.026478,1.977216,0.024972,0.021366,0.986485,0.987032,0
17.018256,0.026494,1.978504,0.009213,0.045645,0.989653,0.990748,0
17.044766,0.026509,1.977152,-0.006418,0.047345,0.989653,0.990806,0
17.078233,0.033468,1.975842,-0.0,0.017481,0.995014,0.995168,0
17.104709,0.026476,1.97577,0.003879,0.023551,0.999157,0.999442,0
17.131177,0.026468,1.976086,0.012607,0.037876,1.011586,1.012373,0
17.157913,0.026737,1.972819,-0.000987,0.053657,1.002081,1.003517,0
17.191445,0.033531,1.970832,0.006061,0.031563,0.999157,0.999674,0
17.217951,0.026507,1.970493,0.014789,0.02525,0.994771,0.995201,0
17.244417,0.026466,1.970788,0.00194,0.045159,0.995989,0.997014,0
17.270916,0.026499,1.969726,-0.0,0.044917,0.98746,0.988481,0
17.304428,0.033512,1.969515,0.003152,0.024522,0.970645,0.970959,0
17.33099,0.026561,1.969887,-0.005677,0.034234,0.978443,0.979058,0
17.35764,0.026651,1.96882,-0.010861,0.048801,0.994283,0.995539,0
17.384479,0.026839,1.967023,-0.001728,0.033991,0.99867,0.999249,0
17.417966,0.033487,1.967926,0.025457,0.017724,0.999157,0.999638,0
17.444701,0.026736,1.968278,-0.002962,0.045645,0.99209,0.993144,0
17.471198,0.026496,1.967405,-0.004937,0.031806,0.991359,0.991881,0
17.504845,0.033647,1.967957,0.003879,0.02695,1.000376,1.000746,0
17.532346,0.027501,1.96914,-0.004196,0.049772,0.999401,1.000648,0
17.566203,0.033857,1.970143,0.008243,0.039575,0.987703,0.98853,0
17.592753,0.02655,1.971185,0.007273,0.034719,0.985997,0.986635,0
17.619262,0.02651,1.972874,0.007758,0.036904,0.996964,0.997677,0
17.652747,0.033485,1.973763,0.000242,0.031563,0.999401,0.999899,0
17.67922,0.026473,1.974313,-0.003209,0.025736,0.981611,0.981953,0
17.705698,0.026478,1.974699,-0.00938,0.030349,0.987947,0.988458,0
17.732199,0.026502,1.974163,-0.003209,0.034234,0.999644,1.000236,0
17.765734,0.033535,1.973824,-0.013082,0.025008,0.996233,0.996632,0
17.792326,0.026592,1.974648,0.005091,0.035205,1.010367,1.010993,0
17.819016,0.02669,1.974824,-0.000247,0.04953,0.937014,0.938323,0
17.846069,0.027053,1.975024,-0.000987,0.02258,0.970401,0.970664,0
17.876384,0.030315,1.975887,0.003152,0.017238,0.978199,0.978356,0
17.902868,0.026484,1.976564,0.000485,0.026464,0.991115,0.991468,0
17.929471,0.026603,1.976353,0.005091,0.025736,1.002081,1.002425,0
17.95597,0.026499,1.975724,-0.019747,0.04783,1.006468,1.007797,0
17.989511,0.033541,1.974064,-0.009873,0.03909,0.999888,1.000701,0
18.015952,0.026441,1.973834,0.007516,0.023794,0.990628,0.990942,0
18.042429,0.026478,1.973761,-0.001728,0.044431,0.999644,1.000633,0
18.068879,0.026449,1.973379,0.002667,0.038118,0.993308,0.994043,0
18.095341,0.026462,1.973477,-0.009873,0.029863,0.988191,0.988691,0
18.128804,0.033463,1.973864,-0.00469,0.018938,0.989165,0.989358,0
18.155268,0.026464,1.973779,-0.021722,0.035448,0.994283,0.995152,0
18.181854,0.026586,1.972309,-0.007899,0.036176,1.00135,1.002035,0
18.208501,0.026647,1.972482,-0.001234,0.019423,0.993552,0.993743,0
18.241985,0.033484,1.972818,-0.009133,0.030349,0.993065,0.99357,0
18.268532,0.026547,1.97344,-0.000987,0.031563,0.999157,0.999656,0
18.295019,0.026487,1.973963,-0.004443,0.036662,0.999401,1.000083,0
18.321518,0.026499,1.973538,-0.011354,0.016267,0.991359,0.991557,0
18.355098,0.033581,1.973563,-0.02493,0.011411,1.003544,1.003918,0
18.382072,0.026973,1.972291,-0.017772,0.032777,1.021577,1.022257,0
18.40859,0.026518,1.970756,-0.003949,0.039332,0.999401,1.000182,0
18.442292,0.033703,1.96906,-0.000741,0.044431,0.988434,0.989433,0
18.468826,0.026534,1.968395,0.014547,0.034719,0.973325,0.974053,0
18.495306,0.02648,1.968901,0.01285,0.040546,0.979418,0.980341,0
18.52177,0.026464,1.969374,0.001697,0.049044,0.992821,0.994033,0
18.556412,0.034642,1.970269,-0.004196,0.035933,0.984292,0.984956,0
18.583042,0.02663,1.972601,-0.016538,0.024522,0.988434,0.988877,0
18.617424,0.034382,1.97289,-0.021968,0.042731,0.999157,1.000312,0
18.64409,0.026665,1.972869,-0.016044,0.028164,0.999157,0.999683,0
18.670706,0.026617,1.973524,-0.015057,0.024765,0.990628,0.991052,0
18.697341,0.026635,1.973669,-0.01407,0.049287,0.995502,0.99682,0
18.723972,0.026631,1.971889,-0.000987,0.051229,0.993552,0.994872,0
18.757604,0.033631,1.971123,0.015759,0.044431,1.000376,1.001486,0
18.784407,0.026803,1.969721,-0.011108,0.050501,0.992334,0.99368,0
18.81124,0.026833,1.967703,-0.009873,0.029863,0.984048,0.98455,0
18.845046,0.033806,1.967357,-0.000741,0.051715,0.994771,0.996114,0
18.872001,0.026955,1.969375,0.011637,0.034234,0.989653,0.990313,0
18.905748,0.033747,1.971088,-0.010861,0.051472,0.999401,1.000784,0
18.932498,0.02675,1.972025,-0.013082,0.039818,1.059594,1.060423,0
18.959136,0.026637,1.972136,-0.014316,0.032777,1.000619,1.001258,0
18.992833,0.033698,1.971621,-0.011108,0.029135,0.991846,0.992336,0
19.019458,0.026624,1.971349,-0.000247,0.020637,0.984779,0.984995,0
