timestamp,dt,heading_rad,accel_x,accel_y,accel_z,accel_norm,step_event
0.000417,0.000417,1.813618,-0.008639,0.081093,0.989653,0.993007,0
0.136738,0.136321,1.813646,-0.017772,0.079636,1.060081,1.063217,0
0.166645,0.029906,1.813245,-0.017772,0.078179,0.999157,1.002369,0
0.198279,0.031635,1.813054,-0.010861,0.083763,0.995258,0.998836,0
0.231135,0.032856,1.814354,-0.016044,0.08522,0.990871,0.994659,0
0.266689,0.035554,1.815299,-0.005924,0.077451,0.991115,0.994154,0
0.291938,0.025249,1.815904,-0.014563,0.08085,0.991359,0.994757,0
0.325671,0.033733,1.81609,-0.001975,0.080122,0.99209,0.995322,0
0.358656,0.032985,1.816373,-0.012095,0.070167,1.004762,1.007282,0
0.384431,0.025774,1.81596,-0.01876,0.061184,0.937014,0.939197,0
0.41586,0.03143,1.81519,-0.017278,0.070895,0.976493,0.979216,0
0.449194,0.033333,1.814668,-0.016044,0.099059,0.987703,0.992788,0
0.480135,0.030941,1.814142,-0.021722,0.104401,0.999644,1.005316,0
0.507533,0.027398,1.81509,-0.011354,0.078665,0.999157,1.002313,0
0.554592,0.047059,1.816727,-0.01012,0.070895,0.988678,0.991268,0
0.590872,0.03628,1.817414,-0.015304,0.072109,0.985266,0.98802,0
0.619509,0.028637,1.817621,-0.015797,0.071867,0.983804,0.986552,0
0.650328,0.030819,1.817883,-0.010614,0.071867,0.982586,0.985268,0
0.685761,0.035433,1.817834,-0.004443,0.069681,1.056913,1.059217,0
0.716155,0.030394,1.817593,-0.010861,0.083763,0.995745,0.999321,0
0.742795,0.02664,1.81696,-0.008146,0.07041,1.000132,1.00264,0
0.772118,0.029324,1.817041,-0.022215,0.076722,0.993065,0.996272,0
0.801679,0.029561,1.817204,-0.001481,0.077208,0.982342,0.985373,0
0.829339,0.02766,1.816963,-0.016785,0.070167,0.984292,0.986932,0
0.856946,0.027607,1.816621,-0.008146,0.080122,0.983073,0.986366,0
0.888542,0.031595,1.817259,-0.017032,0.066282,0.989165,0.99153,0
0.91762,0.029078,1.817683,-0.021968,0.079636,0.978199,0.981681,0
0.949026,0.031407,1.817422,-0.012342,0.073809,0.990871,0.993693,0
0.976876,0.02785,1.817046,-0.019747,0.076237,1.004518,1.007601,0
1.005281,0.028405,1.816708,-0.00543,0.085706,0.997695,1.001384,0
1.037663,0.032382,1.817074,0.000485,0.07478,0.992821,0.995633,0
1.06587,0.028208,1.8172,-0.009627,0.075023,0.985997,0.988894,0
1.09739,0.031519,1.816714,-0.006171,0.073566,0.984292,0.987056,0
1.125129,0.027739,1.81739,-0.013329,0.08522,0.936771,0.940734,0
1.16129,0.036161,1.818031,-0.015797,0.077208,0.985266,0.988413,0
1.196049,0.034759,1.819088,-0.00469,0.081093,0.990384,0.99371,0
1.228902,0.032852,1.819236,-0.017032,0.075508,0.994039,0.997049,0
1.260389,0.031487,1.819883,-0.013329,0.06871,0.989165,0.991639,0
1.290753,0.030364,1.820703,-0.005924,0.070895,0.993308,0.995853,0
1.327315,0.036562,1.82124,-0.007899,0.071867,0.985754,0.988402,0
1.359299,0.031984,1.821628,-0.015304,0.063126,0.990871,0.992998,0
1.394217,0.034918,1.822309,-0.011354,0.075994,0.992821,0.99579,0
1.423535,0.029318,1.822767,-0.007652,0.06871,0.983073,0.985501,0
1.454713,0.031178,1.822757,-0.011601,0.075266,0.988434,0.991364,0
1.488582,0.033869,1.823047,-0.015304,0.07478,0.990628,0.993564,0
1.518043,0.029461,1.822505,-0.00938,0.072352,0.991359,0.99404,0
1.559,0.040956,1.822169,-0.011848,0.070653,0.999157,1.001722,0
1.586146,0.027146,1.822626,-0.012342,0.068953,0.99672,0.999179,0
1.615201,0.029055,1.823407,-0.009627,0.071867,0.983317,0.985986,0
1.648443,0.033242,1.824336,-0.002468,0.071138,0.977468,0.980056,0
1.681335,0.032892,1.827084,-0.029867,0.07478,0.938477,0.941925,0
1.715545,0.034209,1.828088,-0.003209,0.070895,0.995502,0.998028,0
1.741504,0.025959,1.828943,-0.019253,0.067254,0.997207,0.999658,0
1.770186,0.028682,1.829261,-0.018513,0.072352,0.994527,0.997327,0
1.805975,0.035789,1.82955,-0.01012,0.077451,0.991602,0.994674,0
1.839344,0.033368,1.829293,-0.008886,0.072595,0.991846,0.994539,0
1.872576,0.033233,1.828698,-0.011601,0.069196,0.994771,0.997242,0
1.897505,0.024928,1.828358,-0.011108,0.073323,0.991115,0.993886,0
1.928644,0.031139,1.828211,-0.003456,0.061184,0.983804,0.985711,0
1.962873,0.034229,1.828459,-0.015797,0.068225,0.995502,0.997962,0
1.996998,0.034125,1.828881,-0.00938,0.069924,0.993308,0.995811,0
2.030381,0.033383,1.829358,-0.005924,0.068468,0.997939,1.000302,0
2.063373,0.032992,1.829536,-0.021722,0.065797,0.999888,1.002286,0
2.093186,0.029813,1.829965,-0.014316,0.061427,0.994527,0.996525,0
2.124975,0.031789,1.831182,-0.007158,0.065554,0.984779,0.986984,0
2.153137,0.028162,1.831307,-0.007899,0.070167,1.060081,1.06243,0
2.185617,0.03248,1.832127,-0.014316,0.068468,0.996476,0.998928,0
2.213553,0.027937,1.832541,-0.006418,0.062155,0.991602,0.993569,0
2.247953,0.0344,1.832818,-0.021228,0.062398,0.993308,0.995493,0
2.275219,0.027267,1.833073,-0.010614,0.063369,0.997207,0.999275,0
2.308385,0.033166,1.833382,-0.005677,0.077451,0.984535,0.987593,0
2.341943,0.033558,1.833815,-0.002222,0.06604,0.993552,0.995747,0
2.37014,0.028197,1.834119,-0.021475,0.071138,1.00135,1.004104,0
2.405289,0.035149,1.833897,-0.009627,0.063854,0.991359,0.99346,0
2.445945,0.040656,1.833727,-0.003949,0.123824,0.99014,0.997861,0
2.475144,0.029199,1.833747,-0.005184,0.073323,0.998182,1.000885,0
2.507679,0.032535,1.833539,-0.017525,0.074052,0.999157,1.002051,0
2.543019,0.03534,1.833263,-0.008886,0.070167,0.985997,0.988531,0
2.572002,0.028983,1.833063,-0.009133,0.071138,0.989653,0.992248,0
2.604436,0.032434,1.832233,-0.011601,0.070895,1.059838,1.06227,0
2.640491,0.036056,1.831066,-0.015797,0.071138,0.991602,0.994276,0
2.672778,0.032287,1.830875,-0.001234,0.070895,0.988191,0.990731,0
2.701247,0.028469,1.832373,0.00097,0.057785,0.963821,0.965552,0
2.733764,0.032517,1.832685,-0.017772,0.060941,1.011829,1.013819,0
2.762067,0.028303,1.831958,-0.022462,0.065311,0.975762,0.978203,0
2.794559,0.032492,1.830476,-0.021968,0.081578,0.988922,0.992524,0
2.823235,0.028676,1.829094,-0.007652,0.075751,0.990628,0.993549,0
2.8552,0.031966,1.827719,-0.006911,0.088619,0.984048,0.988054,0
2.882695,0.027495,1.827914,0.004849,0.085949,0.98551,0.989263,0
2.910792,0.028096,1.829031,-0.009627,0.088134,0.998913,1.00284,0
2.941962,0.03117,1.829925,-0.022709,0.067496,0.997695,1.000233,0
2.971038,0.029076,1.829299,-0.018019,0.078665,0.990628,0.993909,0
3.004361,0.033323,1.829201,-0.00938,0.07915,0.994039,0.99723,0
3.03324,0.028878,1.829642,-0.011108,0.061184,0.993552,0.995496,0
3.065168,0.031928,1.830163,-0.001234,0.071867,0.977955,0.980593,0
3.092704,0.027536,1.831065,-0.000741,0.071624,0.968451,0.971096,0
3.123953,0.031249,1.832154,-0.00543,0.073809,0.997695,1.000436,0
3.152156,0.028203,1.8326,-0.01481,0.073809,1.008174,1.010981,0
3.180135,0.027979,1.832068,-0.018266,0.078179,0.991115,0.994361,0
3.212159,0.032025,1.831798,-0.010861,0.071624,0.994771,0.997405,0
3.241149,0.02899,1.831989,-0.000247,0.083521,0.992821,0.996328,0
3.273232,0.032083,1.831655,-0.006418,0.086191,0.989897,0.993663,0
3.300477,0.027245,1.830432,-0.005184,0.077208,0.973325,0.976396,0
3.332279,0.031802,1.826289,-0.020241,0.068225,0.988191,0.99075,0
3.360702,0.028423,1.819008,-0.023696,0.060941,0.999157,1.001294,0
3.395607,0.034905,1.814167,-0.012095,0.07041,0.997207,0.999763,0
3.42385,0.028243,1.811607,-0.003456,0.094204,0.995745,1.000198,0
3.455738,0.031887,1.809018,-0.016785,0.06264,0.999401,1.001503,0
3.484438,0.0287,1.805208,-0.039247,0.071624,1.007686,1.010991,0
3.518804,0.034366,1.802931,-0.008639,0.090319,1.005737,1.009821,0
3.553705,0.034901,1.798123,-0.00938,0.114598,1.057888,1.064118,0
3.589138,0.035433,1.792145,-0.000494,0.078665,0.991359,0.994475,0
3.620225,0.031087,1.788316,-0.001481,0.046131,0.97893,0.980018,0
3.647261,0.027037,1.781073,0.007516,0.075994,0.952611,0.955667,0
3.674277,0.027015,1.77676,-0.010367,0.069439,0.954561,0.957139,0
3.701257,0.02698,1.772029,-0.012095,0.170683,1.019628,1.033886,0
3.728837,0.02758,1.768743,-0.021968,0.04953,1.03035,1.031774,0
3.759953,0.031116,1.767262,0.039034,0.078908,1.015728,1.019536,0
3.786716,0.026763,1.768988,0.010668,0.070167,0.989409,0.991952,0
3.820626,0.03391,1.767318,0.017699,0.065311,0.970645,0.973,0
3.847976,0.02735,1.768334,0.040973,0.121153,0.990628,0.998849,0
3.882355,0.03438,1.755078,0.061824,0.2156,0.973813,0.999308,0
3.909046,0.02669,1.74067,0.052853,0.132808,0.94993,0.960624,0
3.935889,0.026843,1.72793,0.036852,0.137906,0.999401,1.009544,0
3.963941,0.028053,1.716131,-0.036038,0.097845,1.14172,1.146471,0
3.996932,0.032991,1.672558,0.139891,0.01651,0.989897,0.999869,0
4.030542,0.03361,1.68152,-0.164146,-0.385238,0.922636,1.013217,0
4.064106,0.033564,1.696512,-0.00938,-0.13581,0.944082,0.953846,0
4.093178,0.029072,1.716614,-0.039247,-0.323725,0.754973,0.822388,0
4.141415,0.048237,1.753289,-0.07257,0.01481,1.22482,1.227058,1
4.206523,0.065108,1.764266,-0.034557,0.169955,1.098098,1.111709,0
4.245642,0.039119,1.76211,0.014547,0.179667,0.910208,0.927885,0
4.285556,0.039914,1.75944,0.033942,0.152959,0.855376,0.869607,0
4.328378,0.042822,1.77649,0.069582,0.225797,0.90046,0.930942,0
4.365754,0.037376,1.793927,0.087765,0.283825,1.00135,1.044491,0
4.391751,0.025997,1.820313,0.148134,0.239151,1.024745,1.062657,0
4.423681,0.03193,1.837992,-0.02888,0.333354,1.043023,1.095379,0
4.458029,0.034348,1.850968,-0.020487,0.205403,0.955779,0.977816,0
4.491736,0.033707,1.87013,-0.042949,0.089833,0.991846,0.996832,0
4.517761,0.026024,1.890774,-0.098241,0.212444,0.966502,0.994439,0
4.549398,0.031638,1.910904,-0.072076,0.196419,0.968939,0.991271,0
4.58481,0.035412,1.930922,0.00897,0.155144,0.958216,0.970736,0
4.616069,0.031259,1.94452,0.016244,0.100273,0.981367,0.98661,0
4.656739,0.04067,1.949392,0.020365,0.023551,1.015728,1.016206,0
4.685019,0.028281,1.957842,0.015274,-0.020022,1.044241,1.044545,0
4.718665,0.033646,1.964876,0.039034,0.023308,1.076653,1.077612,0
4.750406,0.031741,1.967716,0.084856,0.046616,1.098098,1.102358,0
4.785364,0.034958,1.970472,0.107646,0.008255,1.079577,1.084962,0
4.81655,0.031186,1.980699,0.074673,-0.04728,1.04814,1.05186,0
4.853764,0.037214,1.987494,0.006061,0.003156,1.030594,1.030617,0
4.885908,0.032144,1.985543,0.034185,0.015782,1.020846,1.02154,0
4.920618,0.034709,1.987344,0.078552,0.017238,0.99209,0.995344,0
4.954622,0.034004,1.985492,0.086311,-0.006272,0.912888,0.916981,0
4.99023,0.035609,1.98558,0.064733,-0.056447,0.911183,0.915221,0
5.025371,0.035141,1.987596,0.073461,-0.068026,0.911426,0.916909,0
5.052293,0.026922,1.994292,0.119768,-0.052346,0.934334,0.943432,0
5.093582,0.041289,1.99904,0.148134,0.030835,0.984292,0.995854,0
5.12214,0.028558,2.001074,0.112737,0.019666,0.980149,0.986807,0
5.146327,0.024186,1.999785,0.138679,0.058999,0.990871,1.002267,0
5.196392,0.050066,1.996831,0.141346,0.070653,0.935796,0.949044,0
5.236379,0.039987,1.995872,0.182562,-0.000241,0.922393,0.940286,0
5.266513,0.030134,2.000896,0.170197,-0.001206,0.908989,0.924786,0
5.303665,0.037152,2.007588,0.232506,0.022094,0.982342,1.009724,0
5.342675,0.039009,2.014254,0.277843,-0.00796,1.017434,1.054719,0
5.381911,0.039236,2.017441,0.197836,0.06604,1.063493,1.083752,0
5.418382,0.036471,2.009426,0.09116,0.118483,1.132459,1.142284,0
5.458425,0.040043,1.992755,0.00994,0.200789,1.21093,1.227504,1
5.495811,0.037386,1.979573,0.019153,0.115569,1.159266,1.16517,0
5.529343,0.033532,1.980834,-0.046899,0.06604,1.083964,1.086986,0
5.562229,0.032886,1.986339,-0.110582,0.160729,1.055207,1.073091,0
5.591276,0.029047,1.989177,-0.083924,0.22604,0.981367,1.010554,0
5.621758,0.030481,1.98864,-0.042949,0.126009,0.901922,0.911694,0
5.648316,0.026559,1.993435,-0.048133,0.122125,0.870241,0.880086,0
5.675804,0.027487,2.001675,-0.065411,0.109257,0.846115,0.855644,0
5.705216,0.029412,2.018682,-0.089601,0.123824,0.935065,0.947474,0
5.741397,0.036181,2.030543,-0.029373,0.225554,0.976981,1.00311,0
5.770899,0.029502,2.039463,0.017941,0.15733,0.957241,0.97025,0
5.803358,0.032459,2.048121,0.002667,0.147132,0.891199,0.903267,0
5.832612,0.029253,2.054994,0.056975,0.07915,0.894124,0.899427,0
5.862862,0.03025,2.055732,0.076613,0.083278,0.88462,0.891828,0
5.894735,0.031873,2.050601,0.097221,0.042489,0.800544,0.807544,0
5.936321,0.041587,2.045493,0.145225,0.019181,0.791771,0.805208,0
5.966706,0.030385,2.043502,0.164621,0.041275,0.871947,0.888311,0
5.992134,0.025428,2.044654,0.148134,0.019181,0.839048,0.85224,0
6.024492,0.032358,2.048292,0.109586,0.07041,0.896073,0.905491,0
6.059697,0.035205,2.051879,0.066915,0.127709,1.047653,1.057527,0
6.093205,0.033509,2.045832,0.03467,0.192292,1.072754,1.090403,0
6.117845,0.02464,2.032856,0.100615,0.097603,1.148056,1.156582,0
6.147033,0.029188,2.02369,0.085341,0.015539,1.193383,1.196532,1
6.184826,0.037793,2.007953,0.097948,0.143248,1.258694,1.2706,0
6.217767,0.032941,1.988882,0.070552,0.030106,1.250409,1.252759,0
6.249732,0.031965,1.979994,-0.108361,-0.063442,1.263812,1.270034,0
6.277018,0.027286,1.981495,-0.127614,-0.053552,1.293299,1.300683,0
6.30415,0.027132,1.987831,-0.140696,0.096631,1.200938,1.213007,0
6.335749,0.0316,1.980997,-0.127614,0.176753,1.047896,1.070333,0
6.367601,0.031852,1.966728,-0.027892,0.147618,0.836611,0.849993,0
6.396283,0.028682,1.959356,0.004606,0.022823,0.799326,0.799665,0
6.423378,0.027095,1.95856,-0.007652,0.000486,0.772763,0.772801,0
6.460669,0.037291,1.955039,-0.088614,0.09736,0.799082,0.809854,0
6.491922,0.031253,1.95027,-0.074051,0.092747,0.862931,0.871054,0
6.518595,0.026674,1.944989,-0.017525,0.093475,0.917275,0.922192,0
6.545218,0.026623,1.943368,-0.012095,0.078908,0.934334,0.937738,0
6.579432,0.034213,1.942748,0.035155,0.09736,0.92751,0.933268,0
6.606418,0.026987,1.943182,0.034427,0.099545,0.881451,0.887722,0
6.640236,0.033818,1.946968,0.035397,0.015782,0.858788,0.859662,0
6.666849,0.026613,1.95178,0.003637,0.087405,0.845384,0.849899,0
6.701142,0.034292,1.950236,0.013819,0.092504,0.861468,0.866531,0
6.728089,0.026947,1.948292,0.084856,0.049044,0.87804,0.883493,0
6.762802,0.034713,1.944683,0.121465,0.027921,0.904603,0.913148,0
6.796538,0.033736,1.941435,0.126557,0.038847,0.998182,1.006923,0
6.82348,0.026942,1.940723,0.142558,0.018452,1.103216,1.112541,0
6.851171,0.02769,1.936568,0.059399,0.15733,1.197526,1.209277,1
6.878293,0.027122,1.919611,-0.046158,0.173597,1.219946,1.2331,0
6.912171,0.033878,1.900835,-0.055291,0.120425,1.292081,1.298858,0
6.938946,0.026775,1.880427,-0.137487,0.022337,1.298904,1.306351,0
6.974781,0.035835,1.866677,-0.193766,0.053414,1.203131,1.219805,0
7.005129,0.030348,1.859093,-0.185374,0.078179,1.104434,1.122609,0
7.031747,0.026618,1.855837,-0.136994,0.133536,1.013048,1.030953,0
7.058329,0.026582,1.857617,-0.073557,0.192049,0.960166,0.981943,0
7.092467,0.034138,1.856754,-0.011848,0.240122,0.855863,0.888989,0
7.119349,0.026882,1.858894,0.011395,0.131108,0.770326,0.781486,0
7.145957,0.026608,1.86941,0.049459,0.142034,0.724511,0.739956,0
7.179726,0.033769,1.880694,0.066915,0.135964,0.743275,0.758566,0
7.20648,0.026754,1.893802,0.05455,0.139606,0.784216,0.798412,0
7.240429,0.033949,1.903664,0.037337,0.105372,0.840267,0.847671,0
7.267139,0.02671,1.917667,0.026911,0.084977,0.907771,0.912137,0
7.293694,0.026555,1.93443,0.035155,0.120668,0.999888,1.007756,0
7.327444,0.033749,1.944462,0.036124,0.141305,1.000376,1.010952,0
7.357715,0.030271,1.95252,0.043155,0.071138,0.934821,0.938517,0
7.390465,0.03275,1.957107,0.027396,0.104158,0.899972,0.906394,0
7.41786,0.027395,1.958502,0.067885,0.085463,0.894855,0.901486,0
7.451789,0.033929,1.957004,0.103767,0.080607,0.914594,0.923985,0
7.479844,0.028055,1.951438,0.065703,0.044188,0.909233,0.912674,0
7.51112,0.031276,1.944301,0.028366,0.02088,0.971619,0.972258,0
7.544745,0.033625,1.940666,-0.037519,0.017238,1.112476,1.113242,0
7.571564,0.02682,1.933717,-0.09207,0.127466,1.227988,1.238015,1
7.599014,0.02745,1.922511,-0.072323,0.139606,1.307921,1.317337,0
7.626546,0.027532,1.905892,-0.146374,0.050744,1.332047,1.341025,0
7.660189,0.033643,1.896469,-0.202652,0.008983,1.335702,1.351018,0
7.686692,0.026502,1.886702,-0.108855,0.10343,1.163896,1.173542,0
7.713512,0.02682,1.864905,-0.003949,0.138877,1.005493,1.015046,0
7.747798,0.034286,1.846635,0.148377,0.125281,0.849284,0.871202,0
7.774522,0.026724,1.829276,0.154196,0.055842,0.806637,0.823139,0
7.808257,0.033735,1.820737,0.014789,0.006798,0.727679,0.727861,0
7.83504,0.026783,1.813911,-0.020241,0.023794,0.762284,0.762924,0
7.869158,0.034118,1.809142,0.022305,0.063126,0.863174,0.865767,0
7.89588,0.026722,1.81401,0.062793,0.026222,0.904846,0.907402,0
7.930098,0.034218,1.824728,-0.006665,0.044674,0.929947,0.931043,0
7.957589,0.027491,1.837574,-0.044677,0.126738,0.94725,0.956734,0
7.989905,0.032316,1.84747,0.012607,0.137663,0.988191,0.997813,0
8.023751,0.033846,1.856071,0.033942,0.123096,0.968695,0.977074,0
8.050411,0.02666,1.864421,0.034185,0.110713,0.886813,0.894351,0
8.084568,0.034157,1.868049,0.030306,0.085706,0.82662,0.831603,0
8.112433,0.027865,1.871583,0.069824,0.03739,0.817847,0.821673,0
8.139606,0.027173,1.877841,0.102555,0.018695,0.846359,0.852755,0
8.167026,0.02742,1.885237,0.13577,0.060941,0.932628,0.944427,0
8.197173,0.030146,1.893618,0.122193,0.08692,0.991846,1.003118,0
8.223939,0.026766,1.907789,0.144983,0.147618,1.108821,1.12796,0
8.251419,0.02748,1.92406,0.050186,0.278969,1.265518,1.296872,1
8.278703,0.027284,1.934036,-0.039741,0.351321,1.331072,1.377229,0
8.305336,0.026633,1.930526,-0.079728,0.303734,1.217753,1.25759,0
8.338988,0.033652,1.928007,-0.130823,0.059727,1.1444,1.153401,0
8.366187,0.027199,1.932774,-0.178462,0.017481,1.122955,1.137182,0
8.398245,0.032058,1.942039,-0.188829,0.070167,1.166821,1.184082,0
8.425293,0.027048,1.947459,-0.172291,0.303248,1.169989,1.220867,0
8.452029,0.026736,1.946399,-0.026658,0.289894,1.023527,1.064122,0
8.479249,0.02722,1.946285,0.021335,0.135721,0.857569,0.868505,0
8.510818,0.031569,1.955313,-0.017032,0.023065,0.709889,0.710468,0
8.53742,0.026602,1.968358,-0.065905,0.073081,0.659444,0.666746,0
8.563943,0.026523,1.977782,-0.052329,0.193991,0.722317,0.749742,0
8.597757,0.033814,1.987054,0.021578,0.163157,0.824914,0.841171,0
8.625049,0.027292,2.00312,0.06546,0.164613,0.900704,0.917959,0
8.658946,0.033897,2.016042,0.0337,0.195448,0.908989,0.930375,0
8.685566,0.02662,2.030561,0.01285,0.179667,0.906552,0.924274,0
8.719369,0.033803,2.04125,-0.011108,0.184765,0.892662,0.91165,0
8.7465,0.027131,2.046691,0.024729,0.185979,0.861468,0.881662,0
8.773294,0.026794,2.049204,0.089463,0.154173,0.813216,0.832523,0
8.799903,0.026609,2.050978,0.129951,0.072109,0.785922,0.799851,0
8.826593,0.02669,2.052664,0.120253,0.051958,0.789334,0.80013,0
8.853404,0.026811,2.055259,0.134557,0.047345,0.850258,0.862141,0
8.887294,0.03389,2.060385,0.148377,0.0539,0.9163,0.929799,0
8.914084,0.02679,2.062811,0.091887,0.125038,1.095905,1.106836,0
8.947665,0.033581,2.059167,-0.021475,0.196176,1.198257,1.2144,1
8.974992,0.027327,2.038913,0.002909,0.216328,1.371038,1.388003,0
9.009079,0.034086,2.017032,0.030306,0.149803,1.263081,1.272294,0
9.035924,0.026845,2.002632,-0.016291,-0.020987,1.217022,1.217312,0
9.069645,0.033721,2.007345,-0.164639,-0.160415,1.291593,1.311889,0
9.096417,0.026772,2.01764,-0.166614,0.05827,1.302316,1.314223,0
9.124294,0.027877,2.013233,-0.114038,0.199333,1.136846,1.159809,0
9.15541,0.031116,1.996516,-0.046652,0.183794,0.997939,1.015794,0
9.182209,0.026799,1.977404,0.045337,-0.013026,0.8003,0.801689,0
9.21621,0.034001,1.970038,0.025457,-0.014474,0.74888,0.749453,0
9.243067,0.026857,1.963421,-0.01407,-0.034495,0.791527,0.792404,0
9.277043,0.033976,1.957881,-0.078,0.009469,0.854157,0.857764,0
9.303855,0.026812,1.946099,-0.053563,0.047587,0.897292,0.900148,0
9.338225,0.034369,1.941781,-0.001481,0.028164,0.936771,0.937195,0
9.365033,0.026808,1.949753,0.014304,0.008255,0.96772,0.967861,0
9.401822,0.036789,1.959454,-0.002222,0.134021,0.981611,0.99072,0
9.43572,0.033898,1.964157,0.002909,0.140334,0.826863,0.838693,0
9.462741,0.027021,1.971968,0.009213,0.089348,0.847578,0.852324,0
9.496913,0.034172,1.978201,0.024972,0.065797,0.817116,0.820141,0
9.531419,0.034506,1.98201,0.057945,0.042731,0.83125,0.834362,0
9.558115,0.026696,1.987912,0.093099,0.027436,0.922636,0.927727,0
9.591919,0.033804,1.993375,0.118798,0.046131,0.939939,0.948539,0
9.61893,0.027011,1.997085,0.124375,0.076237,1.097854,1.107504,0
9.653322,0.034392,2.002378,0.051156,0.081578,1.216535,1.220339,1
9.680247,0.026925,2.005253,-0.021722,0.130865,1.305971,1.312691,0
9.71396,0.033714,2.000086,-0.00938,0.199575,1.292081,1.307437,0
9.740778,0.026817,1.991814,-0.049614,0.098331,1.258694,1.263504,0
9.774773,0.033996,1.993698,-0.17007,-0.027259,1.237005,1.248939,0
9.80253,0.027756,2.007091,-0.251279,0.037633,1.175837,1.202976,0
9.832862,0.030333,2.014868,-0.273,0.193991,1.07909,1.129866,0
9.859743,0.026881,2.011061,-0.186608,0.206131,0.961628,1.00102,0
9.886863,0.02712,2.000812,-0.071829,0.132079,0.769351,0.783904,0
9.920893,0.03403,2.002032,-0.033323,0.035691,0.70867,0.710351,0
9.947537,0.026643,2.011912,-0.025671,0.070167,0.726217,0.73005,0
9.981413,0.033876,2.016796,-0.020981,0.156601,0.782998,0.79878,0
10.008322,0.026909,2.022375,0.019396,0.117997,0.915325,0.923103,0
10.042433,0.034111,2.032991,0.02279,0.03302,0.951149,0.951995,0
10.069053,0.02662,2.048623,-0.084171,0.06264,0.986972,0.992534,0
10.095935,0.026882,2.060811,-0.079481,0.143248,1.067636,1.080131,0
10.122825,0.02689,2.065174,-0.02493,0.188407,1.048628,1.06571,0
10.15014,0.027315,2.062704,0.04364,0.117754,0.887057,0.895902,0
10.184172,0.034033,2.06117,0.028851,0.037633,0.789821,0.791244,0
10.210967,0.026794,2.060997,0.007516,0.021851,0.731822,0.732186,0
10.245019,0.034053,2.061173,-0.001234,0.019423,0.814191,0.814424,0
10.272328,0.027309,2.068861,0.010668,0.027193,0.93604,0.936495,0
10.306275,0.033947,2.068782,0.050671,0.228711,1.082989,1.108035,0
10.33287,0.026595,2.050397,0.028124,0.211958,1.008905,1.031313,0
10.366713,0.033843,2.03848,0.036852,0.028407,1.017922,1.018985,0
10.39376,0.027047,2.032624,0.004606,0.063612,1.047165,1.049106,0
10.43338,0.03962,2.026572,0.072006,0.13912,1.149274,1.159901,0
10.460143,0.026762,2.022985,0.048004,0.021851,1.1444,1.145615,0
10.48697,0.026827,2.026964,-0.105892,0.003399,1.198501,1.203175,1
10.521076,0.034106,2.029594,-0.175994,0.18428,1.212636,1.23912,0
10.547756,0.02668,2.018539,-0.153285,0.227739,1.125636,1.158627,0
10.574198,0.026442,1.996684,-0.05776,0.142762,0.964796,0.97701,0
10.60798,0.033782,1.980472,-0.028139,0.036904,0.831006,0.832301,0
10.634815,0.026836,1.968709,-0.032089,0.007284,0.785191,0.78588,0
10.661688,0.026873,1.961408,-0.026905,0.000243,0.821746,0.822186,0
10.688308,0.02662,1.959914,-0.071336,0.000971,0.903628,0.90644,0
10.714857,0.026549,1.962451,-0.07726,0.08692,0.970157,0.977102,0
10.741651,0.026794,1.964684,-0.08738,0.137421,1.002081,1.015227,0
10.775751,0.034099,1.966909,-0.101696,0.112656,0.943107,0.95524,0
10.802401,0.02665,1.970395,-0.100215,0.116298,0.955048,0.967308,0
10.836042,0.033641,1.971497,-0.127614,0.134993,0.896073,0.915126,0
10.863027,0.026985,1.970096,-0.102684,0.107557,0.86025,0.873008,0
10.890081,0.027055,1.966029,-0.057019,0.095417,0.856838,0.864018,0
10.920538,0.030456,1.966884,-0.061956,0.090804,0.88267,0.889489,0
10.947359,0.026822,1.969845,-0.015797,0.094689,0.891443,0.896597,0
10.973925,0.026566,1.975193,-0.010614,0.09299,0.926048,0.930766,0
11.000895,0.026969,1.983294,0.02279,0.097117,0.940913,0.946187,0
11.027943,0.027048,1.992063,0.041458,0.121153,0.946762,0.955383,0
11.054579,0.026636,2.002635,0.042186,0.06604,0.993308,0.996395,0
11.081325,0.026746,2.015303,0.022305,0.106829,1.059594,1.065199,0
11.115278,0.033953,2.023085,0.038064,0.090319,1.030838,1.035487,0
11.142255,0.026977,2.030012,0.026427,0.102944,1.121493,1.126518,0
11.174305,0.03205,2.033714,0.025942,0.081578,1.098342,1.101673,0
11.201226,0.026921,2.033221,-0.023449,0.116298,1.125636,1.131871,0
11.227985,0.026759,2.030599,-0.101943,0.081578,1.186804,1.193964,1
11.254835,0.02685,2.034809,-0.142918,0.013111,1.219946,1.228359,0
11.289107,0.034272,2.04187,-0.261152,0.081336,1.070073,1.104478,0
11.315993,0.026886,2.042795,-0.200924,0.204189,0.99014,1.030748,0
11.349685,0.033692,2.037352,-0.078494,0.193506,0.923611,0.946923,0
11.376688,0.027003,2.034677,-0.014563,0.084977,0.815653,0.820197,0
11.410764,0.034075,2.035868,-0.092317,0.01651,0.862931,0.868012,0
11.437863,0.027099,2.039833,-0.165133,0.112656,0.904359,0.926189,0
11.468548,0.030685,2.043701,-0.1365,0.126252,0.990871,1.008166,0
11.495419,0.026871,2.050912,-0.101696,0.118726,0.992334,1.004571,0
11.522393,0.026974,2.059716,-0.115766,0.159515,0.996233,1.015542,0
11.54943,0.027037,2.06459,-0.144152,0.172383,0.986729,1.011993,0
11.575985,0.026555,2.064562,-0.160196,0.165099,0.929216,0.957269,0
11.602519,0.026534,2.059886,-0.148595,0.155387,0.894367,0.919847,0
11.629323,0.026804,2.051529,-0.078741,0.103672,0.905578,0.914887,0
11.663374,0.034051,2.047126,-0.061956,0.086191,0.890225,0.896531,0
11.690054,0.02668,2.049698,-0.028633,0.083278,0.956023,0.96007,0
11.723557,0.033504,2.051264,-0.053563,0.134021,1.002813,1.013146,0
11.7503,0.026743,2.052377,-0.070842,0.168984,1.020846,1.03716,0
11.777186,0.026886,2.051317,-0.096266,0.153445,1.010123,1.026237,0
11.811344,0.034158,2.046459,-0.112804,0.148589,0.988678,1.006125,0
11.837832,0.026488,2.03818,-0.109101,0.112656,0.979905,0.992375,0
11.871682,0.03385,2.031145,-0.079234,0.103915,0.975518,0.984232,0
11.898409,0.026727,2.025897,-0.051095,0.111199,0.974787,0.982439,0
11.925515,0.027106,2.022209,-0.059981,0.113141,0.983804,0.992103,0
11.959284,0.033769,2.017988,-0.090095,0.137663,0.980392,0.994101,0
11.985912,0.026628,2.01105,-0.089848,0.091047,0.969182,0.977587,0
12.019893,0.033981,2.007141,-0.114285,0.070167,0.95188,0.96128,0
12.047433,0.02754,2.002918,-0.104905,0.101973,0.970401,0.981367,0
12.077808,0.030375,1.998016,-0.066399,0.100516,0.997207,1.004458,0
12.104428,0.02662,1.993489,-0.071336,0.081336,0.970888,0.976897,0
12.131324,0.026896,1.988758,-0.075532,0.081821,0.952367,0.958855,0
12.158385,0.027061,1.984837,-0.044677,0.044431,0.966502,0.968553,0
12.185982,0.027597,1.982267,-0.063437,0.032777,0.96967,0.972295,0
12.219949,0.033967,1.979994,-0.066399,0.064583,0.982829,0.987185,0
12.246848,0.026899,1.974844,-0.049861,0.056085,1.00793,1.01072,0
12.281148,0.0343,1.970364,-0.056032,0.025979,0.983073,0.985011,0
12.30808,0.026932,1.966626,-0.045911,0.019666,0.96504,0.966331,0
12.341915,0.033835,1.965983,-0.0195,0.026464,0.982342,0.982892,0
12.368752,0.026837,1.965765,-0.017772,0.062398,0.988678,0.990805,0
12.402702,0.03395,1.965297,-0.023943,0.076722,0.988191,0.991454,0
12.430098,0.027396,1.964133,-0.012342,0.064097,0.993065,0.995208,0
12.465815,0.035717,1.963661,-0.008886,0.040546,0.977224,0.978106,0
12.496104,0.030289,1.9653,-0.01407,0.025493,0.9743,0.974735,0
12.522979,0.026876,1.968221,-0.019994,0.109257,0.990384,0.996593,0
12.55039,0.027411,1.969636,-0.025671,0.086677,1.012317,1.016345,0
12.578223,0.027833,1.971161,-0.016538,0.057785,1.014266,1.016046,0
12.611928,0.033705,1.972847,-0.016785,0.052929,0.967233,0.968825,0
12.638912,0.026984,1.973752,-0.039494,0.040061,0.930678,0.932377,0
12.67264,0.033728,1.973444,-0.040234,0.030835,0.939695,0.941061,0
12.699522,0.026882,1.972597,-0.028139,0.051472,0.966989,0.968767,0
12.733038,0.033516,1.972001,-0.001234,0.073323,1.014023,1.016671,0
12.759761,0.026723,1.971211,0.003637,0.082307,1.026207,1.029509,0
12.786655,0.026894,1.971444,-0.001481,0.065797,1.019871,1.021993,0
12.820539,0.033884,1.972771,-0.021968,0.03909,0.982098,0.983121,0
12.847259,0.02672,1.97459,-0.048627,0.061912,0.966745,0.969946,0
12.881273,0.034014,1.975071,-0.027646,0.06264,0.979174,0.981565,0
12.908159,0.026886,1.974826,-0.023449,0.051715,0.978199,0.979846,0
12.942297,0.034137,1.974699,-0.039987,0.056813,0.966014,0.968509,0
12.969081,0.026784,1.976771,-0.018019,0.04953,0.98746,0.988865,0
13.002898,0.033817,1.977476,-0.020487,0.067496,0.993552,0.996053,0
13.029841,0.026943,1.978367,-0.036038,0.063369,0.975762,0.978482,0
13.064064,0.034223,1.979421,-0.012835,0.050986,1.009636,1.011004,0
13.090828,0.026764,1.978352,-0.043196,0.082064,0.996964,1.001268,0
13.124497,0.033669,1.977626,-0.040728,0.053414,0.978199,0.980503,0
13.151443,0.026946,1.977434,-0.026165,0.050258,0.987216,0.988841,0
13.179436,0.027993,1.976542,-0.012835,0.063612,0.990384,0.992508,0
13.209968,0.030532,1.975091,-0.021228,0.073566,0.991359,0.994311,0
13.237079,0.027111,1.974535,-0.007405,0.056085,0.987703,0.989322,0
13.271352,0.034272,1.974822,-0.009873,0.0539,0.978687,0.980219,0
13.298414,0.027063,1.975032,-0.023943,0.05827,0.970157,0.9722,0
13.3256,0.027185,1.974123,-0.027892,0.057056,0.971132,0.973206,0
13.352396,0.026797,1.972642,-0.011848,0.034962,0.974056,0.974756,0
13.386252,0.033855,1.971556,-0.030854,0.018938,0.970645,0.971319,0
13.41443,0.028178,1.969881,-0.052329,0.040789,0.993796,0.996008,0
13.447191,0.032762,1.967978,-0.025918,0.073081,1.016703,1.019656,0
13.483599,0.036407,1.966691,-0.034063,0.072352,0.994771,0.99798,0
13.517161,0.033562,1.964806,-0.04912,0.100516,0.976006,0.982397,0
13.552502,0.035341,1.962466,-0.000247,0.100031,0.977224,0.982331,0
13.583812,0.03131,1.961064,0.01188,0.075023,0.954317,0.957335,0
13.612154,0.028342,1.961175,-0.006665,0.047587,0.932872,0.934108,0
13.640685,0.028531,1.962162,-0.024684,0.051958,0.945544,0.947292,0
13.673131,0.032446,1.96378,-0.019747,0.050015,0.983317,0.984786,0
13.702149,0.029018,1.965603,-0.023449,0.071381,1.015485,1.01826,0
13.726601,0.024451,1.965537,-0.040234,0.090804,1.015972,1.020815,0
13.757877,0.031276,1.965035,-0.055291,0.07648,1.006955,1.011368,0
13.786502,0.028625,1.964416,-0.055785,0.069196,1.004518,1.008443,0
13.822995,0.036492,1.963556,-0.03826,0.07648,0.999401,1.003053,0
13.855123,0.032128,1.963551,-0.016291,0.076237,0.997939,1.000979,0
13.883154,0.028031,1.964423,-0.013823,0.07648,0.994039,0.997073,0
13.915534,0.03238,1.965391,-0.019006,0.077208,0.990871,0.994057,0
13.94043,0.024895,1.966427,-0.034063,0.078665,0.977712,0.981463,0
13.968413,0.027983,1.967449,-0.044677,0.069196,0.976981,0.980446,0
13.996061,0.027648,1.968827,-0.05381,0.065311,0.971619,0.975297,0
14.028032,0.03197,1.96984,-0.034557,0.081336,0.988922,0.992863,0
14.056584,0.028552,1.970735,-0.020487,0.068225,1.060081,1.062472,0
14.091971,0.035388,1.971077,-0.045911,0.080607,0.98551,0.989866,0
14.123629,0.031657,1.970769,-0.02888,0.069439,0.98746,0.990319,0
14.152263,0.028635,1.971301,-0.029127,0.063126,0.977955,0.980423,0
14.184758,0.032494,1.971865,-0.024684,0.072838,0.988191,0.991179,0
14.213835,0.029077,1.972087,-0.023696,0.069681,0.999157,1.001864,0
14.24491,0.031076,1.972471,-0.039,0.061669,0.96967,0.972411,0
14.27352,0.02861,1.972514,-0.035297,0.050744,0.955048,0.957046,0
14.30136,0.02784,1.972133,-0.038753,0.0539,0.999644,1.001846,0
14.333575,0.032216,1.971473,-0.022709,0.084249,1.01646,1.020198,0
14.363572,0.029996,1.970377,-0.024684,0.071624,1.004031,1.006885,0
14.387966,0.024395,1.969464,-0.029373,0.064583,0.991846,0.99438,0
14.421172,0.033206,1.969449,-0.022215,0.052686,0.990871,0.99252,0
14.446018,0.024847,1.971335,-0.035791,0.028407,0.969182,0.970259,0
14.474468,0.02845,1.971285,-0.037025,0.061912,0.97235,0.975023,0
14.508376,0.033908,1.972241,-0.04369,0.053172,0.971376,0.97381,0
14.545421,0.037045,1.972045,-0.041715,0.059484,0.999644,1.002281,0
14.57739,0.03197,1.971289,-0.033323,0.051715,1.058375,1.060162,0
14.606158,0.028768,1.971091,-0.019006,0.055114,0.998182,0.999883,0
14.637285,0.031126,1.971605,-0.030114,0.001942,0.99209,0.992549,0
14.664831,0.027546,1.97245,-0.02888,0.060213,0.976737,0.979017,0
14.700655,0.035824,1.974036,-0.027892,0.070895,1.004518,1.007403,0
14.73539,0.034735,1.974741,-0.029373,0.070895,0.938233,0.941366,0
14.761904,0.026514,1.975157,-0.031101,0.052929,0.99014,0.992042,0
14.795676,0.033772,1.97539,-0.034804,0.055357,0.991115,0.99327,0
14.822548,0.026872,1.97507,-0.038013,0.051958,0.97893,0.981045,0
14.85633,0.033782,1.974599,-0.033076,0.056571,0.988191,0.990361,0
14.882987,0.026657,1.974326,-0.030114,0.056328,0.985023,0.987091,0
14.909927,0.02694,1.97431,-0.034063,0.056328,0.977955,0.980168,0
14.943776,0.033849,1.974768,-0.031595,0.058999,0.988678,0.990941,0
14.97095,0.027174,1.975633,-0.02493,0.062155,0.999888,1.002128,0
15.004628,0.033678,1.976037,-0.037519,0.058513,0.980392,0.982853,0
15.031383,0.026755,1.977033,-0.027892,0.051715,0.981855,0.983611,0
15.065257,0.033875,1.977889,-0.039,0.058513,0.99014,0.992634,0
15.091993,0.026736,1.97891,-0.023943,0.050986,0.992821,0.994418,0
15.125967,0.033973,1.979824,-0.027152,0.049044,0.988434,0.990023,0
15.152627,0.026661,1.980432,-0.031348,0.058756,0.984535,0.986785,0
15.179533,0.026906,1.980664,-0.042456,0.043703,0.974056,0.97596,0
15.21368,0.034147,1.981629,-0.04369,0.046859,1.054233,1.056178,0
15.247829,0.034149,1.982829,-0.006665,0.081336,1.02377,1.027018,0
15.274855,0.027026,1.983007,-0.017032,0.075266,0.946031,0.949173,0
15.308809,0.033953,1.984352,-0.021475,0.047345,0.987703,0.989071,0
15.335904,0.027095,1.986479,-0.037519,0.056085,0.976493,0.978822,0
15.369934,0.034031,1.987835,-0.027152,0.080607,1.001107,1.004713,0
15.396743,0.026808,1.989074,-0.018266,0.060213,1.001838,1.003812,0
15.430918,0.034175,1.989871,-0.047639,0.09129,0.997939,1.003237,0
15.457767,0.026849,1.988489,-0.030114,0.051715,1.014266,1.01603,0
15.493225,0.035458,1.98812,-0.025671,0.032777,0.984292,0.985172,0
15.523823,0.030598,1.990016,-0.001234,0.028164,0.984779,0.985182,0
15.550663,0.02684,1.992334,-0.020487,0.042003,0.96772,0.968848,0
15.577651,0.026987,1.996468,0.003152,0.029135,0.978687,0.979125,0
15.611742,0.034091,1.999782,-0.013823,0.040061,0.966014,0.966943,0
15.638618,0.026875,2.001979,-0.032089,0.075751,0.992577,0.995981,0
15.672535,0.033917,2.003062,-0.00469,0.003885,0.988678,0.988697,0
15.699486,0.026951,2.00553,-0.02493,0.072838,0.995989,0.99896,0
15.733586,0.0341,2.007536,-0.007899,0.079636,0.97893,0.982196,0
