timestamp,dt,heading_rad,accel_x,accel_y,accel_z,accel_norm,step_event
0.008714,0.008714,2.112226,0.008001,0.11654,1.00793,1.014677,0
0.155866,0.147152,2.112856,-0.004443,0.116783,0.968208,0.975235,0
0.190166,0.034299,2.113281,-0.003949,0.115812,0.963334,0.970278,0
0.225634,0.035469,2.113923,-0.00469,0.11654,0.96114,0.968191,0
0.265207,0.039573,2.114354,-0.005184,0.116298,0.960653,0.967681,0
0.292875,0.027668,2.114695,-0.005184,0.116783,0.960653,0.967739,0
0.32173,0.028855,2.114823,-0.004443,0.11654,0.96114,0.96819,0
0.353584,0.031854,2.114739,-0.006418,0.116298,0.96114,0.968172,0
0.388536,0.034952,2.114402,-0.005184,0.115812,0.960897,0.967865,0
0.427702,0.039166,2.113988,-0.006665,0.11654,0.962846,0.969896,0
0.461106,0.033403,2.113649,-0.00543,0.11654,0.962359,0.969405,0
0.495744,0.034638,2.113405,-0.006665,0.115326,0.96309,0.969993,0
0.526645,0.030901,2.113245,-0.005677,0.115569,0.96309,0.970016,0
0.557462,0.030817,2.113178,-0.007158,0.11654,0.964308,0.971351,0
0.594478,0.037016,2.113041,-0.006418,0.116783,0.966258,0.973311,0
0.632197,0.037719,2.112481,-0.005677,0.116055,0.966014,0.972977,0
0.66,0.027803,2.111691,-0.00543,0.115812,0.966014,0.972947,0
0.693931,0.033931,2.111088,-0.004937,0.115812,0.968208,0.975122,0
0.728891,0.03496,2.110893,-0.005924,0.116298,0.968208,0.975185,0
0.762643,0.033752,2.110995,-0.006418,0.116055,0.968695,0.975643,0
0.803773,0.041131,2.111122,-0.005924,0.11654,0.969913,0.976908,0
0.835521,0.031748,2.111142,-0.006171,0.11654,0.970888,0.977877,0
0.866658,0.031137,2.111278,-0.005924,0.115569,0.96967,0.97655,0
0.912441,0.045782,2.111393,-0.00543,0.117269,0.970888,0.97796,0
0.952132,0.039691,2.111454,-0.006171,0.116298,0.971619,0.978574,0
0.992853,0.040721,2.111404,-0.005677,0.115084,0.971376,0.978186,0
1.056515,0.063663,2.111387,-0.006911,0.116055,0.971863,0.978792,0
1.115749,0.059233,2.111612,-0.006171,0.117026,0.972107,0.979145,0
1.159742,0.043993,2.11202,-0.005184,0.116055,0.973569,0.980475,0
1.192034,0.032292,2.112546,-0.005677,0.115812,0.971376,0.978272,0
1.228744,0.03671,2.11298,-0.005184,0.116055,0.971619,0.97854,0
1.267012,0.038268,2.113464,-0.00543,0.115812,0.974544,0.981416,0
1.309919,0.042907,2.114153,-0.005677,0.115326,0.974787,0.981602,0
1.351722,0.041803,2.114749,-0.00543,0.115084,0.975275,0.982056,0
1.392334,0.040612,2.114914,-0.005924,0.116055,0.975031,0.981931,0
1.423777,0.031442,2.11501,-0.005924,0.115326,0.976737,0.98354,0
1.461643,0.037866,2.115272,-0.005924,0.116055,0.975762,0.982657,0
1.502168,0.040525,2.115783,-0.006171,0.116783,0.975518,0.982503,0
1.547846,0.045678,2.116164,-0.006911,0.11654,0.976493,0.983447,0
1.602248,0.054402,2.116416,-0.005924,0.115812,0.977224,0.984081,0
1.639854,0.037606,2.116904,-0.006418,0.117512,0.977712,0.984769,0
1.677471,0.037616,2.117671,-0.007158,0.117026,0.977468,0.984475,0
1.711736,0.034265,2.118465,-0.005924,0.116055,0.978687,0.985561,0
1.746788,0.035052,2.119275,-0.005924,0.116298,0.97893,0.985832,0
1.787765,0.040977,2.120688,-0.004443,0.11654,0.977224,0.984159,0
1.819786,0.032021,2.122477,-0.005184,0.116298,0.979174,0.98607,0
1.856862,0.037077,2.123938,-0.005677,0.115569,0.979174,0.985987,0
1.886827,0.029965,2.124902,-0.005677,0.115569,0.981124,0.987923,0
1.922455,0.035628,2.12551,-0.004937,0.116298,0.981367,0.988247,0
1.954448,0.031993,2.126087,-0.005924,0.116298,0.980636,0.987526,0
1.985053,0.030605,2.126363,-0.008639,0.114598,0.97893,0.985653,0
2.015694,0.030641,2.126478,-0.007405,0.115326,0.98088,0.987664,0
2.058576,0.042882,2.126351,-0.005184,0.115326,0.98088,0.98765,0
2.089007,0.030432,2.126017,-0.00543,0.115812,0.979174,0.986014,0
2.120526,0.031519,2.125463,-0.004443,0.114113,0.982098,0.988716,0
2.159745,0.039219,2.124672,-0.005924,0.116298,0.982098,0.988978,0
2.189851,0.030106,2.124,-0.006171,0.116298,0.984292,0.991157,0
2.226465,0.036614,2.123477,-0.005677,0.115812,0.982586,0.989403,0
2.258902,0.032437,2.123076,-0.005677,0.115569,0.980636,0.987439,0
2.295739,0.036837,2.123018,-0.006171,0.116298,0.982586,0.989463,0
2.327727,0.031988,2.12315,-0.00543,0.116055,0.982098,0.988947,0
2.356916,0.029189,2.123147,-0.005677,0.117026,0.983561,0.990514,0
2.392482,0.035566,2.123276,-0.00543,0.114113,0.983073,0.989689,0
2.431748,0.039266,2.123555,-0.007158,0.116055,0.983561,0.99041,0
2.475716,0.043968,2.123862,-0.005184,0.116298,0.983317,0.990184,0
2.510417,0.0347,2.123811,-0.004937,0.115326,0.982586,0.989343,0
2.544443,0.034027,2.123597,-0.00543,0.115326,0.982098,0.988861,0
2.580308,0.035865,2.123222,-0.00543,0.116298,0.984535,0.991395,0
2.617874,0.037566,2.12274,-0.005924,0.115812,0.981367,0.988195,0
2.673908,0.056034,2.122423,-0.005677,0.115569,0.98088,0.987681,0
2.710616,0.036707,2.122046,-0.006171,0.116055,0.986241,0.993065,0
2.747759,0.037143,2.12154,-0.00543,0.116055,0.983561,0.990399,0
2.780938,0.03318,2.121208,-0.006171,0.115326,0.984292,0.991044,0
2.809733,0.028795,2.121474,-0.005677,0.115812,0.984535,0.99134,0
2.850784,0.041051,2.121848,-0.00543,0.115569,0.984048,0.990826,0
2.881859,0.031075,2.12218,-0.004443,0.115326,0.984292,0.991035,0
2.915759,0.0339,2.12255,-0.006171,0.116055,0.983804,0.990645,0
2.949669,0.03391,2.122806,-0.006171,0.116298,0.98551,0.992368,0
2.983967,0.034298,2.122902,-0.005677,0.115569,0.985266,0.992037,0
3.021195,0.037228,2.122944,-0.00543,0.116055,0.983804,0.990641,0
3.05196,0.030765,2.122852,-0.006665,0.115812,0.984292,0.991104,0
3.089425,0.037465,2.12264,-0.00543,0.117026,0.984048,0.990997,0
3.120418,0.030993,2.1225,-0.00543,0.116298,0.985266,0.992121,0
3.159752,0.039333,2.12253,-0.005184,0.117026,0.986241,0.993173,0
3.195745,0.035993,2.122942,-0.006665,0.115326,0.986241,0.992984,0
3.225688,0.029943,2.123618,-0.004443,0.11654,0.984779,0.991661,0
3.259725,0.034037,2.124319,-0.004443,0.115812,0.986241,0.993028,0
3.294069,0.034344,2.124828,-0.006665,0.11654,0.985997,0.992883,0
3.325061,0.030992,2.125043,-0.004937,0.115812,0.985997,0.992788,0
3.355783,0.030723,2.125105,-0.00543,0.117512,0.986485,0.993474,0
3.388125,0.032341,2.124968,-0.006171,0.115569,0.986485,0.993251,0
3.420445,0.03232,2.124729,-0.006665,0.11654,0.984535,0.991431,0
3.455232,0.034787,2.124334,-0.006171,0.115326,0.985266,0.992012,0
3.488379,0.033147,2.123795,-0.005677,0.116298,0.985754,0.992607,0
3.523525,0.035146,2.123158,-0.006665,0.115569,0.98551,0.992286,0
3.556007,0.032482,2.122415,-0.006171,0.115569,0.985754,0.992524,0
3.595731,0.039724,2.121774,-0.00543,0.116783,0.98551,0.99242,0
3.627301,0.03157,2.121736,-0.006911,0.114355,0.985266,0.991905,0
3.664288,0.036987,2.121706,-0.00543,0.115326,0.984048,0.990798,0
3.698721,0.034433,2.121448,-0.00543,0.116055,0.987947,0.994755,0
3.730333,0.031612,2.120975,-0.005924,0.117269,0.98551,0.99248,0
3.765699,0.035366,2.120505,-0.004937,0.115812,0.987216,0.993998,0
3.80376,0.038061,2.120235,-0.006171,0.115326,0.986729,0.993464,0
3.836415,0.032655,2.120193,-0.005924,0.116783,0.988191,0.995085,0
3.879911,0.043496,2.120046,-0.006418,0.115812,0.986241,0.993038,0
3.912082,0.032171,2.119643,-0.005677,0.116298,0.986485,0.993333,0
3.942736,0.030654,2.119142,-0.005184,0.114841,0.986729,0.993403,0
3.979637,0.036901,2.118838,-0.004937,0.116055,0.985266,0.99209,0
4.013302,0.033665,2.118709,-0.007158,0.115569,0.986485,0.993257,0
4.053837,0.040534,2.118658,-0.005924,0.114841,0.986241,0.992923,0
4.096459,0.042622,2.118551,-0.005184,0.115812,0.988678,0.995451,0
4.131993,0.035534,2.118532,-0.006665,0.114841,0.986972,0.993653,0
4.169693,0.0377,2.119163,-0.004937,0.115812,0.988434,0.995208,0
4.209755,0.040062,2.11952,-0.006171,0.115326,0.986972,0.993706,0
4.255738,0.045982,2.119662,-0.005677,0.115812,0.986972,0.99376,0
4.293241,0.037503,2.119924,-0.006418,0.115569,0.98746,0.99422,0
4.330785,0.037544,2.119807,-0.004937,0.116298,0.987947,0.994781,0
4.364958,0.034173,2.119639,-0.00543,0.116298,0.987216,0.994057,0
4.394562,0.029604,2.119545,-0.005677,0.116298,0.986729,0.993575,0
4.419965,0.025402,2.119507,-0.00469,0.115812,0.987947,0.994723,0
4.455765,0.035801,2.11948,-0.006665,0.115326,0.986485,0.993226,0
4.492429,0.036664,2.119521,-0.00469,0.115569,0.986241,0.993,0
4.525558,0.033129,2.119631,-0.005677,0.115326,0.986241,0.992977,0
4.559762,0.034204,2.1198,-0.004937,0.115812,0.986485,0.993272,0
4.596192,0.03643,2.120147,-0.006171,0.11654,0.987947,0.994816,0
4.632509,0.036317,2.120637,-0.00543,0.115569,0.987703,0.994456,0
4.663781,0.031271,2.120905,-0.004937,0.116298,0.987216,0.994055,0
4.705091,0.041311,2.120909,-0.00543,0.114355,0.985997,0.992622,0
4.739031,0.033939,2.120777,-0.006418,0.115326,0.98746,0.994192,0
4.774478,0.035447,2.1208,-0.00543,0.116783,0.98746,0.994356,0
4.808393,0.033916,2.12105,-0.007158,0.114841,0.987703,0.994383,0
4.839716,0.031322,2.121706,-0.005924,0.115569,0.985997,0.992765,0
4.873964,0.034249,2.122207,-0.004937,0.116298,0.989897,0.996717,0
4.903872,0.029908,2.122603,-0.00543,0.117026,0.986972,0.993901,0
4.936215,0.032343,2.123186,-0.007405,0.11654,0.988922,0.995793,0
4.967734,0.031519,2.123854,-0.005924,0.115326,0.988191,0.994915,0
5.000587,0.032853,2.124671,-0.006911,0.116783,0.987703,0.994607,0
5.03573,0.035143,2.125769,-0.007158,0.114598,0.98746,0.994113,0
5.063744,0.028015,2.126952,-0.005924,0.116298,0.986241,0.993092,0
5.099743,0.035999,2.128134,-0.005184,0.115326,0.987703,0.994427,0
5.125372,0.025629,2.129425,-0.006171,0.116298,0.986972,0.99382,0
5.155753,0.030381,2.130748,-0.00543,0.11654,0.985997,0.992876,0
5.186829,0.031076,2.131953,-0.006665,0.115084,0.986241,0.992955,0
5.217898,0.031069,2.133009,-0.00469,0.115326,0.985754,0.992488,0
5.259428,0.04153,2.134272,-0.004937,0.115812,0.986241,0.99303,0
5.29949,0.040062,2.135258,-0.00543,0.116783,0.986729,0.99363,0
5.325985,0.026495,2.135927,-0.006418,0.115812,0.987703,0.994491,0
5.36304,0.037055,2.13636,-0.005924,0.116298,0.985754,0.992608,0
5.398156,0.035115,2.13681,-0.006418,0.116055,0.98746,0.994277,0
5.427767,0.029611,2.137298,-0.006665,0.11654,0.986729,0.993609,0
5.464401,0.036634,2.137635,-0.006171,0.115569,0.988678,0.995429,0
5.500723,0.036322,2.137517,-0.005677,0.115084,0.985023,0.991739,0
5.533162,0.032439,2.137362,-0.006171,0.115569,0.986485,0.993251,0
5.568007,0.034845,2.137175,-0.005677,0.11654,0.986972,0.993845,0
5.603102,0.035095,2.136622,-0.006665,0.114355,0.986972,0.993597,0
5.636291,0.033189,2.135749,-0.003209,0.116298,0.987216,0.994048,0
5.672221,0.03593,2.134887,-0.007652,0.116298,0.987947,0.994798,0
5.70636,0.034139,2.134358,-0.00543,0.115812,0.986729,0.993517,0
5.739901,0.033541,2.133675,-0.00469,0.11654,0.987703,0.994566,0
5.778971,0.03907,2.133046,-0.006171,0.114841,0.988922,0.995587,0
5.809402,0.03043,2.132787,-0.004443,0.115812,0.988678,0.995448,0
5.839824,0.030422,2.132765,-0.005184,0.114841,0.985997,0.992676,0
5.871149,0.031325,2.132744,-0.006911,0.115569,0.98746,0.994224,0
5.905681,0.034532,2.132219,-0.006665,0.115569,0.987703,0.994464,0
5.931897,0.026217,2.131778,-0.00543,0.11654,0.986729,0.993602,0
5.965671,0.033774,2.131459,-0.005924,0.115569,0.990384,0.997122,0
5.99169,0.026019,2.131286,-0.005677,0.115812,0.987216,0.994002,0
6.017714,0.026024,2.131273,-0.006911,0.116298,0.986972,0.993825,0
6.044739,0.027025,2.131074,-0.006171,0.115569,0.987703,0.994461,0
6.081169,0.03643,2.130817,-0.006171,0.117026,0.988191,0.995115,0
6.1143,0.033131,2.130721,-0.00469,0.115569,0.987703,0.994453,0
6.151327,0.037026,2.130707,-0.005677,0.115326,0.986729,0.993461,0
6.186945,0.035619,2.130376,-0.007405,0.115812,0.98746,0.994255,0
6.212568,0.025623,2.129725,-0.005677,0.115326,0.988434,0.995156,0
6.246689,0.034121,2.129253,-0.00543,0.116783,0.988678,0.995566,0
6.284288,0.037598,2.128981,-0.00543,0.117026,0.985266,0.992207,0
6.314369,0.030082,2.128771,-0.006418,0.116298,0.986485,0.993337,0
6.349729,0.035359,2.128583,-0.007158,0.115569,0.98746,0.994225,0
6.407745,0.058017,2.128462,-0.005677,0.115569,0.985754,0.992521,0
6.448961,0.041216,2.128552,-0.006418,0.11654,0.985266,0.992156,0
6.486027,0.037066,2.128827,-0.006418,0.115326,0.987216,0.99395,0
6.517576,0.031549,2.128778,-0.005677,0.115812,0.986972,0.99376,0
6.55426,0.036685,2.12825,-0.00543,0.116055,0.98551,0.992335,0
6.591826,0.037566,2.127843,-0.005184,0.11654,0.987216,0.994084,0
6.621379,0.029553,2.127563,-0.00543,0.115326,0.98746,0.994186,0
6.659796,0.038418,2.127391,-0.006418,0.116055,0.985997,0.992825,0
6.689322,0.029525,2.127577,-0.006171,0.116298,0.98746,0.994304,0
6.724086,0.034764,2.127939,-0.005924,0.115326,0.985997,0.992737,0
6.760882,0.036796,2.128186,-0.00543,0.116055,0.986241,0.993061,0
6.795489,0.034607,2.128368,-0.006418,0.11654,0.987703,0.994576,0
6.828258,0.032769,2.128633,-0.00543,0.116783,0.985997,0.992904,0
6.863318,0.03506,2.129317,-0.007405,0.116783,0.985754,0.992675,0
6.89716,0.033842,2.129785,-0.006171,0.115569,0.986485,0.993251,0
6.930911,0.033752,2.129988,-0.006171,0.117269,0.986241,0.993208,0
6.960609,0.029698,2.130401,-0.005677,0.11654,0.984779,0.991667,0
6.993168,0.032559,2.130683,-0.00469,0.11654,0.985997,0.992872,0
7.029593,0.036425,2.130705,-0.005677,0.115326,0.985023,0.991767,0
7.064572,0.034979,2.130271,-0.005924,0.115084,0.986241,0.992951,0
7.103812,0.03924,2.130037,-0.006171,0.114841,0.986485,0.993166,0
7.139782,0.03597,2.130232,-0.005677,0.115569,0.986485,0.993248,0
7.166222,0.02644,2.131121,-0.005184,0.115569,0.986729,0.993487,0
7.193956,0.027734,2.131525,-0.00543,0.115812,0.98746,0.994243,0
7.23116,0.037204,2.131503,-0.006418,0.115812,0.987216,0.994007,0
7.267738,0.036578,2.131519,-0.006171,0.115812,0.987216,0.994005,0
7.299728,0.031991,2.131493,-0.006665,0.114841,0.986972,0.993653,0
7.336402,0.036674,2.131443,-0.006418,0.116055,0.988191,0.995003,0
7.375754,0.039352,2.131428,-0.006418,0.115084,0.987216,0.993922,0
7.407195,0.031441,2.131395,-0.006171,0.116298,0.988191,0.99503,0
7.4429,0.035704,2.131915,-0.00543,0.115326,0.987947,0.99467,0
7.476489,0.033589,2.132392,-0.005184,0.115084,0.987703,0.994399,0
7.508505,0.032016,2.132899,-0.005677,0.115569,0.986972,0.993732,0
7.546679,0.038175,2.13341,-0.006418,0.115569,0.987703,0.994462,0
7.582692,0.036013,2.133829,-0.006665,0.116055,0.988434,0.995247,0
7.614163,0.031471,2.134474,-0.005184,0.116783,0.988678,0.995565,0
7.641956,0.027793,2.1352,-0.006171,0.116298,0.986729,0.993578,0
7.672904,0.030948,2.135694,-0.00543,0.115326,0.988922,0.995639,0
7.708721,0.035817,2.13613,-0.006665,0.115084,0.987947,0.99465,0
7.741953,0.033231,2.136599,-0.00543,0.116298,0.988434,0.995267,0
7.779958,0.038005,2.136919,-0.006171,0.115569,0.989165,0.995913,0
7.813003,0.033044,2.137172,-0.006171,0.115812,0.99014,0.996909,0
7.84675,0.033748,2.137832,-0.006418,0.116055,0.987947,0.994761,0
7.88101,0.03426,2.138793,-0.004937,0.115812,0.990384,0.997145,0
7.91934,0.03833,2.139793,-0.007158,0.115812,0.990628,0.9974,0
7.952479,0.033139,2.140404,-0.005677,0.115084,0.99014,0.996822,0
7.986924,0.034445,2.140799,-0.004937,0.115569,0.986485,0.993244,0
8.027186,0.040262,2.141158,-0.004443,0.116783,0.989897,0.996771,0
8.060475,0.033289,2.141739,-0.005184,0.116055,0.987947,0.994754,0
8.098203,0.037728,2.142312,-0.005924,0.115812,0.988191,0.994972,0
8.132913,0.03471,2.142348,-0.006171,0.115812,0.989653,0.996425,0
8.169873,0.03696,2.142265,-0.00543,0.11654,0.987947,0.994812,0
8.20652,0.036647,2.142158,-0.005924,0.11654,0.989409,0.996267,0
8.23733,0.03081,2.142075,-0.006418,0.116298,0.989409,0.996241,0
8.275156,0.037826,2.142052,-0.006665,0.115326,0.989165,0.995888,0
8.310795,0.03564,2.142075,-0.005677,0.116055,0.988922,0.995725,0
8.343237,0.032442,2.142219,-0.005184,0.115812,0.991602,0.998356,0
8.377557,0.03432,2.142637,-0.006418,0.115812,0.99014,0.996911,0
8.411841,0.034283,2.143013,-0.005924,0.116055,0.991359,0.998146,0
8.446562,0.034721,2.143183,-0.005677,0.115084,0.990871,0.997548,0
8.488287,0.041725,2.143156,-0.004937,0.115084,0.989653,0.996334,0
8.520364,0.032077,2.142945,-0.006171,0.116055,0.989897,0.996696,0
8.553284,0.03292,2.142614,-0.00543,0.115569,0.989897,0.996635,0
8.592404,0.03912,2.142078,-0.005677,0.116055,0.990871,0.997661,0
8.624308,0.031905,2.141716,-0.006171,0.11654,0.988922,0.995784,0
8.658963,0.034655,2.141567,-0.006665,0.115812,0.988678,0.99546,0
8.689468,0.030505,2.141679,-0.006418,0.115569,0.988922,0.995673,0
8.725076,0.035609,2.14169,-0.006665,0.116298,0.989409,0.996243,0
8.760117,0.03504,2.141577,-0.005924,0.115812,0.989653,0.996424,0
8.797271,0.037155,2.141854,-0.005184,0.116055,0.988922,0.995722,0
8.836553,0.039281,2.142396,-0.006911,0.11654,0.989409,0.996273,0
8.871936,0.035383,2.142856,-0.006665,0.116055,0.988922,0.995731,0
8.904219,0.032283,2.143193,-0.006171,0.115812,0.991359,0.99812,0
8.939765,0.035547,2.143561,-0.00543,0.115812,0.989409,0.996179,0
8.976939,0.037174,2.143727,-0.006171,0.11654,0.989165,0.996026,0
9.004582,0.027643,2.143804,-0.005184,0.116783,0.988922,0.995807,0
9.04295,0.038368,2.143912,-0.004937,0.115812,0.99014,0.996903,0
9.075362,0.032413,2.143927,-0.006665,0.116298,0.989409,0.996243,0
9.112589,0.037227,2.14363,-0.005677,0.115326,0.990871,0.997576,0
9.144198,0.031608,2.142613,-0.00469,0.115569,0.989897,0.996631,0
9.180104,0.035906,2.14133,-0.00543,0.115812,0.989165,0.995937,0
9.213248,0.033144,2.14,-0.006171,0.114113,0.987947,0.994535,0
9.249691,0.036443,2.138519,-0.006665,0.115569,0.989409,0.996158,0
9.284143,0.034452,2.137208,-0.00543,0.116055,0.991115,0.997901,0
9.315481,0.031338,2.135975,-0.005184,0.116055,0.99014,0.996932,0
9.343781,0.0283,2.134771,-0.00469,0.115569,0.99014,0.996873,0
9.376229,0.032448,2.133309,-0.005924,0.115569,0.991359,0.99809,0
9.40398,0.027751,2.131755,-0.005924,0.115569,0.991846,0.998574,0
9.436388,0.032408,2.130474,-0.005184,0.115812,0.990871,0.99763,0
9.469607,0.03322,2.129413,-0.005184,0.115569,0.991359,0.998086,0
9.498989,0.029381,2.128344,-0.005924,0.115569,0.991359,0.99809,0
9.526032,0.027044,2.126974,-0.006171,0.115812,0.991602,0.998362,0
9.553433,0.027401,2.1254,-0.00469,0.115326,0.99209,0.998782,0
9.584462,0.031029,2.124132,-0.005677,0.115569,0.99209,0.998815,0
9.611515,0.027053,2.123137,-0.005677,0.115812,0.99209,0.998843,0
9.646204,0.034689,2.122259,-0.005924,0.115812,0.991602,0.99836,0
9.673627,0.027423,2.121479,-0.004443,0.116298,0.991115,0.997925,0
9.70415,0.030523,2.12076,-0.005677,0.115084,0.991602,0.998274,0
9.739395,0.035245,2.119962,-0.006418,0.116055,0.990628,0.997423,0
9.779363,0.039968,2.119098,-0.004937,0.116298,0.991602,0.998411,0
9.812585,0.033223,2.118094,-0.005184,0.115084,0.992577,0.99924,0
9.842356,0.029771,2.116844,-0.006665,0.114841,0.991115,0.997768,0
9.877346,0.03499,2.115455,-0.006418,0.116055,0.989653,0.996455,0
9.908232,0.030886,2.114404,-0.00543,0.114841,0.99209,0.998729,0
9.935378,0.027146,2.11324,-0.005924,0.11654,0.991846,0.998687,0
9.961996,0.026618,2.111967,-0.006418,0.116298,0.989897,0.996725,0
9.995677,0.033681,2.110492,-0.006665,0.115569,0.993065,0.999789,0
10.022199,0.026521,2.109104,-0.005677,0.115569,0.992334,0.999057,0
